File: Figure_codes/Fig_3-5/rawdata_trumpetplot_data/after 10th/20221101_1-115_003_TrumpetPlot_ParaChange_from10_every3_02_CV_C01_27.csv
mode,ox/red,error,control changes,counter inc.,time/s,control/V,Ewe/V,<I>/mA,cycle number,(Q-Qo)/C,I Range,P/W,log(|I|),Tafel slope mV/dec,alpha_eff,dI/d(E-IR),E-IR/V,
2,0,0,1,0,53533.6,2.44065e-05,-0.000382585,-0.398329,28,0.0000000E+000,10,1.52395e-07,-3.39976, , , ,-0.000382585,
2,0,0,1,0,53534.8,0.00129791,0.000868713,-0.181286,28,-0.000273003,10,-1.57485e-07,-3.74164, , , ,0.000868713,
2,0,0,1,0,53536.3,0.00279612,0.00245407,-0.144921,28,-0.000498506,10,-3.55646e-07,-3.83887,-0.0173526,-3.40008,20.8467,0.00245407,
2,0,0,1,0,53537.8,0.00429431,0.00396198,-0.124475,28,-0.000685128,10,-4.93169e-07,-3.90492,-0.0249229,-2.3673,11.6962,0.00396198,
2,0,0,1,0,53539.3,0.00579242,0.00543373,-0.109257,28,-0.000845244,10,-5.93671e-07,-3.96155,-0.0276248,-2.13576,9.24648,0.00543373,
2,0,0,1,0,53540.8,0.00729061,0.0069575,-0.0965538,28,-0.000984534,10,-6.71773e-07,-4.01523,-0.0299812,-1.9679,7.53069,0.0069575,
2,0,0,1,0,53542.3,0.00878882,0.00838698,-0.0870567,28,-0.00110736,10,-7.30143e-07,-4.0602,-0.0332437,-1.77477,6.07775,0.00838698,
2,0,0,1,0,53543.8,0.010287,0.00991293,-0.0783706,28,-0.00121642,10,-7.76882e-07,-4.10585,-0.036391,-1.62128,5.00721,0.00991293,
2,0,0,1,0,53545.3,0.0117852,0.0114112,-0.071545,28,-0.00131423,10,-8.16417e-07,-4.14542,-0.0360581,-1.63625,4.57073,0.0114112,
2,0,0,1,0,53546.8,0.0132834,0.0128916,-0.0651171,28,-0.00140217,10,-8.39463e-07,-4.1863,-0.0358389,-1.64626,4.18148,0.0128916,
2,0,0,1,0,53548.3,0.0147815,0.0144111,-0.0593525,28,-0.00148114,10,-8.55334e-07,-4.22656,-0.0376096,-1.56875,3.62048,0.0144111,
2,0,0,1,0,53549.8,0.0162797,0.0159497,-0.0541795,28,-0.00155204,10,-8.64148e-07,-4.26617,-0.0405669,-1.45439,3.10753,0.0159497,
2,0,0,1,0,53551.3,0.0177779,0.0174014,-0.0497029,28,-0.00161603,10,-8.64903e-07,-4.30362,-0.0411243,-1.43467,2.79695,0.0174014,
2,0,0,1,0,53552.8,0.0192761,0.0189072,-0.0458953,28,-0.0016743,10,-8.67752e-07,-4.33823,-0.039348,-1.49944,2.69165,0.0189072,
2,0,0,1,0,53554.3,0.0207743,0.0204183,-0.0419437,28,-0.00172628,10,-8.5642e-07,-4.37733,-0.0415023,-1.42161,2.33685,0.0204183,
2,0,0,1,0,53555.8,0.0222725,0.0219315,-0.0383454,28,-0.00177286,10,-8.4097e-07,-4.41629,-0.037904,-1.55656,2.33717,0.0219315,
2,0,0,1,0,53557.3,0.0237707,0.0234172,-0.0349482,28,-0.00181402,10,-8.18389e-07,-4.45657,-0.0383449,-1.53867,2.1194,0.0234172,
2,0,0,1,0,53558.8,0.0252689,0.0248964,-0.0317114,28,-0.00185058,10,-7.895e-07,-4.49878,-0.0319332,-1.84761,2.25453,0.0248964,
2,0,0,1,0,53560.3,0.0267671,0.0264182,-0.0282809,28,-0.00188204,10,-7.47129e-07,-4.54851,-0.0290299,-2.03239,2.29339,0.0264182,
2,0,0,1,0,53561.8,0.0282653,0.0279112,-0.0252648,28,-0.00190832,10,-7.05171e-07,-4.59748,-0.0298382,-1.97733,1.99015,0.0279112,
2,0,0,1,0,53563.3,0.0297635,0.0294424,-0.0224657,28,-0.00193045,10,-6.61446e-07,-4.64848,-0.0273692,-2.15571,1.90839,0.0294424,
2,0,0,1,0,53564.8,0.0312617,0.0308941,-0.0202296,28,-0.00194868,10,-6.24976e-07,-4.69401,-0.0265881,-2.21904,1.74776,0.0308941,
2,0,0,1,0,53566.3,0.0327599,0.032436,-0.0171426,28,-0.00196267,10,-5.56037e-07,-4.76592,-0.0236709,-2.49251,1.68668,0.032436,
2,0,0,1,0,53567.8,0.0342581,0.0338898,-0.0148085,28,-0.00197303,10,-5.01858e-07,-4.82949,-0.0200048,-2.9493,1.68788,0.03388983,
2,0,0,1,0,53569.3,0.0357563,0.0354041,-0.0122142,28,-0.00197934,10,-4.32434e-07,-4.91313,-0.0183603,-3.21346,1.60694,0.0354041,
2,0,0,1,0,53570.8,0.0372544,0.0368853,-0.0106527,28,-0.00198215,10,-3.9293e-07,-4.97254,-0.0134492,-4.38688,1.67161,0.0368853,
2,0,0,1,0,53572.3,0.0387526,0.038336,-0.008228,28,-0.00198184,10,-3.15428e-07,-5.08471,-0.0101816,-5.79479,1.64827,0.03833599,
2,0,0,1,0,53573.8,0.0402508,0.0398747,-0.00556489,28,-0.00197737,10,-2.21898e-07,-5.25454,-0.0074452,-7.92457,1.49913,0.0398747,
2,0,0,1,0,53575.3,0.041749,0.0413879,-0.00283731,28,-0.00196909,10,-1.1743e-07,-5.54709,-0.00285472,-20.6675,1.44378,0.0413879,
2,1,0,1,0,53576.8,0.0432472,0.0429117,-0.000376691,28,-0.0019574,10,-1.61644e-08,-6.42401,-0.0135352,-4.359,1.55396,0.0429117,
2,0,0,1,0,53578.3,0.0447454,0.0444048,0.00098313,28,-0.00194236,10,4.36557e-08,-6.00739,0.0115731,5.09802,1.49843,0.04440476,
2,0,0,1,0,53579.8,0.0462435,0.0458521,0.00414497,28,-0.00192414,10,1.90056e-07,-5.38248,0.00380523,15.505,1.30615,0.0458521,
2,0,0,1,0,53581.3,0.0477417,0.0473547,0.00564148,28,-0.00190278,10,2.67151e-07,-5.24861,0.00720591,8.18772,1.46325,0.0473547,
2,1,0,1,0,53582.8,0.0492399,0.0488839,0.00703135,28,-0.00187875,10,3.4372e-07,-5.15296,0.0134893,4.37384,1.25235,0.0488839,
2,1,0,1,0,53584.3,0.0507381,0.050449,0.00917974,28,-0.00185181,10,4.63109e-07,-5.03717,0.015522,3.80105,1.39011,0.050449,
2,1,0,1,0,53585.8,0.0522363,0.0518519,0.0106779,28,-0.00182179,10,5.53672e-07,-4.97151,0.0182081,3.24031,1.3539,0.0518519,
2,1,0,1,0,53587.3,0.0537345,0.0533535,0.0135915,28,-0.00178812,10,7.25154e-07,-4.86673,0.023818,2.47712,1.26065,0.0533535,
2,1,0,1,0,53588.8,0.0552327,0.0548752,0.0149809,28,-0.00175207,10,8.22079e-07,-4.82446,0.0275585,2.1409,1.24778,0.0548752,
2,1,0,1,0,53590.3,0.0567309,0.0563725,0.0162159,28,-0.00171339,10,9.14129e-07,-4.79006,0.0280901,2.10038,1.36105,0.0563725,
2,1,0,1,0,53591.8,0.0582291,0.0578804,0.018683,28,-0.00167196,10,1.08138e-06,-4.72855,0.0377756,1.56186,1.13148,0.0578804,
2,1,0,1,0,53593.3,0.0597273,0.0593788,0.0206546,28,-0.00162757,10,1.22645e-06,-4.68498,0.0424638,1.38942,1.0905,0.0593788,
2,1,0,1,0,53594.8,0.0612255,0.0608389,0.0220248,28,-0.0015806,10,1.33997e-06,-4.65709,0.0646094,0.913179,0.774403,0.0608389,
2,1,0,1,0,53596.2,0.0627237,0.0623479,0.0230019,28,-0.00153168,10,1.43412e-06,-4.63824,0.0549751,1.07321,0.994328,0.0623479,
2,1,0,1,0,53597.7,0.0642219,0.0638643,0.0249832,28,-0.00148082,10,1.59553e-06,-4.60235,0.050818,1.16101,1.13605,0.0638643,
2,1,0,1,0,53599.2,0.0657201,0.0653786,0.0265649,28,-0.00142708,10,1.73677e-06,-4.57569,0.0603535,0.977574,1.01284,0.0653786,
2,1,0,1,0,53600.7,0.0672183,0.0668642,0.0288122,28,-0.00137062,10,1.92651e-06,-4.54042,0.0665785,0.886171,0.963041,0.06686423,
2,1,0,1,0,53602.2,0.0687164,0.0683678,0.0298815,28,-0.00131204,10,2.04293e-06,-4.5246,0.0781485,0.754973,0.876433,0.0683678,
2,1,0,1,0,53603.7,0.0702146,0.0698757,0.0315118,28,-0.00125177,10,2.20191e-06,-4.50153,0.0735472,0.802206,0.96782,0.0698757,
2,1,0,1,0,53605.2,0.0717128,0.0713529,0.0325732,28,-0.0011888,10,2.32419e-06,-4.48714,0.0628181,0.93922,1.19246,0.0713529,
2,1,0,1,0,53606.7,0.073211,0.0728501,0.033885,28,-0.00112349,10,2.46853e-06,-4.46999,0.0774444,0.761837,1.01526,0.0728501,
2,1,0,1,0,53608.2,0.0747092,0.0743443,0.0356134,28,-0.00105613,10,2.64765e-06,-4.44839,0.0841617,0.701031,0.98036,0.07434427,
2,1,0,1,0,53609.7,0.0762074,0.0758426,0.0363422,28,-0.000986966,10,2.75628e-06,-4.43959,0.0884417,0.667106,0.965877,0.0758426,
2,1,0,1,0,53611.2,0.0777055,0.0773388,0.038201,28,-0.000915398,10,2.95442e-06,-4.41793,0.0884323,0.667177,0.994402,0.0773388,
2,1,0,1,0,53612.7,0.0792037,0.0788477,0.0402334,28,-0.000841519,10,3.17231e-06,-4.39541,0.0999192,0.590477,0.917455,0.0788477,
2,1,0,1,0,53614.2,0.0807019,0.0803768,0.0412026,28,-0.000765543,10,3.31174e-06,-4.38507,0.131929,0.44721,0.714547,0.0803768,
2,1,0,1,0,53615.7,0.0822001,0.0818455,0.0420707,28,-0.000687783,10,3.4433e-06,-4.37602,0.0895313,0.658987,1.0944,0.0818455,
2,1,0,1,0,53617.2,0.0836983,0.0833673,0.0444255,28,-0.000607641,10,3.70363e-06,-4.35237,0.0851223,0.69312,1.20235,0.0833673,
2,1,0,1,0,53618.7,0.0851965,0.0848316,0.0458618,28,-0.000524793,10,3.89053e-06,-4.33855,0.100269,0.588418,1.05745,0.08483164,
2,1,0,1,0,53620.2,0.0866947,0.0863714,0.0474476,28,-0.00043913,10,4.09812e-06,-4.32379,0.115196,0.512171,0.948947,0.0863714,
2,1,0,1,0,53621.7,0.0881929,0.0878507,0.0494237,28,-0.000350821,10,4.34191e-06,-4.30606,0.09916,0.594998,1.15579,0.0878507,
2,1,0,1,0,53623.2,0.0896911,0.0893543,0.0511401,28,-0.000260493,10,4.56959e-06,-4.29124,0.0897523,0.657365,1.32813,0.0893543,
2,1,0,1,0,53624.7,0.0911893,0.0908527,0.05335,28,-0.000166763,10,4.84699e-06,-4.27287,0.100699,0.585904,1.20434,0.0908527,
2,1,0,1,0,53626.2,0.0926875,0.0923553,0.0550711,28,-7.00207e-05,10,5.08611e-06,-4.25908,0.0990937,0.595396,1.28072,0.0923553,
2,1,0,1,0,53627.7,0.0941857,0.0938589,0.0569899,28,2.91489e-05,10,5.34901e-06,-4.2442,0.103685,0.569031,1.26336,0.0938589,
2,1,0,1,0,53629.2,0.0956839,0.0952937,0.0586932,28,0.000130873,10,5.5931e-06,-4.23141,0.117069,0.503977,1.15588,0.0952937,
2,1,0,1,0,53630.7,0.0971821,0.0968366,0.060504,28,0.000235802,10,5.859e-06,-4.21822,0.0956767,0.61666,1.44818,0.0968366,
2,1,0,1,0,53632.2,0.0986803,0.0983678,0.0627851,28,0.000343622,10,6.17604e-06,-4.20214,0.103379,0.570717,1.40523,0.09836781,
2,1,0,1,0,53633.7,0.100178,0.0998693,0.0644536,28,0.000454458,10,6.43693e-06,-4.19075,0.103037,0.57261,1.44653,0.0998693,
2,1,0,1,0,53635.2,0.101677,0.101308,0.0666039,28,0.000568344,10,6.74753e-06,-4.1765,0.105587,0.558781,1.4599,0.101308,
2,1,0,1,0,53636.7,0.103175,0.102843,0.0690337,28,0.000685562,10,7.09961e-06,-4.16094,0.107905,0.546777,1.46531,0.1028427,
2,1,0,1,0,53638.2,0.104673,0.104379,0.0719025,28,0.000806526,10,7.50513e-06,-4.14326,0.125755,0.469166,1.29523,0.104379,
2,1,0,1,0,53639.7,0.106171,0.105842,0.0724301,28,0.000930235,10,7.66611e-06,-4.14008,0.171847,0.343329,0.972348,0.105842,
2,1,0,1,0,53641.2,0.107669,0.107338,0.0740119,28,0.00105628,10,7.94428e-06,-4.1307,0.157735,0.374045,1.09055,0.1073378,
2,1,0,1,0,53642.7,0.109167,0.108826,0.0760137,28,0.0011844,10,8.27231e-06,-4.11911,0.144086,0.409477,1.22302,0.108826,
2,1,0,1,0,53644.2,0.110666,0.110306,0.0776616,28,0.00131557,10,8.56652e-06,-4.10979,0.144058,0.409556,1.2449,0.110306,
2,1,0,1,0,53645.7,0.112164,0.111817,0.079584,28,0.00144954,10,8.89883e-06,-4.09917,0.200404,0.294406,0.911571,0.111817,
2,1,0,1,0,53647.2,0.113662,0.113305,0.0814871,28,0.00158563,10,9.23287e-06,-4.08891,0.185399,0.318232,1.00962,0.113305,
2,1,0,1,0,53648.7,0.11516,0.114801,0.0831674,28,0.0017237,10,9.54769e-06,-4.08005,0.15282,0.386075,1.24116,0.114801,
2,1,0,1,0,53650.2,0.116658,0.116341,0.0847339,28,0.00186514,10,9.85799e-06,-4.07194,0.16588,0.355678,1.16612,0.116341,
2,1,0,1,0,53651.7,0.118157,0.117782,0.0863689,28,0.00200896,10,1.01727e-05,-4.06364,0.186339,0.316628,1.06706,0.1177817,
2,1,0,1,0,53653.2,0.119655,0.119317,0.0877988,28,0.00215494,10,1.04759e-05,-4.05651,0.217048,0.271829,0.929251,0.119317,
2,1,0,1,0,53654.7,0.121153,0.120782,0.0890451,28,0.00230278,10,1.0755e-05,-4.05039,0.225106,0.262098,0.911914,0.120782,
2,1,0,1,0,53656.2,0.122651,0.122274,0.0903832,28,0.00245309,10,1.10515e-05,-4.04391,0.170071,0.346914,1.21816,0.122274,
2,1,0,1,0,53657.7,0.124149,0.123838,0.0919373,28,0.00260543,10,1.13853e-05,-4.03651,0.301902,0.195428,0.700164,0.123838,
2,1,0,1,0,53659.2,0.125648,0.125295,0.0925379,28,0.00275982,10,1.15945e-05,-4.03368,0.464229,0.127093,0.45928,0.125295,
2,1,0,1,0,53660.7,0.127146,0.126813,0.0931232,28,0.00291499,10,1.18093e-05,-4.03094,0.834942,0.0706636,0.257162,0.126813,
2,1,0,1,0,53662.2,0.128644,0.128297,0.0944087,28,0.00307113,10,1.21123e-05,-4.02499,0.737889,0.0799578,0.292172,0.128297,
2,1,0,1,0,53663.7,0.130142,0.129824,0.0949129,28,0.00322811,10,1.23219e-05,-4.02267,-4.13156,-0.0142803,-0.0523913,0.129824,
2,1,0,1,0,53665.2,0.13164,0.131302,0.0942306,28,0.00338562,10,1.23726e-05,-4.02581,-0.377135,-0.156443,-0.569168,0.131302,
2,1,0,1,0,53666.7,0.133139,0.132765,0.0930738,28,0.00354157,10,1.2357e-05,-4.03117,-0.287742,-0.205044,-0.746305,0.132765,
2,1,0,1,0,53668.2,0.134637,0.134278,0.0917119,28,0.00369538,10,1.23149e-05,-4.03757,-0.212014,-0.278283,-0.992744,0.134278,
2,1,0,1,0,53669.7,0.136135,0.135765,0.0899846,28,0.0038472,10,1.22168e-05,-4.04583,-0.139272,-0.423631,-1.47763,0.135765,
2,1,0,1,0,53671.2,0.137633,0.137315,0.0875154,28,0.00399557,10,1.20172e-05,-4.05792,-0.0958053,-0.615832,-2.07855,0.137315,
2,1,0,1,0,53672.7,0.139131,0.13876,0.0841739,28,0.00413916,10,1.16799e-05,-4.07482,-0.090411,-0.652575,-2.12781,0.13876,
2,1,0,1,0,53674.2,0.14063,0.140279,0.0804017,28,0.00427741,10,1.12787e-05,-4.09473,-0.0757063,-0.779327,-2.43278,0.140279,
2,1,0,1,0,53675.7,0.142128,0.141844,0.0771547,28,0.00441058,10,1.0944e-05,-4.11264,-0.0725901,-0.812783,-2.43593,0.141844,
2,1,0,1,0,53677.2,0.143626,0.143285,0.0734856,28,0.00453815,10,1.05294e-05,-4.1338,-0.0762902,-0.773363,-2.21122,0.143285,
2,1,0,1,0,53678.7,0.145124,0.144806,0.0692844,28,0.00465983,10,1.00328e-05,-4.15936,-0.065191,-0.905033,-2.47066,0.144806,
2,1,0,1,0,53680.1,0.146622,0.146311,0.0656067,28,0.00477584,10,9.59897e-06,-4.18305,-0.0692409,-0.852098,-2.20006,0.146311,
2,1,0,1,0,53681.6,0.14812,0.147795,0.0629289,28,0.004887,10,9.30061e-06,-4.20115,-0.0813863,-0.724938,-1.78565,0.147795,
2,1,0,1,0,53683.1,0.149619,0.14925,0.0606066,28,0.00499416,10,9.04555e-06,-4.21748,-0.0894754,-0.659399,-1.55809,0.14925,
2,1,0,1,0,53684.6,0.151117,0.150775,0.057804,28,0.00509772,10,8.71542e-06,-4.23804,-0.101064,-0.583789,-1.33078,0.150775,
2,1,0,1,0,53686.1,0.152615,0.152258,0.0562587,28,0.00519774,10,8.56582e-06,-4.24981,-0.102554,-0.575305,-1.26832,0.152258,
2,1,0,1,0,53687.6,0.154113,0.153766,0.0547053,28,0.00529508,10,8.41178e-06,-4.26197,-0.151618,-0.389135,-0.839007,0.153766,
2,1,0,1,0,53689.1,0.155611,0.155263,0.0536463,28,0.00539034,10,8.32928e-06,-4.27046,-0.20502,-0.287777,-0.606151,0.155263,
2,1,0,1,0,53690.6,0.15711,0.156807,0.0526534,28,0.00548433,10,8.25642e-06,-4.27857,-0.229569,-0.257004,-0.53012,0.156807,
2,1,0,1,0,53692.1,0.158608,0.158285,0.0523672,28,0.0055773,10,8.28895e-06,-4.28094,-0.258006,-0.228677,-0.470291,0.158285,
2,1,0,1,0,53693.6,0.160106,0.159758,0.0518933,28,0.00566883,10,8.29036e-06,-4.28489,-0.389365,-0.151529,-0.307103,0.159758,
2,1,0,1,0,53695.1,0.161604,0.161246,0.0510768,28,0.00575992,10,8.23592e-06,-4.29178,-0.738584,-0.0798826,-0.160037,0.161246,
2,1,0,1,0,53696.6,0.163102,0.162764,0.051324,28,0.00585052,10,8.3537e-06,-4.28968,-0.591874,-0.0996834,-0.198312,0.162764,
2,1,0,1,0,53698.1,0.164601,0.164267,0.0505716,28,0.00594069,10,8.30723e-06,-4.29609,-0.351885,-0.167668,-0.331608,0.164267,
2,1,0,1,0,53699.6,0.166099,0.165805,0.0502718,28,0.00602977,10,8.33533e-06,-4.29868,-0.523484,-0.112706,-0.220837,0.165805,
2,1,0,1,0,53701.1,0.167597,0.167243,0.0501357,28,0.00611856,10,8.38485e-06,-4.29985,-0.780763,-0.0755671,-0.146949,0.167243,
2,1,0,1,0,53702.6,0.169095,0.168751,0.0497104,28,0.00620704,10,8.38868e-06,-4.30355,-0.922498,-0.0639568,-0.124749,0.1687512,
2,1,0,1,0,53704.1,0.170593,0.170246,0.0495461,28,0.00629506,10,8.43504e-06,-4.30499,-0.80323,-0.0734534,-0.142372,0.170246,
2,1,0,1,0,53705.6,0.172091,0.171763,0.0494513,28,0.00638273,10,8.49389e-06,-4.30582,1.08364,0.0544461,0.105439,0.171763,
2,1,0,1,0,53707.1,0.17359,0.173232,0.0494762,28,0.00647064,10,8.57087e-06,-4.3056,0.641402,0.091986,0.178682,0.173232,
2,1,0,1,0,53708.6,0.175088,0.174757,0.0495524,28,0.00655879,10,8.65965e-06,-4.30494,0.873134,0.0675727,0.131503,0.174757,
2,1,0,1,0,53710.1,0.176586,0.176228,0.0499523,28,0.00664775,10,8.80299e-06,-4.30144,-2.78153,-0.0212113,-0.0410652,0.176228,
2,1,0,1,0,53711.6,0.178084,0.177752,0.0493555,28,0.00673635,10,8.77303e-06,-4.30666,-0.743874,-0.0793145,-0.155158,0.177752,
2,1,0,1,0,53713.1,0.179582,0.179251,0.050197,28,0.00682469,10,8.99787e-06,-4.29932,-3.70787,-0.0159121,-0.0310167,0.1792513,
2,1,0,1,0,53714.6,0.181081,0.180748,0.049964,28,0.00691336,10,9.03086e-06,-4.30134,0.827781,0.0712749,0.139501,0.180748,
2,1,0,1,0,53716.1,0.182579,0.18225,0.0500995,28,0.00700217,10,9.13064e-06,-4.30017,4.66531,0.0126465,0.0246276,0.18225,
2,1,0,1,0,53717.6,0.184077,0.183737,0.0496997,28,0.00709091,10,9.13166e-06,-4.30365,2.80441,0.0210383,0.0412493,0.183737,
2,1,0,1,0,53719.1,0.185575,0.185257,0.0502944,28,0.00717937,10,9.31741e-06,-4.29848,0.70994,0.0831056,0.163613,0.185257,
2,1,0,1,0,53720.6,0.187073,0.186748,0.0507149,28,0.00726839,10,9.47092e-06,-4.29486,0.89954,0.0655891,0.12875,0.186748,
2,1,0,1,0,53722.1,0.188572,0.188201,0.0506897,28,0.00735786,10,9.53986e-06,-4.29508,0.378593,0.15584,0.309166,0.1882012,
2,1,0,1,0,53723.6,0.19007,0.189758,0.0511026,28,0.00744762,10,9.69712e-06,-4.29156,1.52513,0.0386853,0.0767903,0.189758,
2,1,0,1,0,53725.1,0.191568,0.19121,0.0509416,28,0.00753764,10,9.74052e-06,-4.29293,1.86082,0.0317064,0.0633298,0.19121,
2,1,0,1,0,53726.6,0.193066,0.192711,0.0506611,28,0.00762766,10,9.76295e-06,-4.29533,1.7744,0.0332507,0.0659793,0.192711,
2,1,0,1,0,53728.1,0.194564,0.194218,0.0511399,28,0.00771797,10,9.93228e-06,-4.29124,611.553,9.64757e-05,0.000193145,0.194218,
2,1,0,1,0,53729.6,0.196063,0.195736,0.0509949,28,0.00780815,10,9.98155e-06,-4.29247,4.17775,0.0141224,0.0283465,0.195736,
2,1,0,1,0,53731.1,0.197561,0.197268,0.0511719,28,0.00789824,10,1.00946e-05,-4.29097,1.68673,0.0349789,0.0702924,0.197268,
2,1,0,1,0,53732.6,0.199059,0.198737,0.0518417,28,0.00798874,10,1.03029e-05,-4.28532,0.771112,0.0765128,0.153799,0.1987374,
2,1,0,1,0,53734.1,0.200557,0.200212,0.051486,28,0.00807944,10,1.03081e-05,-4.28831,0.641924,0.0919111,0.185116,0.200212,
2,1,0,1,0,53735.6,0.202055,0.201718,0.0519166,28,0.00817061,10,1.04725e-05,-4.28469,0.530521,0.111211,0.225317,0.201718,
2,1,0,1,0,53737.1,0.203554,0.203225,0.052003,28,0.00826215,10,1.05683e-05,-4.28397,2.9722,0.0198506,0.0403523,0.203225,
2,1,0,1,0,53738.6,0.205052,0.204635,0.0524748,28,0.00835368,10,1.07382e-05,-4.28005,0.604728,0.0975646,0.201425,0.204635,
2,1,0,1,0,53740.1,0.20655,0.206234,0.0521843,28,0.00844555,10,1.07622e-05,-4.28246,0.816725,0.0722398,0.14759,0.2062344,
2,1,0,1,0,53741.6,0.208048,0.207731,0.0526253,28,0.00853795,10,1.09319e-05,-4.27881,10.0699,0.00585903,0.0119973,0.207731,
2,1,0,1,0,53743.1,0.209546,0.20921,0.0531836,28,0.00863034,10,1.11265e-05,-4.27422,3.65123,0.0161589,0.0333459,0.20921,
2,1,0,1,0,53744.6,0.211044,0.210703,0.0530324,28,0.00872272,10,1.11741e-05,-4.27546,2.64109,0.0223393,0.0459096,0.210703,
2,1,0,1,0,53746.1,0.212543,0.2122,0.0530431,28,0.0088154,10,1.12558e-05,-4.27537,2.1631,0.0272757,0.0564032,0.2122,
2,1,0,1,0,53747.6,0.214041,0.213752,0.0533184,28,0.00890806,10,1.13969e-05,-4.27312,3.12339,0.0188897,0.0390602,0.213752,
2,1,0,1,0,53749.1,0.215539,0.2152,0.0532311,28,0.00900111,10,1.14554e-05,-4.27383,0.687634,0.0858015,0.177669,0.2152,
2,1,0,1,0,53750.6,0.217037,0.216748,0.0530308,28,0.00909399,10,1.14943e-05,-4.27547,1.9782,0.0298251,0.0624777,0.216748,
2,1,0,1,0,53752.1,0.218535,0.218253,0.0533835,28,0.00918724,10,1.16511e-05,-4.27259,0.371526,0.158804,0.333601,0.218253,
2,1,0,1,0,53753.6,0.220034,0.219707,0.0543993,28,0.00928125,10,1.19519e-05,-4.26441,1.11252,0.0530328,0.11169,0.219707,
2,1,0,1,0,53755.1,0.221532,0.221215,0.0544819,28,0.00937599,10,1.20522e-05,-4.26375,0.798923,0.0738494,0.156571,0.221215,
2,1,0,1,0,53756.6,0.22303,0.222712,0.0538681,28,0.00947036,10,1.19971e-05,-4.26867,1.77299,0.0332771,0.0707001,0.222712,
2,1,0,1,0,53758.1,0.224528,0.224211,0.0547907,28,0.00956508,10,1.22847e-05,-4.26129,-12.7351,-0.00463286,-0.00988751,0.224211,
2,1,0,1,0,53759.6,0.226026,0.225728,0.0544318,28,0.00965989,10,1.22868e-05,-4.26415,1.02476,0.0575745,0.123027,0.225728,
2,1,0,1,0,53761.1,0.227525,0.22724,0.0547919,28,0.00975502,10,1.24509e-05,-4.26128,1.7311,0.0340825,0.0727396,0.22724,
2,1,0,1,0,53762.5,0.229023,0.228634,0.0548288,28,0.00985006,10,1.25357e-05,-4.26099,1.07785,0.0547387,0.117607,0.228634,
2,1,0,1,0,53764,0.230521,0.23017,0.0550514,28,0.00994543,10,1.26712e-05,-4.25923,0.877063,0.06727,0.145224,0.23017,
2,1,0,1,0,53765.5,0.232019,0.231638,0.0551671,28,0.0100412,10,1.27788e-05,-4.25832,2.52636,0.0233537,0.0506698,0.231638,
2,1,0,1,0,53767,0.233517,0.233172,0.0556775,28,0.0101375,10,1.29824e-05,-4.25432,0.827861,0.071268,0.155004,0.233172,
2,1,0,1,0,53768.5,0.235016,0.234728,0.0561696,28,0.0102341,10,1.31846e-05,-4.2505,0.697275,0.0846151,0.185016,0.234728,
2,1,0,1,0,53770,0.236514,0.236203,0.0564579,28,0.010331,10,1.33355e-05,-4.24827,1.28992,0.0457394,0.0999544,0.236203,
2,1,0,1,0,53771.5,0.238012,0.237657,0.0564985,28,0.0104283,10,1.34273e-05,-4.24796,1.80374,0.0327098,0.0718682,0.237657,
2,1,0,1,0,53773,0.23951,0.239208,0.0566751,28,0.010526,10,1.35571e-05,-4.24661,1.34115,0.043992,0.0969806,0.239208,
2,1,0,1,0,53774.5,0.241008,0.240653,0.0565522,28,0.0106237,10,1.36095e-05,-4.24755,-2.48885,-0.0237057,-0.0526773,0.240653,
2,1,0,1,0,53776,0.242506,0.242102,0.0562024,28,0.0107212,10,1.36067e-05,-4.25025,0.923017,0.0639208,0.141951,0.242102,
2,1,0,1,0,53777.5,0.244005,0.243706,0.0569501,28,0.0108191,10,1.38791e-05,-4.24451,0.858601,0.0687164,0.152237,0.243706,
2,1,0,1,0,53779,0.245503,0.245182,0.057433,28,0.0109176,10,1.40816e-05,-4.24084,1.35689,0.0434817,0.0971982,0.2451821,
2,1,0,1,0,53780.5,0.247001,0.246624,0.0576325,28,0.0110161,10,1.42136e-05,-4.23933,1.15183,0.0512226,0.115142,0.2466242,
2,1,0,1,0,53782,0.248499,0.248172,0.0572078,28,0.0111148,10,1.41974e-05,-4.24254,0.385398,0.153088,0.344232,0.248172,
2,1,0,1,0,53783.5,0.249997,0.24969,0.0584168,28,0.0112141,10,1.45861e-05,-4.23346,2.85515,0.0206644,0.0466468,0.24969,
2,1,0,1,0,53785,0.251496,0.25118,0.0581276,28,0.011314,10,1.46005e-05,-4.23562,-22.6001,-0.00261061,-0.00592469,0.25118,
2,1,0,1,0,53786.5,0.252994,0.252663,0.0581604,28,0.0114137,10,1.4695e-05,-4.23537,-0.984194,-0.0599475,-0.136078,0.252663,
2,1,0,1,0,53788,0.254492,0.254178,0.0584295,28,0.0115137,10,1.48515e-05,-4.23337,0.68323,0.0863545,0.196921,0.2541776,
2,1,0,1,0,53789.5,0.25599,0.2556,0.0585756,28,0.0116138,10,1.49719e-05,-4.23228,1.57589,0.0374392,0.0859463,0.2556,
2,1,0,1,0,53791,0.257488,0.257184,0.0585788,28,0.0117142,10,1.50655e-05,-4.23226,1.46682,0.040223,0.0922836,0.257184,
2,1,0,1,0,53792.5,0.258987,0.258667,0.0592286,28,0.0118148,10,1.53205e-05,-4.22747,0.696786,0.0846745,0.194815,0.258667,
2,1,0,1,0,53794,0.260485,0.260174,0.0595497,28,0.0119158,10,1.54933e-05,-4.22512,0.419111,0.140774,0.323735,0.260174,
2,1,0,1,0,53795.5,0.261983,0.261649,0.0592267,28,0.0120168,10,1.54966e-05,-4.22748,6.84424,0.00862039,0.0199443,0.261649,
2,1,0,1,0,53797,0.263481,0.263132,0.0597134,28,0.0121183,10,1.57125e-05,-4.22393,0.70766,0.0833734,0.193445,0.263132,
2,1,0,1,0,53798.5,0.264979,0.264647,0.0599081,28,0.01222,10,1.58545e-05,-4.22251,0.852144,0.0692371,0.161665,0.264647,
2,1,0,1,0,53800,0.266477,0.266157,0.0599704,28,0.0123221,10,1.59615e-05,-4.22206,0.703904,0.0838182,0.196658,0.266157,
2,1,0,1,0,53801.5,0.267976,0.267635,0.0597669,28,0.0124242,10,1.59957e-05,-4.22354,0.883885,0.0667508,0.15671,0.267635,
2,1,0,1,0,53803,0.269474,0.269114,0.0602294,28,0.0125269,10,1.62086e-05,-4.22019,2.05356,0.0287305,0.0674083,0.269114,
2,1,0,1,0,53804.5,0.270972,0.270674,0.0606107,28,0.0126297,10,1.64058e-05,-4.21745,12.6966,0.00464692,0.0109548,0.270674,
2,1,0,1,0,53806,0.27247,0.272137,0.0605539,28,0.0127324,10,1.64789e-05,-4.21786,9.22851,0.00639323,0.0150557,0.272137,
2,1,0,1,0,53807.5,0.273968,0.273642,0.0600281,28,0.0128351,10,1.64262e-05,-4.22165,1.05751,0.0557916,0.131888,0.2736423,
2,1,0,1,0,53809,0.275467,0.27513,0.0606025,28,0.0129377,10,1.66736e-05,-4.21751,0.562551,0.104879,0.248559,0.27513,
2,1,0,1,0,53810.5,0.276965,0.276624,0.0607807,28,0.0130407,10,1.68134e-05,-4.21623,1.09675,0.0537952,0.127715,0.276624,
2,1,0,1,0,53812,0.278463,0.278145,0.0612641,28,0.0131444,10,1.70403e-05,-4.21279,0.620829,0.0950342,0.226891,0.278145,
2,1,0,1,0,53813.5,0.279961,0.279647,0.062094,28,0.0132485,10,1.73644e-05,-4.20695,20.4393,0.0028866,0.00692242,0.279647,
2,1,0,1,0,53815,0.281459,0.281148,0.0617437,28,0.0133529,10,1.73591e-05,-4.20941,0.765249,0.0770991,0.18612,0.281148,
2,1,0,1,0,53816.5,0.282958,0.282646,0.0617801,28,0.0134574,10,1.74619e-05,-4.20915,0.666853,0.0884753,0.213081,0.282646,
2,1,0,1,0,53818,0.284456,0.284135,0.0621885,28,0.0135625,10,1.76699e-05,-4.20629,1.17952,0.0500202,0.121195,0.2841351,
2,1,0,1,0,53819.5,0.285954,0.285639,0.0623164,28,0.0136677,10,1.78e-05,-4.2054,4.20402,0.0140342,0.0341463,0.285639,
2,1,0,1,0,53821,0.287452,0.287102,0.0627257,28,0.0137728,10,1.80087e-05,-4.20255,1.9828,0.0297559,0.072517,0.287102,
2,1,0,1,0,53822.5,0.28895,0.288634,0.0625422,28,0.0138782,10,1.80518e-05,-4.20383,0.49165,0.120004,0.293914,0.288634,
2,1,0,1,0,53824,0.290448,0.290141,0.0631946,28,0.013984,10,1.83354e-05,-4.19932,0.800458,0.0737078,0.181021,0.2901412,
2,1,0,1,0,53825.5,0.291947,0.291611,0.0628817,28,0.0140904,10,1.8337e-05,-4.20148,1.23603,0.0477335,0.117539,0.2916109,
2,1,0,1,0,53827,0.293445,0.293127,0.0632037,28,0.0141969,10,1.85267e-05,-4.19926,0.670931,0.0879375,0.218016,0.2931273,
2,1,0,1,0,53828.5,0.294943,0.294606,0.0640677,28,0.0143039,10,1.88747e-05,-4.19336,0.66499,0.0887231,0.220702,0.294606,
2,1,0,1,0,53830,0.296441,0.296157,0.064171,28,0.0144115,10,1.90047e-05,-4.19266,1.77325,0.0332723,0.08299,0.296157,
2,1,0,1,0,53831.5,0.297939,0.297625,0.0640578,28,0.0145191,10,1.90652e-05,-4.19343,-2.219,-0.0265885,-0.0664124,0.2976245,
2,1,0,1,0,53833,0.299438,0.299131,0.0640509,28,0.0146268,10,1.91596e-05,-4.19348,-0.00419369,-14.0688,-22.5573,0.299131,
2,1,0,1,0,53833.8,0.299737,0.299409,0.0321544,28,0.0146754,10,9.62733e-06,-4.49276,0.00199771,29.5338,40.3137,0.299409,
2,1,0,1,0,53835.3,0.298239,0.297958,0.0187936,28,0.0146986,10,5.59972e-06,-4.72599,0.00504407,11.6969,14.38,0.297958,
2,1,0,1,0,53836.8,0.296741,0.296428,0.0137083,28,0.0147106,10,4.06353e-06,-4.86302,0.0116083,5.08257,2.82045,0.296428,
2,1,0,1,0,53838.3,0.295243,0.294899,0.010328,28,0.0147165,10,3.04572e-06,-4.98598,0.0131652,4.4815,1.87072,0.294899,
2,1,0,1,0,53839.8,0.293745,0.293422,0.00735188,28,0.0147184,10,2.1572e-06,-5.1336,0.0123341,4.78348,1.44779,0.2934221,
2,1,0,1,0,53841.3,0.292246,0.291931,0.00566057,28,0.014717,10,1.6525e-06,-5.24714,0.00892745,6.60883,1.45326,0.291931,
2,0,0,1,0,53842.8,0.290748,0.290397,0.00385851,28,0.0147128,10,1.1205e-06,-5.41358,0.00701555,8.40989,1.22542,0.290397,
2,1,0,1,0,53844.3,0.28925,0.288936,0.00231262,28,0.0147058,10,6.68198e-07,-5.6359,0.00275596,21.4082,1.09036,0.288936,
2,1,0,1,0,53845.8,0.287752,0.287432,0.00102806,28,0.0146961,10,2.95496e-07,-5.98798,0.0113626,5.19248,1.01059,0.2874319,
2,1,0,1,0,53847.3,0.286254,0.285915,-0.000514906,28,0.0146845,10,-1.4722e-07,-6.28827,-0.00791075,-7.4582,0.779345,0.285915,
2,1,0,1,0,53848.8,0.284755,0.284452,-0.00196353,28,0.0146709,10,-5.58529e-07,-5.70696,-0.00276328,-21.3514,0.905542,0.284452,
2,1,0,1,0,53850.3,0.283257,0.282894,-0.00324385,28,0.0146552,10,-9.17668e-07,-5.48894,-0.0078065,-7.5578,0.844023,0.282894,
2,0,0,1,0,53851.8,0.281759,0.281422,-0.00464387,28,0.0146377,10,-1.30689e-06,-5.33312,-0.0123348,-4.78322,0.775571,0.281422,
2,1,0,1,0,53853.3,0.280261,0.279945,-0.00525996,28,0.0146185,10,-1.4725e-06,-5.27902,-0.0165502,-3.56491,0.739212,0.279945,
2,0,0,1,0,53854.8,0.278763,0.278438,-0.00676003,28,0.0145975,10,-1.88225e-06,-5.17005,-0.0188703,-3.12661,0.774636,0.278438,
2,0,0,1,0,53856.3,0.277264,0.276956,-0.00750438,28,0.014575,10,-2.07838e-06,-5.12469,-0.0282224,-2.09054,0.596597,0.276956,
2,0,0,1,0,53857.8,0.275766,0.275478,-0.00829954,28,0.0145511,10,-2.28634e-06,-5.08095,-0.0388631,-1.51815,0.50438,0.275478,
2,0,0,1,0,53859.3,0.274268,0.273965,-0.009173,28,0.0145258,10,-2.51308e-06,-5.03749,-0.0306799,-1.92309,0.720834,0.273965,
2,0,0,1,0,53860.8,0.27277,0.272449,-0.00999888,28,0.0144992,10,-2.72419e-06,-5.00005,-0.0366384,-1.61033,0.644315,0.272449,
2,1,0,1,0,53862.3,0.271272,0.270934,-0.0107558,28,0.0144711,10,-2.91412e-06,-4.96836,-0.0512619,-1.15095,0.493669,0.270934,
2,0,0,1,0,53863.8,0.269774,0.269438,-0.0117267,28,0.0144419,10,-3.15961e-06,-4.93082,-0.0603735,-0.97725,0.445504,0.269438,
2,0,0,1,0,53865.3,0.268275,0.267976,-0.0124954,28,0.0144118,10,-3.34847e-06,-4.90325,-0.0703887,-0.838203,0.408927,0.267976,
2,0,0,1,0,53866.8,0.266777,0.266424,-0.0133748,28,0.0143808,10,-3.56336e-06,-4.87371,-0.0718875,-0.820727,0.423074,0.266424,
2,0,0,1,0,53868.3,0.265279,0.264965,-0.0141397,28,0.0143483,10,-3.74653e-06,-4.84956,-0.0547209,-1.0782,0.589659,0.264965,
2,0,0,1,0,53869.8,0.263781,0.263405,-0.0149112,28,0.0143145,10,-3.92768e-06,-4.82649,-0.0757179,-0.779208,0.449484,0.2634052,
2,0,0,1,0,53871.3,0.262283,0.261994,-0.0153222,28,0.0142797,10,-4.01432e-06,-4.81468,-0.0866389,-0.680987,0.414388,0.261994,
2,0,0,1,0,53872.8,0.260784,0.2605,-0.0160858,28,0.014244,10,-4.19035e-06,-4.79356,-0.0958348,-0.615643,0.388199,0.2605,
2,0,0,1,0,53874.3,0.259286,0.258992,-0.0166812,28,0.0142073,10,-4.32029e-06,-4.77777,-0.0627203,-0.940684,0.617571,0.258992,
2,0,0,1,0,53875.8,0.257788,0.257498,-0.0179117,28,0.0141692,10,-4.61222e-06,-4.74686,-0.105596,-0.558736,0.381384,0.257498,
2,0,0,1,0,53877.3,0.25629,0.255946,-0.0181535,28,0.0141302,10,-4.64633e-06,-4.74104,-0.140748,-0.419189,0.29442,0.255946,
2,0,0,1,0,53878.8,0.254792,0.254433,-0.0186459,28,0.0140901,10,-4.74414e-06,-4.72942,-0.0978375,-0.603041,0.441161,0.254433,
2,0,0,1,0,53880.3,0.253293,0.25296,-0.0195256,28,0.0140495,10,-4.9392e-06,-4.7094,-0.114022,-0.517442,0.394789,0.25296,
2,0,0,1,0,53881.8,0.251795,0.251459,-0.0197015,28,0.0140078,10,-4.9541e-06,-4.7055,-0.105899,-0.557135,0.436173,0.251459,
2,0,0,1,0,53883.3,0.250297,0.249978,-0.0206284,28,0.0139651,10,-5.15664e-06,-4.68554,-0.115163,-0.512318,0.410271,0.249978,
2,0,0,1,0,53884.8,0.248799,0.24847,-0.0212842,28,0.0139213,10,-5.2885e-06,-4.67194,-0.190475,-0.309752,0.258137,0.24847,
2,0,0,1,0,53886.3,0.247301,0.246968,-0.0221829,28,0.0138764,10,-5.47847e-06,-4.65398,-0.0857154,-0.688324,0.58859,0.246968,
2,0,0,1,0,53887.7,0.245802,0.245483,-0.0229525,28,0.0138306,10,-5.63446e-06,-4.63917,-0.118959,-0.495968,0.439142,0.245483,
2,0,0,1,0,53889.2,0.244304,0.244021,-0.0236732,28,0.0137834,10,-5.77675e-06,-4.62574,-0.142615,-0.413701,0.375216,0.244021,
2,0,0,1,0,53890.7,0.242806,0.242468,-0.0238707,28,0.0137354,10,-5.78787e-06,-4.62213,-0.293077,-0.201312,0.186323,0.242468,
2,0,0,1,0,53892.2,0.241308,0.240986,-0.0240802,28,0.0136873,10,-5.80299e-06,-4.61834,-0.192143,-0.307063,0.292829,0.2409862,
2,0,0,1,0,53893.7,0.23981,0.239488,-0.0245785,28,0.0136383,10,-5.88625e-06,-4.60944,-0.117676,-0.501377,0.481747,0.239488,
2,0,0,1,0,53895.2,0.238312,0.237998,-0.0253512,28,0.0135882,10,-6.03353e-06,-4.596,-0.140563,-0.419742,0.415679,0.237998,
2,0,0,1,0,53896.7,0.236813,0.236468,-0.0259724,28,0.0135374,10,-6.14164e-06,-4.58549,-0.160694,-0.367157,0.371734,0.236468,
2,0,0,1,0,53898.2,0.235315,0.234976,-0.0263838,28,0.0134855,10,-6.19955e-06,-4.57866,-0.133878,-0.440701,0.455559,0.234976,
2,0,0,1,0,53899.7,0.233817,0.23352,-0.0274815,28,0.0134328,10,-6.41748e-06,-4.56096,-0.171721,-0.343581,0.363747,0.23352,
2,0,0,1,0,53901.2,0.232319,0.23198,-0.0278758,28,0.0133788,10,-6.46662e-06,-4.55477,-0.189194,-0.311849,0.33524,0.23198,
2,0,0,1,0,53902.7,0.230821,0.230532,-0.0283323,28,0.0133242,10,-6.5315e-06,-4.54772,-0.20506,-0.287721,0.316305,0.230532,
2,0,0,1,0,53904.2,0.229322,0.229012,-0.0283801,28,0.013269,10,-6.49938e-06,-4.54699,-0.177703,-0.332015,0.371956,0.229012,
2,0,0,1,0,53905.7,0.227824,0.227506,-0.0293103,28,0.0132128,10,-6.66828e-06,-4.53298,-0.203451,-0.289996,0.331451,0.227506,
2,0,0,1,0,53907.2,0.226326,0.226007,-0.0295974,28,0.0131559,10,-6.68922e-06,-4.52875,-0.233731,-0.252427,0.293557,0.226007,
2,0,0,1,0,53908.7,0.224828,0.224524,-0.0303325,28,0.013098,10,-6.81039e-06,-4.51809,-0.21135,-0.279158,0.328859,0.224524,
2,0,0,1,0,53910.2,0.22333,0.223038,-0.030671,28,0.0130394,10,-6.84079e-06,-4.51327,-0.165312,-0.3569,0.432709,0.223038,
2,0,0,1,0,53911.7,0.221831,0.221497,-0.0314097,28,0.0129801,10,-6.95715e-06,-4.50294,-0.217369,-0.271428,0.334326,0.221497,
2,0,0,1,0,53913.2,0.220333,0.220019,-0.0318335,28,0.0129197,10,-7.00397e-06,-4.49712,-0.216474,-0.27255,0.337214,0.220019,
2,0,0,1,0,53914.7,0.218835,0.218469,-0.0324714,28,0.0128584,10,-7.094e-06,-4.4885,-0.168781,-0.349565,0.442108,0.218469,
2,0,0,1,0,53916.2,0.217337,0.217,-0.0328695,28,0.0127967,10,-7.13267e-06,-4.48321,-0.174548,-0.338015,0.434503,0.217,
2,0,0,1,0,53917.7,0.215839,0.215502,-0.0334775,28,0.0127338,10,-7.21448e-06,-4.47525,-0.150823,-0.391186,0.513098,0.215502,
2,0,0,1,0,53919.2,0.21434,0.213946,-0.0343915,28,0.0126698,10,-7.35791e-06,-4.46355,-0.178228,-0.331037,0.444576,0.213946,
2,0,0,1,0,53920.7,0.212842,0.212535,-0.0349232,28,0.0126045,10,-7.42242e-06,-4.45689,-0.184697,-0.319442,0.434384,0.212535,
2,0,0,1,0,53922.2,0.211344,0.211019,-0.0355006,28,0.0125386,10,-7.4913e-06,-4.44976,-0.489563,-0.120516,0.166791,0.2110191,
2,0,0,1,0,53923.7,0.209846,0.209494,-0.0358832,28,0.0124719,10,-7.51733e-06,-4.44511,-0.153682,-0.383909,0.537699,0.209494,
2,0,0,1,0,53925.2,0.208348,0.207995,-0.0369826,28,0.0124044,10,-7.69219e-06,-4.432,-0.263948,-0.223529,0.320632,0.207995,
2,0,0,1,0,53926.7,0.20685,0.206554,-0.0380146,28,0.0123354,10,-7.85205e-06,-4.42005,-0.249499,-0.236474,0.344196,0.206554,
2,0,0,1,0,53928.2,0.205351,0.205039,-0.0378927,28,0.0122657,10,-7.76949e-06,-4.42144,-0.267145,-0.220854,0.326141,0.205039,
2,0,0,1,0,53929.7,0.203853,0.203515,-0.0386037,28,0.0121952,10,-7.85642e-06,-4.41337,-0.237391,-0.248535,0.375083,0.203515,
2,0,0,1,0,53931.2,0.202355,0.202013,-0.0391822,28,0.0121239,10,-7.91531e-06,-4.40691,-0.29103,-0.202728,0.309483,0.202013,
2,0,0,1,0,53932.7,0.200857,0.200543,-0.0396324,28,0.0120517,10,-7.94801e-06,-4.40195,-0.259636,-0.227242,0.350546,0.200543,
2,0,0,1,0,53934.2,0.199359,0.198979,-0.0404418,28,0.0119785,10,-8.04708e-06,-4.39317,-0.285639,-0.206555,0.323611,0.198979,
2,0,0,1,0,53935.7,0.19786,0.197504,-0.0407069,28,0.0119042,10,-8.03978e-06,-4.39033,-0.227772,-0.259031,0.410147,0.1975041,
2,0,0,1,0,53937.2,0.196362,0.196027,-0.041366,28,0.0118295,10,-8.10885e-06,-4.38336,-0.466695,-0.126421,0.203001,0.196027,
2,0,0,1,0,53938.7,0.194864,0.194537,-0.0417983,28,0.0117536,10,-8.13133e-06,-4.37884,-0.36307,-0.162503,0.261579,0.194537,
2,0,0,1,0,53940.2,0.193366,0.193013,-0.0420272,28,0.0116772,10,-8.11181e-06,-4.37647,-0.236987,-0.248959,0.410205,0.193013,
2,0,0,1,0,53941.7,0.191868,0.19153,-0.0427076,28,0.0116002,10,-8.17977e-06,-4.36949,-0.196677,-0.299984,0.502029,0.19153,
2,0,0,1,0,53943.2,0.190369,0.190008,-0.0436031,28,0.0115221,10,-8.28494e-06,-4.36048,-0.200853,-0.293747,0.495817,0.190008,
2,0,0,1,0,53944.7,0.188871,0.188509,-0.0442446,28,0.0114427,10,-8.34049e-06,-4.35414,-0.202299,-0.291647,0.499749,0.188509,
2,0,0,1,0,53946.2,0.187373,0.187045,-0.0450464,28,0.0113624,10,-8.42572e-06,-4.34634,-0.254656,-0.231685,0.404398,0.187045,
2,0,0,1,0,53947.7,0.185875,0.185564,-0.045719,28,0.011281,10,-8.48379e-06,-4.3399,-0.197168,-0.299237,0.529782,0.185564,
2,0,0,1,0,53949.2,0.184377,0.184055,-0.0459937,28,0.0111987,10,-8.46537e-06,-4.3373,-0.27625,-0.213574,0.384958,0.184055,
2,0,0,1,0,53950.7,0.182878,0.182536,-0.0467712,28,0.011115,10,-8.53745e-06,-4.33002,-0.259217,-0.227609,0.416075,0.182536,
2,0,0,1,0,53952.2,0.18138,0.181062,-0.0476405,28,0.0110305,10,-8.62591e-06,-4.32202,-0.231162,-0.255232,0.47631,0.181062,
2,0,0,1,0,53953.7,0.179882,0.179557,-0.0483218,28,0.0109448,10,-8.67649e-06,-4.31586,-0.261437,-0.225676,0.423733,0.1795567,
2,0,0,1,0,53955.2,0.178384,0.178051,-0.0486483,28,0.0108581,10,-8.66188e-06,-4.31293,-0.260939,-0.226106,0.434751,0.178051,
2,0,0,1,0,53956.7,0.176886,0.176542,-0.0497314,28,0.0107704,10,-8.77969e-06,-4.30337,-0.247573,-0.238313,0.462334,0.1765421,
2,0,0,1,0,53958.2,0.175388,0.175043,-0.0502647,28,0.0106811,10,-8.79846e-06,-4.29874,-0.194977,-0.3026,0.594676,0.175043,
2,0,0,1,0,53959.7,0.173889,0.173522,-0.0512661,28,0.010591,10,-8.8958e-06,-4.29017,-0.212919,-0.277101,0.555773,0.173522,
2,0,0,1,0,53961.2,0.172391,0.172093,-0.0518862,28,0.0104992,10,-8.92923e-06,-4.28495,-0.203787,-0.289518,0.585731,0.172093,
2,0,0,1,0,53962.7,0.170893,0.170599,-0.0529991,28,0.0104064,10,-9.04162e-06,-4.27573,-0.187398,-0.314837,0.651091,0.170599,
2,0,0,1,0,53964.2,0.169395,0.169065,-0.0541393,28,0.010312,10,-9.15306e-06,-4.26649,-0.181952,-0.324261,0.679914,0.169065,
2,0,0,1,0,53965.7,0.167897,0.167578,-0.0548519,28,0.0102157,10,-9.192e-06,-4.26081,-0.244534,-0.241275,0.518326,0.167578,
2,0,0,1,0,53967.2,0.166398,0.166012,-0.0556803,28,0.0101183,10,-9.2436e-06,-4.2543,-0.27416,-0.215203,0.471949,0.166012,
2,0,0,1,0,53968.7,0.1649,0.164573,-0.0566875,28,0.0100195,10,-9.32924e-06,-4.24651,-0.18528,-0.318436,0.708113,0.164573,
2,0,0,1,0,53970.1,0.163402,0.163071,-0.057617,28,0.00991902,10,-9.39564e-06,-4.23945,-0.151921,-0.388359,0.878875,0.163071,
2,0,0,1,0,53971.6,0.161904,0.161545,-0.0591797,28,0.00981679,10,-9.56015e-06,-4.22783,-0.170737,-0.345561,0.796127,0.161545,
2,0,0,1,0,53973.1,0.160406,0.160078,-0.0605755,28,0.00971242,10,-9.69681e-06,-4.2177,-0.146667,-0.402271,0.951034,0.160078,
2,0,0,1,0,53974.6,0.158907,0.158534,-0.0618946,28,0.00960609,10,-9.8124e-06,-4.20835,-0.158284,-0.372748,0.897948,0.158534,
2,0,0,1,0,53976.1,0.157409,0.157044,-0.0633201,28,0.00949759,10,-9.94406e-06,-4.19846,-0.129105,-0.456993,1.13104,0.157044,
2,0,0,1,0,53977.6,0.155911,0.155582,-0.0649972,28,0.00938671,10,-1.01124e-05,-4.18711,-0.136692,-0.431626,1.09528,0.155582,
2,0,0,1,0,53979.1,0.154413,0.154043,-0.06661,28,0.009273,10,-1.02608e-05,-4.17646,-0.153409,-0.384593,0.997335,0.154043,
2,0,0,1,0,53980.6,0.152915,0.152592,-0.0680459,28,0.00915681,10,-1.03832e-05,-4.1672,-0.135762,-0.434583,1.16027,0.152592,
2,0,0,1,0,53982.1,0.151417,0.151058,-0.0700034,28,0.00903818,10,-1.05746e-05,-4.15488,-0.120562,-0.489376,1.34599,0.151058,
2,0,0,1,0,53983.6,0.149918,0.149573,-0.0724653,28,0.0089164,10,-1.08388e-05,-4.13987,-0.112072,-0.526445,1.4855,0.149573,
2,0,0,1,0,53985.1,0.14842,0.1481,-0.0745795,28,0.008791,10,-1.10452e-05,-4.12738,-0.0989832,-0.596061,1.7409,0.1481,
2,0,0,1,0,53986.6,0.146922,0.146559,-0.0774192,28,0.00866172,10,-1.13465e-05,-4.11115,-0.0971013,-0.607613,1.83007,0.146559,
2,0,0,1,0,53988.1,0.145424,0.14506,-0.0795926,28,0.00852875,10,-1.15457e-05,-4.09913,-0.0928231,-0.635617,1.98451,0.14506,
2,0,0,1,0,53989.6,0.143926,0.143631,-0.0823865,28,0.00839131,10,-1.18333e-05,-4.08414,-0.0853848,-0.69099,2.23352,0.143631,
2,0,0,1,0,53991.1,0.142427,0.142069,-0.0859737,28,0.00824883,10,-1.22142e-05,-4.06563,-0.0847708,-0.695994,2.34772,0.142069,
2,0,0,1,0,53992.6,0.140929,0.140557,-0.089585,28,0.00810125,10,-1.25918e-05,-4.04776,-0.0761047,-0.775248,2.73527,0.140557,
2,0,0,1,0,53994.1,0.139431,0.13911,-0.0931391,28,0.00794785,10,-1.29565e-05,-4.03087,-0.079399,-0.743082,2.71928,0.13911,
2,0,0,1,0,53995.6,0.137933,0.137613,-0.0981927,28,0.00778811,10,-1.35126e-05,-4.00792,-0.0828823,-0.711852,2.72557,0.137613,
2,0,0,1,0,53997.1,0.136435,0.136111,-0.102294,28,0.00762193,10,-1.39233e-05,-3.99015,-0.0825301,-0.714891,2.84671,0.136111,
2,0,0,1,0,53998.6,0.134936,0.134598,-0.106939,28,0.00744907,10,-1.43938e-05,-3.97086,-0.0842171,-0.70057,2.90893,0.134598,
2,0,0,1,0,54000.1,0.133438,0.133073,-0.11063,28,0.00726991,10,-1.47218e-05,-3.95613,-0.0879722,-0.670666,2.90406,0.133073,
2,0,0,1,0,54001.6,0.13194,0.131614,-0.115153,28,0.00708405,10,-1.51557e-05,-3.93872,-0.0962634,-0.612902,2.75775,0.1316136,
2,0,0,1,0,54003.1,0.130442,0.13011,-0.119288,28,0.00689193,10,-1.55206e-05,-3.9234,-0.110481,-0.534029,2.48307,0.13011,
2,0,0,1,0,54004.6,0.128944,0.128582,-0.12303,28,0.00669371,10,-1.58194e-05,-3.90999,-0.128007,-0.460913,2.20279,0.1285819,
2,0,0,1,0,54006.1,0.127445,0.12713,-0.125975,28,0.00649052,10,-1.60153e-05,-3.89971,-0.15413,-0.382795,1.88077,0.12713,
2,0,0,1,0,54007.6,0.125947,0.125589,-0.129257,28,0.00628323,10,-1.62334e-05,-3.88854,-0.168255,-0.350659,1.75664,0.125589,
2,0,0,1,0,54009.1,0.124449,0.124128,-0.131364,28,0.00607166,10,-1.6306e-05,-3.88152,-0.209921,-0.281058,1.43543,0.124128,
2,0,0,1,0,54010.6,0.122951,0.122647,-0.133065,28,0.00585701,10,-1.632e-05,-3.87594,-0.309469,-0.190649,0.986558,0.122647,
2,0,0,1,0,54012.1,0.121453,0.121088,-0.134752,28,0.00563993,10,-1.63168e-05,-3.87047,-0.386162,-0.152786,0.800367,0.121088,
2,0,0,1,0,54013.6,0.119955,0.119615,-0.135043,28,0.00542185,10,-1.61532e-05,-3.86953,-0.520172,-0.113424,0.600692,0.119615,
2,0,0,1,0,54015.1,0.118456,0.118111,-0.136226,28,0.00520192,10,-1.60899e-05,-3.86574,-0.405143,-0.145628,0.77433,0.118111,
2,0,0,1,0,54016.6,0.116958,0.1166,-0.136733,28,0.00498063,10,-1.59432e-05,-3.86413,-1.38678,-0.0425447,0.226709,0.1166,
2,0,0,1,0,54018.1,0.11546,0.115096,-0.137148,28,0.00475868,10,-1.57851e-05,-3.86281,-3.62615,-0.0162707,0.0870387,0.115096,
2,0,0,1,0,54019.6,0.113962,0.113598,-0.136262,28,0.00453699,10,-1.54792e-05,-3.86563,-4.03121,-0.0146358,0.0781953,0.113598,
2,0,0,1,0,54021.1,0.112464,0.112148,-0.137176,28,0.00431533,10,-1.5384e-05,-3.86272,-1.597,-0.0369442,0.198056,0.112148,
2,0,0,1,0,54022.6,0.110965,0.110625,-0.137369,28,0.00409318,10,-1.51965e-05,-3.86211,-2.08636,-0.0282789,0.151477,0.110625,
2,0,0,1,0,54024.1,0.109467,0.10915,-0.137529,28,0.00387045,10,-1.50113e-05,-3.86161,1.89897,0.0310695,-0.16625,0.10915,
2,0,0,1,0,54025.6,0.107969,0.107629,-0.137064,28,0.00364785,10,-1.47521e-05,-3.86308,3.26176,0.0180884,-0.0972024,0.107629,
2,0,0,1,0,54027.1,0.106471,0.106121,-0.137215,28,0.0034259,10,-1.45615e-05,-3.8626,11.1698,0.0052821,-0.0284359,0.106121,
2,0,0,1,0,54028.6,0.104973,0.104647,-0.137157,28,0.00320364,10,-1.43532e-05,-3.86278,1.51894,0.038843,-0.207841,0.104647,
2,0,0,1,0,54030.1,0.103474,0.103097,-0.137076,28,0.00298124,10,-1.41321e-05,-3.86304,0.854863,0.0690169,-0.369249,0.103097,
2,0,0,1,0,54031.6,0.101976,0.101618,-0.136941,28,0.00275973,10,-1.39157e-05,-3.86347,1.68754,0.0349622,-0.18699,0.1016179,
2,0,0,1,0,54033.1,0.100478,0.100114,-0.136472,28,0.00253897,10,-1.36628e-05,-3.86495,0.828751,0.0711915,-0.378585,0.100114,
2,0,0,1,0,54034.6,0.0989798,0.0986318,-0.136393,28,0.00231827,10,-1.34526e-05,-3.86521,1.0382,0.0568292,-0.301703,0.0986318,
2,0,0,1,0,54036.1,0.0974816,0.0971249,-0.135557,28,0.0020982,10,-1.31659e-05,-3.86788,1.36711,0.0431568,-0.228469,0.0971249,
2,0,0,1,0,54037.6,0.0959834,0.0956478,-0.134749,28,0.00187925,10,-1.28885e-05,-3.87047,0.601046,0.0981622,-0.51904,0.0956478,
2,0,0,1,0,54039.1,0.0944852,0.0941388,-0.134541,28,0.00166124,10,-1.26656e-05,-3.87114,0.548682,0.10753,-0.564226,0.0941388,
2,0,0,1,0,54040.6,0.0929871,0.0926427,-0.133493,28,0.00144395,10,-1.23671e-05,-3.87454,0.65471,0.0901162,-0.470371,0.0926427,
2,0,0,1,0,54042.1,0.0914889,0.0911337,-0.133041,28,0.00122785,10,-1.21245e-05,-3.87602,0.461932,0.127725,-0.662961,0.0911337,
2,0,0,1,0,54043.6,0.0899907,0.0896152,-0.132297,28,0.00101314,10,-1.18558e-05,-3.87845,0.452287,0.130448,-0.67238,0.0896152,
2,0,0,1,0,54045.1,0.0884925,0.0881539,-0.130912,28,0.000799938,10,-1.15404e-05,-3.88302,0.514668,0.114637,-0.586554,0.0881539,
2,0,0,1,0,54046.6,0.0869943,0.0866757,-0.130447,28,0.000587813,10,-1.13066e-05,-3.88457,0.539303,0.1094,-0.556181,0.0866757,
2,0,0,1,0,54048.1,0.0854961,0.0851773,-0.129408,28,0.00037699,10,-1.10227e-05,-3.88804,0.456127,0.12935,-0.653738,0.08517731,
2,0,0,1,0,54049.6,0.083998,0.0836579,-0.128629,28,0.000167431,10,-1.07608e-05,-3.89066,0.366632,0.160924,-0.806282,0.0836579,
2,0,0,1,0,54051.1,0.0824998,0.0821649,-0.127485,28,-4.0756e-05,10,-1.04748e-05,-3.89454,0.614945,0.0959436,-0.480194,0.0821649,
2,0,0,1,0,54052.5,0.0810016,0.080659,-0.127156,28,-0.000247447,10,-1.02563e-05,-3.89566,0.674851,0.0874268,-0.435407,0.080659,
2,0,0,1,0,54054,0.0795034,0.0791649,-0.126449,28,-0.000453699,10,-1.00103e-05,-3.89809,0.511808,0.115278,-0.56822,0.0791649,
2,0,0,1,0,54055.5,0.0780052,0.0776676,-0.126093,28,-0.000658887,10,-9.79336e-06,-3.89931,0.451653,0.130631,-0.63968,0.0776676,
2,0,0,1,0,54057,0.076507,0.0761703,-0.124809,28,-0.000862591,10,-9.50671e-06,-3.90376,0.486416,0.121295,-0.590365,0.0761703,
2,0,0,1,0,54058.5,0.0750088,0.0746613,-0.124352,28,-0.0010646,10,-9.28428e-06,-3.90535,0.846126,0.0697296,-0.338381,0.0746613,
2,0,0,1,0,54060,0.0735106,0.0731375,-0.123633,28,-0.00126634,10,-9.04223e-06,-3.90786,1.0417,0.0566379,-0.272138,0.0731375,
2,0,0,1,0,54061.5,0.0720124,0.0716338,-0.123121,28,-0.00146718,10,-8.81962e-06,-3.90967,0.55823,0.105691,-0.50815,0.0716338,
2,0,0,1,0,54063,0.0705142,0.0701863,-0.122043,28,-0.0016669,10,-8.56577e-06,-3.91349,0.739221,0.0798138,-0.381683,0.0701863,
2,0,0,1,0,54064.5,0.069016,0.0686996,-0.121615,28,-0.00186498,10,-8.35489e-06,-3.91501,0.629173,0.093774,-0.446443,0.0686996,
2,0,0,1,0,54066,0.0675178,0.0671335,-0.120734,28,-0.00206243,10,-8.10528e-06,-3.91817,1.04644,0.0563815,-0.265204,0.0671335,
2,0,0,1,0,54067.5,0.0660196,0.0656754,-0.121121,28,-0.00225896,10,-7.95465e-06,-3.91678,0.700513,0.084224,-0.394226,0.0656754,
2,0,0,1,0,54069,0.0645214,0.0641516,-0.120011,28,-0.00245482,10,-7.69892e-06,-3.92078,0.658729,0.0895664,-0.416946,0.0641516,
2,0,0,1,0,54070.5,0.0630233,0.0627212,-0.118567,28,-0.0026493,10,-7.43668e-06,-3.92604,0.593406,0.099426,-0.461922,0.06272117,
2,0,0,1,0,54072,0.0615251,0.0611825,-0.118517,28,-0.00284285,10,-7.25115e-06,-3.92622,0.713645,0.0826742,-0.382599,0.0611825,
2,0,0,1,0,54073.5,0.0600269,0.0596873,-0.117649,28,-0.00303579,10,-7.02217e-06,-3.92941,0.62883,0.093825,-0.432668,0.0596873,
2,0,0,1,0,54075,0.0585287,0.0581742,-0.117358,28,-0.00322784,10,-6.8272e-06,-3.93049,0.574985,0.102611,-0.469654,0.0581742,
2,0,0,1,0,54076.5,0.0570305,0.0567171,-0.116714,28,-0.0034189,10,-6.61969e-06,-3.93288,0.582431,0.1013,-0.462424,0.0567171,
2,0,0,1,0,54078,0.0555323,0.0551986,-0.11574,28,-0.00360846,10,-6.38869e-06,-3.93652,0.559891,0.105378,-0.477939,0.0551986,
2,0,0,1,0,54079.5,0.0540342,0.0536866,-0.115454,28,-0.00379739,10,-6.19835e-06,-3.93759,0.687566,0.0858099,-0.386325,0.0536866,
2,0,0,1,0,54081,0.052536,0.0521775,-0.115104,28,-0.003986,10,-6.00587e-06,-3.93891,1.07598,0.0548339,-0.245338,0.05217753,
2,0,0,1,0,54082.5,0.0510378,0.0507153,-0.114816,28,-0.00417336,10,-5.82293e-06,-3.94,0.398833,0.147932,-0.659602,0.05071529,
2,0,0,1,0,54084,0.0495396,0.0492254,-0.113837,28,-0.00435934,10,-5.60366e-06,-3.94372,0.494093,0.119411,-0.529243,0.04922536,
2,0,0,1,0,54085.5,0.0480414,0.0476867,-0.112987,28,-0.0045441,10,-5.38796e-06,-3.94697,0.870686,0.0677626,-0.297173,0.0476867,
2,0,0,1,0,54087,0.0465432,0.046183,-0.112073,28,-0.00472818,10,-5.17588e-06,-3.9505,0.760823,0.0775476,-0.339495,0.046183,
2,0,0,1,0,54088.5,0.045045,0.0447239,-0.111946,28,-0.00491123,10,-5.00669e-06,-3.95099,0.715166,0.0824984,-0.359338,0.0447239,
2,0,0,1,0,54090,0.0435468,0.0432118,-0.110634,28,-0.00509331,10,-4.7807e-06,-3.95611,0.827122,0.0713317,-0.309205,0.0432118,
2,0,0,1,0,54091.5,0.0420486,0.0417007,-0.110511,28,-0.00527443,10,-4.60837e-06,-3.9566,0.649688,0.0908128,-0.392044,0.0417007,
2,0,0,1,0,54093,0.0405504,0.0401705,-0.110997,28,-0.00545529,10,-4.45881e-06,-3.95469,0.755202,0.0781248,-0.334078,0.0401705,
2,0,0,1,0,54094.5,0.0390522,0.0386933,-0.109361,28,-0.00563535,10,-4.23154e-06,-3.96114,0.578896,0.101918,-0.434252,0.0386933,
2,0,0,1,0,54096,0.037554,0.0371706,-0.108719,28,-0.0058144,10,-4.04114e-06,-3.9637,1.18289,0.0498779,-0.212858,0.0371706,
2,0,0,1,0,54097.5,0.0360558,0.0356775,-0.108601,28,-0.00599272,10,-3.87463e-06,-3.96416,0.508702,0.115981,-0.493125,0.0356775,
2,0,0,1,0,54099,0.0345576,0.0341866,-0.107723,28,-0.00617105,10,-3.68269e-06,-3.96769,0.701949,0.0840517,-0.355752,0.0341866,
2,0,0,1,0,54100.5,0.0330594,0.0326649,-0.107324,28,-0.00634807,10,-3.50573e-06,-3.9693,0.405484,0.145505,-0.611963,0.0326649,
2,0,0,1,0,54102,0.0315613,0.031226,-0.107341,28,-0.00652426,10,-3.35183e-06,-3.96923,0.879469,0.0670859,-0.280871,0.031226,
2,0,0,1,0,54103.5,0.0300631,0.0297054,-0.106666,28,-0.00669947,10,-3.16855e-06,-3.97198,1.43757,0.0410413,-0.171253,0.0297054,
2,0,0,1,0,54105,0.0285649,0.0282357,-0.106602,28,-0.00687451,10,-3.00998e-06,-3.97223,1.13323,0.0520636,-0.215981,0.0282357,
2,0,0,1,0,54106.5,0.0270667,0.026732,-0.106181,28,-0.00704924,10,-2.83843e-06,-3.97395,2.31219,0.025517,-0.105688,0.026732,
2,0,0,1,0,54108,0.0255685,0.0252273,-0.105786,28,-0.0072231,10,-2.66869e-06,-3.97557,0.935673,0.0630562,-0.260555,0.0252273,
2,0,0,1,0,54109.5,0.0240703,0.023695,-0.104897,28,-0.00739621,10,-2.48553e-06,-3.97924,4.79053,0.012316,-0.0509331,0.023695,
2,0,0,1,0,54111,0.0225722,0.0221904,-0.105302,28,-0.00756924,10,-2.33669e-06,-3.97756,-41.8798,-0.00140879,0.00577812,0.0221904,
2,0,0,1,0,54112.5,0.021074,0.0207789,-0.104728,28,-0.00774188,10,-2.17613e-06,-3.97994,1.52361,0.0387238,-0.159313,0.0207789,
2,0,0,1,0,54114,0.0195758,0.0192445,-0.10453,28,-0.00791416,10,-2.01163e-06,-3.98076,-7.93404,-0.00743631,0.0304776,0.0192445,
2,0,0,1,0,54115.5,0.0180776,0.0177006,-0.104442,28,-0.00808596,10,-1.84868e-06,-3.98113,2.79035,0.0211443,-0.0864544,0.0177006,
2,0,0,1,0,54117,0.0165794,0.0161959,-0.105231,28,-0.00825796,10,-1.7043e-06,-3.97786,-2.34621,-0.025147,0.102595,0.0161959,
2,0,0,1,0,54118.5,0.0150812,0.0147177,-0.105534,28,-0.0084301,10,-1.55321e-06,-3.97661,-3.22407,-0.0182998,0.0749864,0.01471765,
2,0,0,1,0,54120,0.013583,0.013215,-0.105259,28,-0.00860233,10,-1.391e-06,-3.97774,5.83366,0.0101137,-0.0414011,0.013215,
2,0,0,1,0,54121.5,0.0120848,0.0117431,-0.104768,28,-0.00877461,10,-1.23031e-06,-3.97977,-7.42429,-0.00794689,0.032683,0.0117431,
2,0,0,1,0,54123,0.0105866,0.0102077,-0.105733,28,-0.00894704,10,-1.07929e-06,-3.97579,-0.67586,-0.0872962,0.360351,0.0102077,
2,0,0,1,0,54124.5,0.00908843,0.00874321,-0.113636,28,-0.00912218,10,-9.93546e-07,-3.94448,-0.960105,-0.0614516,0.254436,0.00874321,
2,0,0,1,0,54126,0.00759024,0.00723747,-0.106458,28,-0.00929899,10,-7.70488e-07,-3.97282,-1.29858,-0.0454343,0.188193,0.00723747,
2,0,0,1,0,54127.5,0.00609203,0.00572637,-0.107105,28,-0.00947433,10,-6.13322e-07,-3.97019,-1.51107,-0.0390453,0.162586,0.00572637,
2,0,0,1,0,54129,0.00459384,0.00426196,-0.107173,28,-0.0096497,10,-4.56766e-07,-3.96992,-0.742625,-0.0794479,0.331878,0.004261957,
2,0,0,1,0,54130.5,0.00309563,0.00277312,-0.107882,28,-0.00982624,10,-2.99171e-07,-3.96705,-0.572556,-0.103047,0.432508,0.00277312,
2,0,0,1,0,54132,0.00159744,0.00118467,-0.10903,28,-0.010006,10,-1.29164e-07,-3.96245, , , ,0.00118467,
2,0,0,1,0,54133.4,0.000199235,-0.000203113,-0.109751,28,-0.0101728,10,2.22917e-08,-3.95959, , , ,-0.000203113,