File: Figure_codes/Fig_3-5/rawdata_trumpetplot_data/after 10th/20221101_1-115_003_TrumpetPlot_ParaChange_from10_every3_08_CV_C01_1.csv
mode,ox/red,error,control changes,counter inc.,time/s,control/V,Ewe/V,<I>/mA,cycle number,(Q-Qo)/C,I Range,P/W,log(|I|),Tafel slope mV/dec,alpha_eff,dI/d(E-IR),E-IR/V,
2,0,0,0,0,3145.15,2.44065e-05,-0.000248974,-3.88696,2,0.0000000E+000,10,9.67754e-07,-2.41039, , , ,-0.000248974,
2,0,0,1,0,3145.16,0.0012943,0.000921147,-1.53038,2,-3.98387e-05,10,-1.4097e-06,-2.8152, , , ,0.000921147,
2,0,0,1,0,3145.18,0.00279784,0.00247744,0.117658,2,-5.16399e-05,10,2.9149e-07,-3.92938,-0.0165937,-3.55558,885.066,0.00247744,
2,1,0,1,0,3145.2,0.00429425,0.00400618,1.06748,2,-3.95915e-05,10,4.27653e-06,-2.97164,0.00554321,10.6437,540.646,0.00400618,
2,1,0,1,0,3145.22,0.00579065,0.00548915,1.67403,2,-1.33255e-05,10,9.18902e-06,-2.77624,0.00911905,6.46997,348.45,0.005489151,
2,1,0,1,0,3145.24,0.0072942,0.00698853,2.09572,2,2.25655e-05,10,1.4646e-05,-2.67867,0.0185605,3.17879,241.391,0.00698853,
2,1,0,1,0,3145.26,0.00878347,0.00848927,2.3834,2,6.4635e-05,10,2.02333e-05,-2.6228,0.030248,1.95054,174.813,0.00848927,
2,1,0,1,0,3145.28,0.010287,0.00999137,2.59569,2,0.000111812,10,2.59345e-05,-2.58575,0.046268,1.27518,126.609,0.00999137,
2,1,0,1,0,3145.3,0.0117905,0.0114498,2.75132,2,0.000162489,10,3.15022e-05,-2.56046,0.0634444,0.929948,98.7278,0.0114498,
2,1,0,1,0,3145.31,0.013278,0.012952,2.87485,2,0.000215192,10,3.72349e-05,-2.54138,0.0819949,0.719557,80.5198,0.012952,
2,1,0,1,0,3145.33,0.0147816,0.0144326,2.97922,2,0.000270617,10,4.29979e-05,-2.5259,0.102199,0.577303,67.0245,0.0144326,
2,1,0,1,0,3145.35,0.0162851,0.0159865,3.0807,2,0.00032802,10,4.92495e-05,-2.51135,0.124108,0.475392,56.9011,0.0159865,
2,1,0,1,0,3145.37,0.0177744,0.0175016,3.15639,2,0.000386328,10,5.52417e-05,-2.50081,0.156617,0.376714,46.3738,0.01750155,
2,1,0,1,0,3145.39,0.0192779,0.0189549,3.22836,2,0.000446581,10,6.11934e-05,-2.49102,0.172754,0.341527,43.0187,0.0189549,
2,1,0,1,0,3145.41,0.0207743,0.0204749,3.29752,2,0.000507897,10,6.75165e-05,-2.48181,0.167716,0.351785,45.2406,0.0204749,
2,1,0,1,0,3145.43,0.0222707,0.0220092,3.37011,2,0.000570476,10,7.41736e-05,-2.47236,0.188433,0.313109,41.1669,0.0220092,
2,1,0,1,0,3145.45,0.0237743,0.0235076,3.43347,2,0.000634626,10,8.07126e-05,-2.46427,0.209685,0.281374,37.6496,0.0235076,
2,1,0,1,0,3145.46,0.0252636,0.0249449,3.49531,2,0.000699229,10,8.71903e-05,-2.45651,0.202102,0.291932,39.814,0.0249449,
2,1,0,1,0,3145.48,0.0267671,0.0264678,3.55976,2,0.00076562,10,9.42191e-05,-2.44858,0.186693,0.316026,43.858,0.0264678,
2,1,0,1,0,3145.5,0.0282706,0.0279655,3.62637,2,0.000833297,10,0.000101413,-2.44053,0.186102,0.31703,44.7499,0.02796549,
2,1,0,1,0,3145.52,0.0297581,0.0294741,3.68679,2,0.000901438,10,0.000108665,-2.43335,0.198372,0.297421,42.6867,0.0294741,
2,1,0,1,0,3145.54,0.0312617,0.0309786,3.73581,2,0.000971443,10,0.00011573,-2.42762,0.196381,0.300437,43.9235,0.03097856,
2,1,0,1,0,3145.56,0.0327652,0.0324619,3.803,2,0.00104258,10,0.000123453,-2.41987,0.192787,0.306038,45.499,0.0324619,
2,1,0,1,0,3145.58,0.0342545,0.033933,3.86877,2,0.00111424,10,0.000131279,-2.41243,0.191061,0.308802,46.6349,0.033933,
2,1,0,1,0,3145.6,0.035758,0.0354682,3.93312,2,0.00118793,10,0.0001395,-2.40526,0.211563,0.278877,42.8204,0.0354682,
2,1,0,1,0,3145.61,0.0372544,0.0369137,4.00275,2,0.0012625,10,0.000147756,-2.39764,0.203845,0.289436,45.2668,0.0369137,
2,1,0,1,0,3145.63,0.0387508,0.0383926,4.06717,2,0.00133819,10,0.000156149,-2.39071,0.218651,0.269836,42.9265,0.0383926,
2,1,0,1,0,3145.65,0.0402544,0.0399346,4.14227,2,0.00141564,10,0.00016542,-2.38276,0.200798,0.293828,47.5247,0.0399346,
2,1,0,1,0,3145.67,0.0417437,0.0414647,4.22396,2,0.00149368,10,0.000175145,-2.37428,0.206686,0.285457,46.9431,0.0414647,
2,1,0,1,0,3145.69,0.0432472,0.042933,4.28994,2,0.00157391,10,0.00018418,-2.36755,0.229256,0.257354,43.0638,0.042933,
2,1,0,1,0,3145.71,0.0447507,0.0444228,4.35604,2,0.00165539,10,0.000193508,-2.36091,0.211366,0.279137,47.5158,0.0444228,
2,1,0,1,0,3145.73,0.0462382,0.0459246,4.43297,2,0.00173736,10,0.000203583,-2.3533,0.196022,0.300987,52.0529,0.0459246,
2,1,0,1,0,3145.75,0.0477418,0.0473964,4.5109,2,0.00182161,10,0.0002138,-2.34574,0.209948,0.281022,49.4528,0.0473964,
2,1,0,1,0,3145.76,0.0492453,0.0489813,4.58588,2,0.00190731,10,0.000224623,-2.33858,0.215575,0.273687,48.9152,0.0489813,
2,1,0,1,0,3145.78,0.0507346,0.0504234,4.65181,2,0.00199345,10,0.00023456,-2.33238,0.205628,0.286926,52.1557,0.0504234,
2,1,0,1,0,3145.8,0.0522381,0.0519283,4.73462,2,0.00208186,10,0.00024586,-2.32472,0.200063,0.294907,54.4697,0.0519283,
2,1,0,1,0,3145.82,0.0537345,0.0534074,4.82265,2,0.00217138,10,0.000257566,-2.31671,0.201535,0.292753,54.9538,0.0534074,
2,1,0,1,0,3145.84,0.0552309,0.0549383,4.8916,2,0.00226237,10,0.000268736,-2.31055,0.224691,0.262583,50.0256,0.0549383,
2,1,0,1,0,3145.86,0.0567345,0.0564417,4.95676,2,0.00235524,10,0.000279768,-2.3048,0.221686,0.266143,51.542,0.0564417,
2,1,0,1,0,3145.88,0.0582237,0.0579353,5.03241,2,0.00244838,10,0.000291554,-2.29822,0.226262,0.26076,51.2737,0.0579353,
2,1,0,1,0,3145.9,0.0597273,0.0594163,5.10997,2,0.00254403,10,0.000303616,-2.29158,0.220706,0.267324,53.3055,0.0594163,
2,1,0,1,0,3145.91,0.0612308,0.0609487,5.18953,2,0.00264114,10,0.000316295,-2.28487,0.240338,0.245487,49.6901,0.0609487,
2,1,0,1,0,3145.93,0.0627183,0.0624212,5.26728,2,0.00273862,10,0.00032879,-2.27841,0.262084,0.225119,46.2523,0.0624212,
2,1,0,1,0,3145.95,0.0642219,0.0639226,5.33248,2,0.00283846,10,0.000340866,-2.27307,0.252827,0.233361,48.6313,0.0639226,
2,1,0,1,0,3145.97,0.0657254,0.0654042,5.40381,2,0.00293969,10,0.000353432,-2.2673,0.254292,0.232017,48.9737,0.0654042,
2,1,0,1,0,3145.99,0.0672147,0.0668982,5.48952,2,0.00304128,10,0.000367239,-2.26047,0.269266,0.219114,46.8751,0.06689816,
2,1,0,1,0,3146.01,0.0687182,0.0683996,5.56069,2,0.00314535,10,0.000380349,-2.25487,0.291288,0.202549,43.9046,0.0683996,
2,1,0,1,0,3146.03,0.0702146,0.0699522,5.62122,2,0.00325013,10,0.000393217,-2.25017,0.300634,0.196252,43.1028,0.0699522,
2,1,0,1,0,3146.05,0.071711,0.0713752,5.70206,2,0.00335616,10,0.000406986,-2.24397,0.279841,0.210834,46.8393,0.0713752,
2,1,0,1,0,3146.06,0.0732146,0.0729209,5.77337,2,0.00346413,10,0.000420999,-2.23857,0.281198,0.209817,47.1936,0.0729209,
2,1,0,1,0,3146.08,0.0747038,0.0743991,5.83656,2,0.00357222,10,0.000434235,-2.23384,0.304406,0.19382,44.0945,0.0743991,
2,1,0,1,0,3146.1,0.0762074,0.075892,5.89619,2,0.00368268,10,0.000447474,-2.22943,0.307832,0.191663,44.0911,0.075892,
2,1,0,1,0,3146.12,0.0777109,0.0774006,5.96535,2,0.00379434,10,0.000461722,-2.22436,0.302619,0.194964,45.3759,0.0774006,
2,1,0,1,0,3146.14,0.0791984,0.0789007,6.02578,2,0.00390603,10,0.000475438,-2.21999,0.302724,0.194897,45.7941,0.07890068,
2,1,0,1,0,3146.16,0.0807019,0.0804164,6.08738,2,0.00402017,10,0.000489525,-2.21557,0.328233,0.17975,42.6818,0.0804164,
2,1,0,1,0,3146.18,0.0822055,0.0819458,6.14032,2,0.00413545,10,0.000503174,-2.21181,0.357235,0.165158,39.61,0.0819458,
2,1,0,1,0,3146.19,0.0836947,0.0834261,6.20201,2,0.00425056,10,0.00051741,-2.20747,0.341121,0.172959,41.924,0.0834261,
2,1,0,1,0,3146.21,0.0851983,0.0848788,6.26497,2,0.00436804,10,0.000531763,-2.20308,0.349761,0.168687,41.2639,0.0848788,
2,1,0,1,0,3146.23,0.0866947,0.0863538,6.32797,2,0.00448609,10,0.000546444,-2.19874,0.380153,0.155201,38.3213,0.0863538,
2,1,0,1,0,3146.25,0.0881911,0.087885,6.3911,2,0.00460529,10,0.000561682,-2.19442,0.381389,0.154698,38.5723,0.087885,
2,1,0,1,0,3146.27,0.0896946,0.0893919,6.44587,2,0.00472617,10,0.000576209,-2.19072,0.380421,0.155091,39.0837,0.0893919,
2,1,0,1,0,3146.29,0.0911839,0.0909165,6.52238,2,0.00484697,10,0.000592992,-2.18559,0.349232,0.168942,42.9732,0.0909165,
2,1,0,1,0,3146.31,0.0926857,0.0923978,6.59148,2,0.0049704,10,0.000609038,-2.18102,0.350651,0.168258,43.2325,0.0923978,
2,1,0,1,0,3146.33,0.0941892,0.0939214,6.65783,2,0.00509515,10,0.000625313,-2.17667,0.368003,0.160325,41.6181,0.0939214,
2,1,0,1,0,3146.34,0.0956785,0.0953611,6.71587,2,0.00521968,10,0.000640433,-2.1729,0.34679,0.170132,44.6512,0.0953611,
2,1,0,1,0,3146.36,0.097182,0.0969256,6.79289,2,0.0053468,10,0.000658405,-2.16795,0.317557,0.185794,49.2153,0.0969256,
2,1,0,1,0,3146.38,0.0986856,0.0983817,6.86757,2,0.00547533,10,0.000675643,-2.1632,0.284441,0.207425,55.6173,0.0983817,
2,1,0,1,0,3146.4,0.100175,0.0998637,6.95386,2,0.00560396,10,0.000694438,-2.15777,0.267092,0.220898,59.9253,0.0998637,
2,1,0,1,0,3146.42,0.101678,0.101348,7.03698,2,0.00573569,10,0.000713187,-2.15261,0.246977,0.238889,65.6967,0.101348,
2,1,0,1,0,3146.44,0.103175,0.102842,7.14088,2,0.00586846,10,0.000734384,-2.14625,0.232123,0.254175,70.887,0.102842,
2,1,0,1,0,3146.46,0.104671,0.104337,7.2464,2,0.00600316,10,0.000756067,-2.13988,0.223122,0.264429,74.7628,0.104337,
2,1,0,1,0,3146.48,0.106175,0.105883,7.34882,2,0.00614066,10,0.000778115,-2.13378,0.223584,0.263882,75.7286,0.105883,
2,1,0,1,0,3146.49,0.107662,0.107376,7.45817,2,0.00627871,10,0.000800825,-2.12737,0.219887,0.268319,78.2344,0.107376,
2,1,0,1,0,3146.51,0.109166,0.108862,7.5772,2,0.00642036,10,0.000824869,-2.12049,0.211555,0.278888,82.6273,0.108862,
2,1,0,1,0,3146.53,0.110669,0.110346,7.70235,2,0.0065644,10,0.000849924,-2.11338,0.203217,0.290331,87.413,0.110346,
2,1,0,1,0,3146.55,0.112159,0.111871,7.8382,2,0.00670929,10,0.00087687,-2.10578,0.211851,0.278497,85.2055,0.111871,
2,1,0,1,0,3146.57,0.113662,0.113356,7.97663,2,0.00685821,10,0.000904196,-2.09818,0.219856,0.268358,83.4848,0.113356,
2,1,0,1,0,3146.59,0.115166,0.114873,8.10015,2,0.00700954,10,0.000930493,-2.09151,0.215649,0.273592,86.532,0.114873,
2,1,0,1,0,3146.61,0.116655,0.116324,8.23984,2,0.00716173,10,0.000958495,-2.08408,0.218121,0.270492,86.9195,0.116324,
2,1,0,1,0,3146.63,0.118158,0.117891,8.3855,2,0.00731817,10,0.000988574,-2.07647,0.225906,0.26117,85.3138,0.117891,
2,1,0,1,0,3146.64,0.119655,0.119356,8.51585,2,0.00747626,10,0.00101642,-2.06977,0.23076,0.255677,84.8702,0.1193561,
2,1,0,1,0,3146.66,0.121151,0.12084,8.63131,2,0.0076367,10,0.00104301,-2.06392,0.234701,0.251383,84.6422,0.12084,
2,1,0,1,0,3146.68,0.122655,0.122371,8.76212,2,0.00780036,10,0.00107223,-2.05739,0.238555,0.247323,84.492,0.122371,
2,1,0,1,0,3146.7,0.124142,0.123835,8.88381,2,0.00796461,10,0.00110013,-2.0514,0.240263,0.245565,85.0427,0.1238353,
2,1,0,1,0,3146.72,0.125646,0.125341,8.99695,2,0.00813285,10,0.00112768,-2.0459,0.271206,0.217547,76.3225,0.1253408,
2,1,0,1,0,3146.74,0.127149,0.126826,9.09825,2,0.00830332,10,0.0011539,-2.04104,0.268083,0.220081,78.1745,0.1268262,
2,1,0,1,0,3146.76,0.128639,0.12831,9.20552,2,0.00847388,10,0.00118116,-2.03595,0.294769,0.200157,71.9629,0.12831,
2,1,0,1,0,3146.78,0.130142,0.129841,9.31047,2,0.00864829,10,0.00120888,-2.03103,0.309871,0.190402,69.2342,0.129841,
2,1,0,1,0,3146.79,0.131646,0.131306,9.41345,2,0.00882472,10,0.00123604,-2.02625,0.339787,0.173638,63.7717,0.131306,
2,1,0,1,0,3146.81,0.133135,0.132841,9.51492,2,0.00900111,10,0.00126397,-2.02159,0.365484,0.16143,59.9321,0.132841,
2,1,0,1,0,3146.83,0.134639,0.13437,9.60065,2,0.00918103,10,0.00129004,-2.0177,0.397977,0.14825,55.5759,0.13437,
2,1,0,1,0,3146.85,0.136135,0.135808,9.69557,2,0.00936173,10,0.00131673,-2.01343,0.402566,0.14656,55.4336,0.135808,
2,1,0,1,0,3146.87,0.137631,0.1373,9.78421,2,0.00954406,10,0.00134337,-2.00947,0.433727,0.13603,51.8785,0.1373,
2,1,0,1,0,3146.89,0.139135,0.138836,9.86859,2,0.00972895,10,0.00137012,-2.00574,0.495906,0.118974,45.7309,0.138836,
2,1,0,1,0,3146.91,0.140622,0.140297,9.93257,2,0.00991317,10,0.00139351,-2.00294,0.547785,0.107707,41.6978,0.140297,
2,1,0,1,0,3146.93,0.142126,0.141837,9.99838,2,0.0101006,10,0.00141814,-2.00007,0.571199,0.103292,40.2401,0.141837,
2,1,0,1,0,3146.94,0.143629,0.143356,10.0499,2,0.0102892,10,0.00144072,-1.99784,0.756949,0.0779445,30.5077,0.1433565,
2,1,0,1,0,3146.96,0.145119,0.144814,10.0857,2,0.0104767,10,0.00146055,-1.99629,1.67241,0.0352784,13.8527,0.144814,
2,1,0,1,0,3146.98,0.146622,0.146316,10.0891,2,0.0106666,10,0.00147619,-1.99615,20.6688,0.00285454,1.12198,0.146316,
2,1,0,1,0,3147,0.148126,0.147807,10.0824,2,0.0108564,10,0.00149025,-1.99644,-1.36653,-0.0431752,-16.9403,0.147807,
2,1,0,1,0,3147.02,0.149615,0.149311,10.0382,2,0.0110438,10,0.00149882,-1.99834,-0.625237,-0.0943643,-36.8499,0.149311,
2,1,0,1,0,3147.04,0.151119,0.150838,9.96414,2,0.0112321,10,0.00150297,-2.00156,-0.349913,-0.168613,-65.3029,0.150838,
2,1,0,1,0,3147.06,0.152615,0.152331,9.84069,2,0.0114176,10,0.00149904,-2.00697,-0.243423,-0.242377,-92.7137,0.152331,
2,1,0,1,0,3147.08,0.154111,0.15383,9.67793,2,0.0116004,10,0.00148876,-2.01422,-0.185475,-0.318102,-119.736,0.15383,
2,1,0,1,0,3147.09,0.155615,0.155301,9.46971,2,0.0117807,10,0.00147066,-2.02366,-0.14248,-0.414092,-152.38,0.155301,
2,1,0,1,0,3147.11,0.157103,0.156802,9.22374,2,0.011955,10,0.0014463,-2.03509,-0.112511,-0.524394,-187.707,0.156802,
2,1,0,1,0,3147.13,0.158606,0.158303,8.91852,2,0.0121258,10,0.00141183,-2.04971,-0.0953171,-0.618987,-214.465,0.158303,
2,1,0,1,0,3147.15,0.16011,0.159826,8.56379,2,0.0122904,10,0.00136872,-2.06733,-0.0813834,-0.724964,-241.642,0.159826,
2,1,0,1,0,3147.17,0.161599,0.16132,8.20687,2,0.0124466,10,0.00132394,-2.08582,-0.0743908,-0.793109,-253.209,0.1613204,
2,1,0,1,0,3147.19,0.163102,0.162839,7.82773,2,0.0125975,10,0.00127466,-2.10636,-0.0698354,-0.844844,-257.27,0.162839,
2,1,0,1,0,3147.21,0.164606,0.164319,7.4311,2,0.012741,10,0.00122107,-2.12895,-0.0663531,-0.889183,-257.641,0.164319,
2,1,0,1,0,3147.22,0.166095,0.165751,7.04835,2,0.0128757,10,0.00116827,-2.15191,-0.0656283,-0.899003,-247.593,0.165751,
2,1,0,1,0,3147.24,0.167599,0.167287,6.69417,2,0.0130049,10,0.00111985,-2.1743,-0.0678272,-0.869858,-227.661,0.167287,
2,1,0,1,0,3147.26,0.169095,0.168767,6.37105,2,0.0131272,10,0.00107522,-2.19579,-0.0715386,-0.82473,-205.458,0.168767,
2,1,0,1,0,3147.28,0.170592,0.17029,6.0722,2,0.0132436,10,0.00103403,-2.21665,-0.0762027,-0.774251,-184.088,0.17029,
2,1,0,1,0,3147.3,0.172095,0.171775,5.79944,2,0.0133554,10,0.0009962,-2.23661,-0.0808968,-0.729324,-165.833,0.171775,
2,1,0,1,0,3147.32,0.173583,0.173274,5.57544,2,0.0134613,10,0.000966077,-2.25372,-0.0893535,-0.660299,-144.138,0.173274,
2,1,0,1,0,3147.34,0.175086,0.174761,5.36871,2,0.0135643,10,0.000938241,-2.27013,-0.0979606,-0.602283,-126.604,0.174761,
2,1,0,1,0,3147.36,0.17659,0.176316,5.18633,2,0.0136638,10,0.000914433,-2.28514,-0.104586,-0.564128,-114.547,0.176316,
2,1,0,1,0,3147.37,0.178079,0.177789,5.03558,2,0.0137591,10,0.00089527,-2.29795,-0.11558,-0.510468,-100.571,0.177789,
2,1,0,1,0,3147.39,0.179582,0.179282,4.88624,2,0.0138525,10,0.000876016,-2.31103,-0.125605,-0.469725,-89.9805,0.179282,
2,1,0,1,0,3147.41,0.181086,0.180835,4.75917,2,0.0139435,10,0.000860626,-2.32247,-0.135367,-0.435851,-81.2185,0.180835,
2,1,0,1,0,3147.43,0.182575,0.182314,4.65295,2,0.0140313,10,0.0008483,-2.33227,-0.14582,-0.404609,-73.5794,0.182314,
2,1,0,1,0,3147.45,0.184079,0.183789,4.55274,2,0.0141181,10,0.000836744,-2.34173,-0.152813,-0.386094,-68.6325,0.183789,
2,1,0,1,0,3147.47,0.185582,0.185284,4.4542,2,0.0142029,10,0.000825291,-2.35123,-0.17316,-0.340726,-59.3444,0.185284,
2,1,0,1,0,3147.49,0.18707,0.186778,4.36813,2,0.0142851,10,0.000815872,-2.3597,-0.174928,-0.337282,-57.5851,0.1867781,
2,1,0,1,0,3147.51,0.188573,0.18827,4.29718,2,0.0143667,10,0.000809032,-2.36682,-0.183612,-0.32133,-53.8254,0.18827,
2,1,0,1,0,3147.52,0.19007,0.189761,4.22224,2,0.0144464,10,0.000801216,-2.37446,-0.199124,-0.296299,-48.787,0.189761,
2,1,0,1,0,3147.54,0.191566,0.191257,4.14819,2,0.0145248,10,0.000793369,-2.38214,-0.220699,-0.267333,-43.3017,0.191257,
2,1,0,1,0,3147.56,0.19307,0.192737,4.0858,2,0.0146024,10,0.000787485,-2.38872,-0.251019,-0.235042,-37.4827,0.192737,
2,1,0,1,0,3147.58,0.194559,0.194291,4.03538,2,0.0146781,10,0.000784038,-2.39412,-0.269838,-0.21865,-34.4093,0.194291,
2,1,0,1,0,3147.6,0.196063,0.195792,3.97929,2,0.0147536,10,0.000779111,-2.40019,-0.258828,-0.227951,-35.3858,0.195792,
2,1,0,1,0,3147.62,0.197566,0.197267,3.91827,2,0.0148281,10,0.000772946,-2.40691,-0.30971,-0.190501,-29.2493,0.197267,
2,1,0,1,0,3147.64,0.199055,0.19875,3.87773,2,0.0149008,10,0.000770699,-2.41142,-0.324181,-0.181997,-27.6076,0.19875,
2,1,0,1,0,3147.66,0.200559,0.200279,3.8352,2,0.0149736,10,0.000768111,-2.41621,-0.350112,-0.168517,-25.2425,0.200279,
2,1,0,1,0,3147.67,0.202062,0.201809,3.79421,2,0.0150456,10,0.000765706,-2.42088,-0.363831,-0.162163,-24.0477,0.201809,
2,1,0,1,0,3147.69,0.20355,0.203195,3.75531,2,0.0151161,10,0.000763059,-2.42535,-0.358746,-0.164462,-24.1522,0.2031949,
2,1,0,1,0,3147.71,0.205053,0.20475,3.7187,2,0.0151866,10,0.000761404,-2.42961,-0.44823,-0.131629,-19.1929,0.20475,
2,1,0,1,0,3147.73,0.20655,0.206223,3.69062,2,0.0152562,10,0.00076109,-2.4329,-0.415949,-0.141844,-20.464,0.206223,
2,1,0,1,0,3147.75,0.208046,0.207765,3.668,2,0.0153255,10,0.000762084,-2.43557,-0.347227,-0.169918,-24.3058,0.2077653,
2,1,0,1,0,3147.77,0.20955,0.209261,3.63705,2,0.0153944,10,0.000761093,-2.43925,-0.338105,-0.174502,-24.8115,0.209261,
2,1,0,1,0,3147.79,0.211039,0.210735,3.61372,2,0.015462,10,0.000761538,-2.44205,-0.366999,-0.160763,-22.6762,0.210735,
2,1,0,1,0,3147.81,0.212543,0.212212,3.59411,2,0.0155298,10,0.000762712,-2.44441,-0.485987,-0.121402,-16.9889,0.212212,
2,1,0,1,0,3147.82,0.214046,0.21373,3.57298,2,0.0155973,10,0.000763652,-2.44697,-0.514571,-0.114659,-15.9681,0.21373,
2,1,0,1,0,3147.84,0.215535,0.215224,3.54903,2,0.0156635,10,0.000763836,-2.44989,-0.620766,-0.0950439,-13.1473,0.215224,
2,1,0,1,0,3147.86,0.217039,0.216751,3.52122,2,0.0157301,10,0.00076323,-2.45331,-0.599474,-0.0984195,-13.5236,0.216751,
2,1,0,1,0,3147.88,0.218543,0.21826,3.50278,2,0.0157963,10,0.000764516,-2.45559,-1.78929,-0.0329739,-4.5084,0.21826,
2,1,0,1,0,3147.9,0.22003,0.219736,3.48861,2,0.0158614,10,0.000766574,-2.45735,-1.10961,-0.0531717,-7.22648,0.219736,
2,1,0,1,0,3147.92,0.221534,0.221278,3.45961,2,0.015927,10,0.000765537,-2.46097,-0.798053,-0.0739299,-9.99838,0.221278,
2,1,0,1,0,3147.94,0.22303,0.222727,3.44014,2,0.0159919,10,0.000766213,-2.46342,-0.736134,-0.0801485,-10.7918,0.222727,
2,1,0,1,0,3147.96,0.224526,0.224267,3.42771,2,0.0160565,10,0.000768724,-2.465,-0.899583,-0.065586,-8.79508,0.2242673,
2,1,0,1,0,3147.97,0.22603,0.225758,3.41289,2,0.016121,10,0.000770487,-2.46688,-0.898151,-0.0656905,-8.76096,0.225758,
2,1,0,1,0,3147.99,0.227519,0.227208,3.39947,2,0.0161848,10,0.000772387,-2.46859,-0.675327,-0.087365,-11.6012,0.227208,
2,1,0,1,0,3148.01,0.229023,0.22874,3.38998,2,0.0162489,10,0.000775425,-2.4698,-0.564005,-0.104609,-13.8498,0.22874,
2,1,0,1,0,3148.03,0.230526,0.230215,3.37047,2,0.0163127,10,0.000775933,-2.47231,-0.729976,-0.0808246,-10.6655,0.2302154,
2,1,0,1,0,3148.05,0.232016,0.231705,3.36442,2,0.0163756,10,0.000779552,-2.47309,-0.863437,-0.0683316,-8.96752,0.231705,
2,1,0,1,0,3148.07,0.233519,0.23322,3.36118,2,0.016439,10,0.000783892,-2.47351,-0.727861,-0.0810594,-10.6197,0.23322,
2,1,0,1,0,3148.09,0.235023,0.234747,3.3488,2,0.0165022,10,0.000786121,-2.47511,-0.827865,-0.0712677,-9.28964,0.234747,
2,1,0,1,0,3148.11,0.23651,0.236224,3.33202,2,0.0165644,10,0.000787104,-2.47729,-0.716303,-0.0823674,-10.711,0.236224,
2,1,0,1,0,3148.12,0.238014,0.237728,3.32492,2,0.0166272,10,0.000790427,-2.47822,-1.14149,-0.0516868,-6.69236,0.237728,
2,1,0,1,0,3148.14,0.23951,0.239226,3.31617,2,0.0166894,10,0.000793316,-2.47936,-1.39335,-0.0423439,-5.46647,0.2392264,
2,1,0,1,0,3148.16,0.241006,0.240751,3.30169,2,0.0167514,10,0.000794885,-2.48126,-1.16641,-0.0505825,-6.52107,0.240751,
2,1,0,1,0,3148.18,0.24251,0.242214,3.28343,2,0.0168135,10,0.000795292,-2.48367,-1.61497,-0.0365332,-4.68696,0.242214,
2,1,0,1,0,3148.2,0.243999,0.243697,3.28334,2,0.0168748,10,0.00080014,-2.48368,-3.01046,-0.0195983,-2.51019,0.243697,
2,1,0,1,0,3148.22,0.245503,0.245199,3.27446,2,0.0169366,10,0.000802895,-2.48486,-2.23681,-0.0263769,-3.36578,0.245199,
2,1,0,1,0,3148.24,0.247006,0.246694,3.26363,2,0.0169983,10,0.000805117,-2.4863,-1.24323,-0.0474571,-6.03577,0.246694,
2,1,0,1,0,3148.25,0.248496,0.248194,3.24537,2,0.0170591,10,0.000805479,-2.48874,-1.47558,-0.0399842,-5.07896,0.248194,
2,1,0,1,0,3148.27,0.249999,0.249713,3.23948,2,0.0171203,10,0.000808943,-2.48952,-1.13752,-0.051867,-6.57625,0.249713,
2,1,0,1,0,3148.29,0.251503,0.251198,3.23163,2,0.0171815,10,0.00081178,-2.49058,-2.08183,-0.0283405,-3.57892,0.251198,
2,1,0,1,0,3148.31,0.25299,0.252705,3.22282,2,0.0172419,10,0.000814422,-2.49176,-0.819073,-0.0720326,-9.07888,0.252705,
2,1,0,1,0,3148.33,0.254494,0.254198,3.21993,2,0.0173028,10,0.000818498,-2.49215,-0.909369,-0.0648802,-8.15911,0.254198,
2,1,0,1,0,3148.35,0.25599,0.255673,3.21058,2,0.0173631,10,0.000820858,-2.49342,-1.05585,-0.0558792,-7.01542,0.255673,
2,1,0,1,0,3148.37,0.257487,0.257202,3.20974,2,0.0174233,10,0.000825551,-2.49353,-2.15721,-0.0273501,-3.42115,0.257202,
2,1,0,1,0,3148.39,0.25899,0.258723,3.20712,2,0.0174838,10,0.000829755,-2.49388,-1.16063,-0.0508344,-6.33911,0.258723,
2,1,0,1,0,3148.4,0.260479,0.260205,3.20063,2,0.0175435,10,0.000832818,-2.49476,-0.891986,-0.0661446,-8.23765,0.260205,
2,1,0,1,0,3148.42,0.261983,0.261715,3.18586,2,0.0176036,10,0.000833787,-2.49677,-1.6112,-0.0366187,-4.54466,0.261715,
2,1,0,1,0,3148.44,0.263486,0.263235,3.18321,2,0.0176635,10,0.000837931,-2.49714,-9.27053,-0.00636426,-0.787925,0.263235,
2,1,0,1,0,3148.46,0.264974,0.264666,3.17319,2,0.0177228,10,0.000839834,-2.4985,14.525,0.00406197,0.50224,0.2646656,
2,1,0,1,0,3148.48,0.266477,0.266157,3.16297,2,0.0177825,10,0.000841845,-2.49991,-1.58008,-0.0373399,-4.60578,0.266157,
2,1,0,1,0,3148.5,0.267981,0.267688,3.1426,2,0.0178421,10,0.000841234,-2.50271,-3.1674,-0.0186273,-2.29351,0.267688,
2,1,0,1,0,3148.52,0.26947,0.269187,3.14503,2,0.0179009,10,0.000846603,-2.50237,-4.29673,-0.0137314,-1.68833,0.269187,
2,1,0,1,0,3148.54,0.270974,0.270648,3.14403,2,0.0179602,10,0.000850926,-2.50251,-3.52363,-0.0167441,-2.05038,0.270648,
2,1,0,1,0,3148.55,0.27247,0.272181,3.13431,2,0.0180192,10,0.000853101,-2.50386,-1.89634,-0.0311125,-3.80034,0.2721813,
2,1,0,1,0,3148.57,0.273967,0.27372,3.12308,2,0.018078,10,0.000854851,-2.50542,-0.908719,-0.0649266,-7.93336,0.2737205,
2,1,0,1,0,3148.59,0.27547,0.27517,3.11347,2,0.0181368,10,0.000856734,-2.50676,-1.32957,-0.0443753,-5.40555,0.27517,
2,1,0,1,0,3148.61,0.276959,0.276636,3.11455,2,0.0181951,10,0.000861597,-2.5066,-2.08613,-0.0282821,-3.43821,0.276636,
2,1,0,1,0,3148.63,0.278463,0.278146,3.10975,2,0.0182538,10,0.000864964,-2.50727,-0.85451,-0.0690454,-8.36608,0.2781457,
2,1,0,1,0,3148.65,0.279967,0.279697,3.10755,2,0.0183124,10,0.000869174,-2.50758,-0.985703,-0.0598558,-7.23896,0.279697,
2,1,0,1,0,3148.67,0.281454,0.281183,3.0926,2,0.0183702,10,0.000869588,-2.50968,-1.1325,-0.0520971,-6.29381,0.2811833,
2,1,0,1,0,3148.69,0.282958,0.282656,3.09349,2,0.0184284,10,0.000874395,-2.50955,-2.81157,-0.0209847,-2.52705,0.282656,
2,1,0,1,0,3148.7,0.284461,0.284151,3.08631,2,0.0184866,10,0.00087698,-2.51056,-1.5361,-0.038409,-4.61506,0.284151,
2,1,0,1,0,3148.72,0.28595,0.285648,3.08052,2,0.0185441,10,0.000879945,-2.51138,-1.53404,-0.0384606,-4.60756,0.285648,
2,1,0,1,0,3148.74,0.287454,0.28715,3.06411,2,0.018602,10,0.000879858,-2.5137,-1.30423,-0.0452376,-5.41373,0.28715,
2,1,0,1,0,3148.76,0.28895,0.288673,3.06232,2,0.0186595,10,0.00088401,-2.51395,-11.27,-0.00523515,-0.625053,0.288673,
2,1,0,1,0,3148.78,0.290447,0.290162,3.06005,2,0.0187169,10,0.00088791,-2.51427,-3.91567,-0.0150677,-1.79466,0.290162,
2,1,0,1,0,3148.8,0.29195,0.291714,3.04759,2,0.0187745,10,0.000889026,-2.51604,-1.86379,-0.031656,-3.75837,0.2917144,
2,1,0,1,0,3148.82,0.29344,0.293142,3.03164,2,0.0188313,10,0.000888701,-2.51832,-3.73383,-0.0158014,-1.87383,0.2931422,
2,1,0,1,0,3148.84,0.294943,0.29466,3.02825,2,0.0188885,10,0.000892305,-2.51881,-2.9129,-0.0202547,-2.39783,0.29466,
2,1,0,1,0,3148.85,0.296447,0.296202,3.02512,2,0.0189457,10,0.000896045,-2.51926,-3.2978,-0.0178907,-2.11092,0.296202,
2,1,0,1,0,3148.87,0.297934,0.297663,3.01828,2,0.0190022,10,0.00089843,-2.52024,-1.63112,-0.0361715,-4.26245,0.297663,
2,1,0,1,0,3148.89,0.299438,0.29915,3.00935,2,0.0190592,10,0.000900249,-2.52153,-0.0202214,-2.91771,-303.794,0.29915,
2,1,0,1,0,3148.9,0.300012,0.299746,3.03052,2,0.0190803,10,0.000908387,-2.51848,0.000737274,80.0246,3772.02,0.299746,
2,1,0,1,0,3148.91,0.298737,0.298442,0.766677,2,0.0191068,10,0.000228808,-3.11539,0.00408279,14.4509,1021.91,0.298442,
2,0,0,1,0,3148.93,0.29724,0.296986,-0.260124,2,0.01911,10,-7.72531e-05,-3.58482,0.0167637,3.5195,541.125,0.296986,
2,0,0,1,0,3148.95,0.295744,0.295422,-0.714954,2,0.0191002,10,-0.000211213,-3.14572,-0.00184456,-31.9859,245.6,0.295422,
2,0,0,1,0,3148.97,0.29424,0.293925,-0.935696,2,0.0190843,10,-0.000275025,-3.02887,-0.014897,-3.96054,127.547,0.293925,
2,0,0,1,0,3148.99,0.292751,0.29242,-1.06619,2,0.0190654,10,-0.000311776,-2.97216,-0.0287599,-2.05147,82.2621,0.29242,
2,0,0,1,0,3149.01,0.291248,0.290901,-1.16902,2,0.0190442,10,-0.000340069,-2.93218,-0.0434296,-1.35852,60.5799,0.290901,
2,0,0,1,0,3149.03,0.289744,0.289421,-1.23961,2,0.0190213,10,-0.000358769,-2.90671,-0.0551481,-1.06985,51.3201,0.289421,
2,0,0,1,0,3149.05,0.288257,0.287949,-1.30099,2,0.0189975,10,-0.000374621,-2.88572,-0.0707072,-0.834427,42.1551,0.287949,
2,0,0,1,0,3149.06,0.286753,0.286425,-1.35338,2,0.0189722,10,-0.000387642,-2.86858,-0.0872651,-0.676101,35.7237,0.286425,
2,0,0,1,0,3149.08,0.285249,0.284956,-1.40171,2,0.0189459,10,-0.000399427,-2.85334,-0.103204,-0.571685,31.4006,0.284956,
2,0,0,1,0,3149.1,0.28376,0.283406,-1.45398,2,0.0189191,10,-0.000412067,-2.83744,-0.114256,-0.516383,29.2548,0.2834056,
2,0,0,1,0,3149.12,0.282257,0.281954,-1.49619,2,0.0188911,10,-0.000421856,-2.82501,-0.147585,-0.399771,23.2494,0.281954,
2,0,0,1,0,3149.14,0.28076,0.280469,-1.53975,2,0.0188625,10,-0.000431853,-2.81255,-0.148647,-0.396913,23.81,0.280469,
2,0,0,1,0,3149.16,0.279264,0.278968,-1.57536,2,0.0188332,10,-0.000439475,-2.80262,-0.157662,-0.374219,22.9618,0.278968,
2,0,0,1,0,3149.18,0.27776,0.277434,-1.61769,2,0.0188031,10,-0.000448801,-2.79111,-0.165845,-0.355754,22.3295,0.277434,
2,0,0,1,0,3149.2,0.276271,0.275953,-1.64953,2,0.0187727,10,-0.000455195,-2.78264,-0.174104,-0.338878,21.719,0.275953,
2,0,0,1,0,3149.21,0.274767,0.274435,-1.68239,2,0.0187413,10,-0.000461706,-2.77407,-0.194909,-0.302705,19.7167,0.274435,
2,0,0,1,0,3149.23,0.273264,0.272938,-1.71042,2,0.0187093,10,-0.000466838,-2.7669,-0.183125,-0.322184,21.4532,0.272938,
2,0,0,1,0,3149.25,0.271776,0.271454,-1.73852,2,0.0186772,10,-0.000471928,-2.75982,-0.171159,-0.344709,23.3266,0.271454,
2,0,0,1,0,3149.27,0.270273,0.269932,-1.76525,2,0.0186441,10,-0.000476498,-2.75319,-0.192625,-0.306294,21.0513,0.269932,
2,0,0,1,0,3149.29,0.268769,0.268451,-1.78991,2,0.0186104,10,-0.000480503,-2.74717,-0.247565,-0.238321,16.6414,0.268451,
2,0,0,1,0,3149.31,0.26728,0.266949,-1.81084,2,0.0185767,10,-0.000483402,-2.74212,-0.24097,-0.244844,17.3488,0.266949,
2,0,0,1,0,3149.33,0.265777,0.265461,-1.83573,2,0.0185422,10,-0.000487314,-2.73619,-0.240566,-0.245255,17.6166,0.265461,
2,0,0,1,0,3149.35,0.26428,0.263948,-1.85899,2,0.0185074,10,-0.000490677,-2.73072,-0.246019,-0.239819,17.415,0.263948,
2,0,0,1,0,3149.36,0.262784,0.262428,-1.88204,2,0.0184721,10,-0.000493902,-2.72537,-0.305855,-0.192902,14.1895,0.262428,
2,0,0,1,0,3149.38,0.26128,0.261008,-1.9053,2,0.0184362,10,-0.000497299,-2.72004,-0.32473,-0.18169,13.5474,0.261008,
2,0,0,1,0,3149.4,0.259791,0.259545,-1.92814,2,0.0184003,10,-0.00050044,-2.71486,-0.310606,-0.189951,14.3554,0.259545,
2,0,0,1,0,3149.42,0.258287,0.258021,-1.95271,2,0.0183636,10,-0.000503839,-2.70936,-0.315077,-0.187256,14.2953,0.258021,
2,0,0,1,0,3149.44,0.256786,0.256475,-1.97827,2,0.0183264,10,-0.000507377,-2.70372,-0.351664,-0.167774,12.9157,0.256475,
2,0,0,1,0,3149.46,0.255296,0.254986,-2.00248,2,0.0182892,10,-0.000510604,-2.69843,-0.459569,-0.128381,10.007,0.254986,
2,0,0,1,0,3149.48,0.253793,0.253452,-2.01454,2,0.0182514,10,-0.000510588,-2.69582,-0.44625,-0.132213,10.3855,0.253452,
2,0,0,1,0,3149.5,0.252289,0.251961,-2.03704,2,0.0182132,10,-0.000513253,-2.691,-0.341508,-0.172763,13.6908,0.251961,
2,0,0,1,0,3149.51,0.2508,0.250471,-2.05831,2,0.0181749,10,-0.000515546,-2.68649,-0.334813,-0.176218,14.1395,0.250471,
2,0,0,1,0,3149.53,0.249296,0.24896,-2.08209,2,0.0181359,10,-0.000518357,-2.6815,-0.35849,-0.164579,13.3347,0.24896,
2,0,0,1,0,3149.55,0.2478,0.247461,-2.09364,2,0.0180967,10,-0.000518094,-2.6791,-0.347539,-0.169765,13.899,0.247461,
2,0,0,1,0,3149.57,0.246304,0.245994,-2.11684,2,0.0180572,10,-0.00052073,-2.67431,-0.303297,-0.194529,16.0544,0.245994,
2,0,0,1,0,3149.59,0.2448,0.244472,-2.14171,2,0.0180171,10,-0.000523588,-2.66924,-0.303818,-0.194195,16.1494,0.244472,
2,0,0,1,0,3149.61,0.243313,0.242985,-2.14988,2,0.017977,10,-0.000522389,-2.66759,-0.355838,-0.165806,13.8945,0.242985,
2,0,0,1,0,3149.63,0.241809,0.241528,-2.15884,2,0.0179362,10,-0.000521419,-2.66578,-0.398974,-0.147879,12.5175,0.241528,
2,0,0,1,0,3149.65,0.240306,0.239958,-2.1819,2,0.0178951,10,-0.000523566,-2.66116,-0.337947,-0.174583,14.8989,0.239958,
2,0,0,1,0,3149.66,0.238816,0.238596,-2.19591,2,0.0178542,10,-0.000523934,-2.65839,-0.396604,-0.148763,12.7974,0.238596,
2,0,0,1,0,3149.68,0.237313,0.236979,-2.21517,2,0.0178123,10,-0.000524947,-2.65459,-0.540891,-0.109079,9.43584,0.236979,
2,0,0,1,0,3149.7,0.235809,0.235495,-2.23654,2,0.0177701,10,-0.000526694,-2.65042,-0.568354,-0.103809,9.0904,0.235495,
2,0,0,1,0,3149.72,0.23432,0.234039,-2.25313,2,0.0177282,10,-0.000527321,-2.64721,-0.5598,-0.105395,9.30341,0.234039,
2,0,0,1,0,3149.74,0.232816,0.23251,-2.27635,2,0.0176854,10,-0.000529273,-2.64276,-0.662728,-0.089026,7.90313,0.23251,
2,0,0,1,0,3149.76,0.23132,0.231027,-2.29401,2,0.0176424,10,-0.000529977,-2.63941,-0.569725,-0.103559,9.2627,0.231027,
2,0,0,1,0,3149.78,0.229824,0.229477,-2.31944,2,0.0175992,10,-0.000532257,-2.63462,-0.580567,-0.101625,9.16265,0.229477,
2,0,0,1,0,3149.79,0.22832,0.228016,-2.33309,2,0.0175554,10,-0.000531981,-2.63207,-0.576102,-0.102412,9.31647,0.228016,
2,0,0,1,0,3149.81,0.226833,0.226497,-2.35417,2,0.0175118,10,-0.000533212,-2.62816,-0.379698,-0.155387,14.2427,0.2264971,
2,0,0,1,0,3149.83,0.225329,0.225067,-2.36558,2,0.0174674,10,-0.000532415,-2.62606,-0.400936,-0.147156,13.5841,0.225067,
2,0,0,1,0,3149.85,0.223825,0.223502,-2.38136,2,0.0174226,10,-0.000532239,-2.62318,-0.479357,-0.123082,11.4231,0.223502,
2,0,0,1,0,3149.87,0.222336,0.222018,-2.3908,2,0.017378,10,-0.000530802,-2.62146,-0.410671,-0.143667,13.4667,0.222018,
2,0,0,1,0,3149.89,0.220833,0.220521,-2.41009,2,0.0173327,10,-0.000531477,-2.61797,-0.32337,-0.182454,17.1932,0.220521,
2,0,0,1,0,3149.91,0.219329,0.219049,-2.43547,2,0.0172869,10,-0.000533485,-2.61342,-0.362059,-0.162957,15.4736,0.219049,
2,0,0,1,0,3149.93,0.21784,0.217515,-2.45436,2,0.0172412,10,-0.00053386,-2.61006,-0.41508,-0.142141,13.5985,0.217515,
2,0,0,1,0,3149.94,0.216336,0.216059,-2.46328,2,0.0171947,10,-0.000532214,-2.60849,-0.425665,-0.138607,13.3691,0.216059,
2,0,0,1,0,3149.96,0.21484,0.214537,-2.47542,2,0.0171482,10,-0.000531069,-2.60635,-0.515227,-0.114513,11.1254,0.214537,
2,0,0,1,0,3149.98,0.213343,0.213041,-2.50576,2,0.0171013,10,-0.000533829,-2.60106,-0.435071,-0.13561,13.2695,0.213041,
2,0,0,1,0,3150,0.21184,0.211517,-2.52084,2,0.0170538,10,-0.0005332,-2.59846,-0.607699,-0.0970876,9.55695,0.211517,
2,0,0,1,0,3150.02,0.210352,0.210071,-2.54622,2,0.0170064,10,-0.000534886,-2.5941,-0.677706,-0.0870584,8.64667,0.210071,
2,0,0,1,0,3150.04,0.208849,0.208541,-2.55573,2,0.0169583,10,-0.000532975,-2.59248,-0.461571,-0.127824,12.8195,0.208541,
2,0,0,1,0,3150.06,0.207345,0.207025,-2.58509,2,0.0169097,10,-0.000535177,-2.58752,-0.395383,-0.149222,15.0652,0.207025,
2,0,0,1,0,3150.08,0.205856,0.205477,-2.62306,2,0.0168612,10,-0.000538979,-2.58119,-0.47622,-0.123892,12.5961,0.205477,
2,0,0,1,0,3150.09,0.204353,0.204009,-2.63459,2,0.0168117,10,-0.000537479,-2.57929,-0.523192,-0.112769,11.5697,0.204009,
2,0,0,1,0,3150.11,0.202849,0.202537,-2.64884,2,0.016762,10,-0.000536489,-2.57694,-0.41372,-0.142609,14.7654,0.202537,
2,0,0,1,0,3150.13,0.20136,0.201044,-2.66964,2,0.0167124,10,-0.000536715,-2.57355,-0.339628,-0.173719,18.0872,0.201044,
2,0,0,1,0,3150.15,0.199856,0.199594,-2.69815,2,0.0166617,10,-0.000538533,-2.56893,-0.336455,-0.175358,18.4649,0.199594,
2,0,0,1,0,3150.17,0.19836,0.198008,-2.71437,2,0.016611,10,-0.000537468,-2.56633,-0.362104,-0.162937,17.2924,0.198008,
2,0,0,1,0,3150.19,0.196863,0.196593,-2.73105,2,0.0165598,10,-0.000536905,-2.56367,-0.339517,-0.173776,18.5805,0.196593,
2,0,0,1,0,3150.21,0.19536,0.195037,-2.75667,2,0.0165079,10,-0.000537654,-2.55961,-0.297479,-0.198334,21.4203,0.195037,
2,0,0,1,0,3150.23,0.193872,0.193545,-2.78773,2,0.0164561,10,-0.000539551,-2.55475,-0.304834,-0.193548,21.0749,0.193545,
2,0,0,1,0,3150.24,0.192369,0.192037,-2.81735,2,0.0164031,10,-0.000541037,-2.55016,-0.378914,-0.155708,17.1022,0.192037,
2,0,0,1,0,3150.26,0.190865,0.190524,-2.84023,2,0.0163496,10,-0.000541132,-2.54665,-0.391365,-0.150755,16.7533,0.190524,
2,0,0,1,0,3150.28,0.189376,0.189077,-2.86909,2,0.0162963,10,-0.000542479,-2.54226,-0.371082,-0.158994,17.8707,0.189077,
2,0,0,1,0,3150.3,0.187872,0.187536,-2.90047,2,0.0162418,10,-0.000543941,-2.53753,-0.34614,-0.170451,19.3203,0.187536,
2,0,0,1,0,3150.32,0.186369,0.186012,-2.93849,2,0.0161867,10,-0.000546594,-2.53188,-0.365435,-0.161452,18.4968,0.186012,
2,0,0,1,0,3150.34,0.18488,0.184523,-2.9764,2,0.0161315,10,-0.000549214,-2.52631,-0.373872,-0.157808,18.3025,0.184523,
2,0,0,1,0,3150.36,0.183376,0.183069,-3.00779,2,0.0160753,10,-0.000550634,-2.52175,-0.31599,-0.186715,21.9208,0.183069,
2,0,0,1,0,3150.38,0.18188,0.181581,-3.04986,2,0.0160185,10,-0.000553795,-2.51572,-0.265456,-0.222259,26.3901,0.181581,
2,0,0,1,0,3150.39,0.180383,0.180067,-3.09237,2,0.0159611,10,-0.000556834,-2.50971,-0.261966,-0.22522,27.1182,0.180067,
2,0,0,1,0,3150.41,0.17888,0.178574,-3.13224,2,0.0159025,10,-0.000559337,-2.50415,-0.248632,-0.237298,28.9655,0.178574,
2,0,0,1,0,3150.43,0.177392,0.177057,-3.16778,2,0.0158438,10,-0.000560878,-2.49924,-0.213034,-0.276951,34.3036,0.177057,
2,0,0,1,0,3150.45,0.175889,0.175583,-3.21736,2,0.0157836,10,-0.000564916,-2.4925,-0.198591,-0.297093,37.3088,0.175583,
2,0,0,1,0,3150.47,0.174385,0.174054,-3.2697,2,0.0157224,10,-0.000569106,-2.48549,-0.191046,-0.308826,39.4137,0.174054,
2,0,0,1,0,3150.49,0.172896,0.172585,-3.31897,2,0.0156609,10,-0.000572803,-2.479,-0.199244,-0.29612,38.4304,0.172585,
2,0,0,1,0,3150.51,0.171392,0.171089,-3.37574,2,0.0155977,10,-0.00057755,-2.47163,-0.187826,-0.31412,41.5299,0.171089,
2,0,0,1,0,3150.53,0.169889,0.169567,-3.444,2,0.0155334,10,-0.000583988,-2.46294,-0.173452,-0.340151,45.8233,0.1695668,
2,0,0,1,0,3150.54,0.1684,0.168066,-3.51727,2,0.0154685,10,-0.000591133,-2.45379,-0.168864,-0.349393,47.9789,0.168066,
2,0,0,1,0,3150.56,0.166896,0.16659,-3.58881,2,0.0154015,10,-0.000597858,-2.44505,-0.164409,-0.358861,50.2582,0.16659,
2,0,0,1,0,3150.58,0.165392,0.165093,-3.66422,2,0.015333,10,-0.000604936,-2.43602,-0.161119,-0.36619,52.5055,0.165093,
2,0,0,1,0,3150.6,0.163905,0.163576,-3.75404,2,0.0152638,10,-0.000614072,-2.4255,-0.151758,-0.388777,57.1163,0.163576,
2,0,0,1,0,3150.62,0.162401,0.162088,-3.8493,2,0.0151922,10,-0.000623924,-2.41462,-0.137261,-0.429837,64.6652,0.162088,
2,0,0,1,0,3150.64,0.160905,0.1606,-3.95468,2,0.015119,10,-0.000635122,-2.40289,-0.13403,-0.440199,67.9882,0.1606,
2,0,0,1,0,3150.66,0.159409,0.159125,-4.06624,2,0.0150439,10,-0.000647042,-2.39081,-0.12387,-0.476307,75.6691,0.159125,
2,0,0,1,0,3150.68,0.157905,0.157638,-4.1827,2,0.0149663,10,-0.00065935,-2.37854,-0.114912,-0.513439,84.0116,0.157638,
2,0,0,1,0,3150.69,0.156416,0.156083,-4.32059,2,0.014887,10,-0.000674369,-2.36446,-0.105167,-0.561014,94.626,0.156083,
2,0,0,1,0,3150.71,0.154912,0.154609,-4.47094,2,0.0148043,10,-0.000691247,-2.3496,-0.0984062,-0.599556,104.706,0.154609,
2,0,0,1,0,3150.73,0.153409,0.153073,-4.62763,2,0.0147187,10,-0.000708365,-2.33464,-0.0984309,-0.599405,108.329,0.153073,
2,0,0,1,0,3150.75,0.151919,0.151622,-4.78586,2,0.0146309,10,-0.000725642,-2.32004,-0.0912515,-0.646565,121.215,0.151622,
2,0,0,1,0,3150.77,0.150416,0.15006,-4.97259,2,0.014539,10,-0.000746186,-2.30342,-0.0860387,-0.685738,133.422,0.15006,
2,0,0,1,0,3150.79,0.148912,0.148582,-5.17759,2,0.0144434,10,-0.000769298,-2.28587,-0.0837126,-0.704793,142.612,0.148582,
2,0,0,1,0,3150.81,0.147425,0.147084,-5.39155,2,0.0143448,10,-0.000793011,-2.26829,-0.0825646,-0.714592,150.453,0.147084,
2,0,0,1,0,3150.82,0.145921,0.145599,-5.60902,2,0.0142411,10,-0.000816667,-2.25111,-0.0832492,-0.708715,155.632,0.145599,
2,0,0,1,0,3150.84,0.144425,0.144097,-5.85784,2,0.0141336,10,-0.000844098,-2.23226,-0.0817938,-0.721326,165.284,0.144097,
2,0,0,1,0,3150.86,0.142929,0.142625,-6.11574,2,0.0140214,10,-0.000872258,-2.21355,-0.0812911,-0.725786,173.25,0.142625,
2,0,0,1,0,3150.88,0.141425,0.141123,-6.37402,2,0.0139037,10,-0.000899523,-2.19559,-0.0842421,-0.700362,174.202,0.141123,
2,0,0,1,0,3150.9,0.139936,0.139581,-6.64822,2,0.0137823,10,-0.000927967,-2.17729,-0.0868664,-0.679204,176.283,0.139581,
2,0,0,1,0,3150.92,0.138432,0.138137,-6.9198,2,0.0136546,10,-0.000955883,-2.15991,-0.0896379,-0.658204,177.783,0.138137,
2,0,0,1,0,3150.94,0.136929,0.136604,-7.20695,2,0.0135216,10,-0.000984496,-2.14225,-0.0920968,-0.640631,179.655,0.136604,
2,0,0,1,0,3150.96,0.135439,0.135149,-7.46021,2,0.0133851,10,-0.00100824,-2.12725,-0.0964611,-0.611646,178.191,0.1351493,
2,0,0,1,0,3150.97,0.133936,0.133638,-7.74451,2,0.013242,10,-0.00103496,-2.11101,-0.099642,-0.592119,178.483,0.133638,
2,0,0,1,0,3150.99,0.132432,0.132137,-8.00572,2,0.0130938,10,-0.00105785,-2.0966,-0.103362,-0.570811,178.078,0.132137,
2,0,0,1,0,3151.01,0.130945,0.130655,-8.26638,2,0.0129423,10,-0.00108004,-2.08268,-0.11041,-0.534371,171.959,0.130655,
2,0,0,1,0,3151.03,0.129441,0.129108,-8.51407,2,0.0127843,10,-0.00109924,-2.06986,-0.121441,-0.485832,161.129,0.129108,
2,0,0,1,0,3151.05,0.127945,0.127639,-8.7516,2,0.0126226,10,-0.00111704,-2.05791,-0.132152,-0.446455,152.077,0.127639,
2,0,0,1,0,3151.07,0.126448,0.126125,-8.96014,2,0.0124568,10,-0.0011301,-2.04769,-0.148592,-0.39706,138.601,0.126125,
2,0,0,1,0,3151.09,0.124945,0.124634,-9.15603,2,0.0122863,10,-0.00114115,-2.03829,-0.159046,-0.370962,132.432,0.124634,
2,0,0,1,0,3151.11,0.123456,0.123178,-9.34755,2,0.0121139,10,-0.00115141,-2.0293,-0.180842,-0.326252,118.829,0.123178,
2,0,0,1,0,3151.12,0.121952,0.121646,-9.51616,2,0.0119363,10,-0.00115761,-2.02154,-0.210164,-0.280733,104.032,0.121646,
2,0,0,1,0,3151.14,0.120449,0.12018,-9.6596,2,0.0117558,10,-0.00116089,-2.01504,-0.233884,-0.252262,94.9494,0.12018,
2,0,0,1,0,3151.16,0.118959,0.118648,-9.79495,2,0.0115747,10,-0.00116215,-2.009,-0.272351,-0.216632,82.7179,0.118648,
2,0,0,1,0,3151.18,0.117456,0.11712,-9.90973,2,0.0113892,10,-0.00116063,-2.00394,-0.321394,-0.183575,70.8895,0.1171203,
2,0,0,1,0,3151.2,0.115952,0.115606,-10.0182,2,0.0112016,10,-0.00115817,-1.99921,-0.407971,-0.144618,56.3851,0.115606,
2,0,0,1,0,3151.22,0.114465,0.114141,-10.1003,2,0.0110143,10,-0.00115286,-1.99567,-0.557043,-0.105916,41.657,0.114141,
2,0,0,1,0,3151.24,0.112961,0.112627,-10.1508,2,0.0108238,10,-0.00114326,-1.9935,-0.771626,-0.0764619,30.2498,0.112627,
2,0,0,1,0,3151.26,0.111465,0.111145,-10.193,2,0.0106334,10,-0.0011329,-1.9917,-1.09146,-0.054056,21.4718,0.1111446,
2,0,0,1,0,3151.27,0.109968,0.10961,-10.2286,2,0.0104424,10,-0.00112115,-1.99018,-2.18955,-0.0269462,10.7277,0.10961,
2,0,0,1,0,3151.29,0.108465,0.10813,-10.2293,2,0.01025,10,-0.00110609,-1.99015,22.9149,0.00257475,-1.0261,0.10813,
2,0,0,1,0,3151.31,0.106976,0.106674,-10.2187,2,0.0100597,10,-0.00109008,-1.9906,2.59038,0.0227766,-9.07219,0.106674,
2,0,0,1,0,3151.33,0.105472,0.10518,-10.1997,2,0.00986772,10,-0.00107281,-1.99141,1.46062,0.0403939,-16.0479,0.10518,
2,0,0,1,0,3151.35,0.103968,0.10363,-10.1628,2,0.0096762,10,-0.00105317,-1.99299,0.850451,0.0693749,-27.461,0.10363,
2,0,0,1,0,3151.37,0.102479,0.102216,-10.1043,2,0.00948756,10,-0.00103282,-1.99549,0.5683,0.103818,-40.8516,0.102216,
2,0,0,1,0,3151.39,0.100976,0.100669,-10.0223,2,0.00929813,10,-0.00100894,-1.99903,0.449498,0.131257,-51.3092,0.100669,
2,0,0,1,0,3151.41,0.0994721,0.0991701,-9.94174,2,0.00911023,10,-0.000985923,-2.00254,0.395414,0.149211,-57.8454,0.0991701,
2,0,0,1,0,3151.42,0.0979846,0.0976809,-9.84031,2,0.00892603,10,-0.000961211,-2.00699,0.337561,0.174783,-67.0936,0.0976809,
2,0,0,1,0,3151.44,0.0964811,0.096187,-9.73452,2,0.00874171,10,-0.000936334,-2.01169,0.288121,0.204775,-77.735,0.096187,
2,0,0,1,0,3151.46,0.0949847,0.0947025,-9.6109,2,0.00856049,10,-0.000910177,-2.01724,0.26316,0.224199,-84.0683,0.0947025,
2,0,0,1,0,3151.48,0.0934883,0.0931654,-9.48529,2,0.00838169,10,-0.000883701,-2.02295,0.251265,0.234812,-86.9928,0.0931654,
2,0,0,1,0,3151.5,0.0919847,0.091635,-9.36035,2,0.00820433,10,-0.000857736,-2.02871,0.234406,0.2517,-91.9124,0.091635,
2,0,0,1,0,3151.52,0.0904955,0.0902215,-9.22716,2,0.00803124,10,-0.000832488,-2.03493,0.220703,0.267327,-96.2121,0.0902215,
2,0,0,1,0,3151.54,0.0889919,0.0886707,-9.09809,2,0.00785886,10,-0.000806734,-2.04105,0.219576,0.268699,-95.2876,0.0886707,
2,0,0,1,0,3151.56,0.0874884,0.0871713,-8.95029,2,0.0076892,10,-0.000780208,-2.04816,0.227244,0.259633,-90.742,0.0871713,
2,0,0,1,0,3151.57,0.0860009,0.0857094,-8.82548,2,0.00752382,10,-0.000756427,-2.05426,0.24006,0.245772,-84.5996,0.0857094,
2,0,0,1,0,3151.59,0.0844973,0.0842029,-8.6989,2,0.00735906,10,-0.000732473,-2.06054,0.249801,0.236188,-80.1871,0.0842029,
2,0,0,1,0,3151.61,0.0829938,0.08268,-8.57503,2,0.00719658,10,-0.000708983,-2.06676,0.259502,0.227359,-76.0675,0.08268,
2,0,0,1,0,3151.63,0.0815045,0.0811993,-8.45395,2,0.0070381,10,-0.000686455,-2.07294,0.274558,0.214891,-70.9867,0.0811993,
2,0,0,1,0,3151.65,0.080001,0.0797156,-8.34087,2,0.00688005,10,-0.000664898,-2.07879,0.304616,0.193687,-63.1475,0.0797156,
2,0,0,1,0,3151.67,0.0785046,0.0782058,-8.25127,2,0.00672467,10,-0.000645297,-2.08348,0.321286,0.183637,-59.1688,0.0782058,
2,0,0,1,0,3151.69,0.0770082,0.0766436,-8.15355,2,0.00657104,10,-0.000624917,-2.08865,0.328483,0.179614,-57.2249,0.0766436,
2,0,0,1,0,3151.71,0.0755046,0.0752008,-8.06602,2,0.00641828,10,-0.000606571,-2.09334,0.341719,0.172657,-54.4327,0.0752008,
2,0,0,1,0,3151.72,0.0740154,0.0736772,-7.98429,2,0.00626872,10,-0.00058826,-2.09776,0.356425,0.165533,-51.6752,0.0736772,
2,0,0,1,0,3151.74,0.0725118,0.0722017,-7.9155,2,0.00611897,10,-0.000571513,-2.10152,0.374024,0.157744,-48.7702,0.0722017,
2,0,0,1,0,3151.76,0.0710083,0.0706832,-7.84875,2,0.00597052,10,-0.000554775,-2.1052,0.37703,0.156486,-47.9406,0.0706832,
2,0,0,1,0,3151.78,0.0695208,0.06919,-7.78519,2,0.00582491,10,-0.000538657,-2.10873,0.388426,0.151895,-46.1668,0.06919,
2,0,0,1,0,3151.8,0.0680173,0.0676746,-7.72432,2,0.00567902,10,-0.00052274,-2.11214,0.419316,0.140705,-42.4463,0.0676746,
2,0,0,1,0,3151.82,0.0665137,0.0662028,-7.66322,2,0.00553423,10,-0.000507327,-2.11559,0.456915,0.129127,-38.6279,0.0662028,
2,0,0,1,0,3151.84,0.0650244,0.0647266,-7.61879,2,0.00539199,10,-0.000493139,-2.11811,0.444757,0.132657,-39.3873,0.0647266,
2,0,0,1,0,3151.85,0.0635209,0.0632102,-7.55843,2,0.0052493,10,-0.00047777,-2.12157,0.45042,0.130989,-38.5969,0.0632102,
2,0,0,1,0,3151.87,0.0620245,0.0617061,-7.50136,2,0.00510842,10,-0.00046288,-2.12486,0.504104,0.117039,-34.2388,0.0617061,
2,0,0,1,0,3151.89,0.0605281,0.0602101,-7.44768,2,0.00496863,10,-0.000448426,-2.12798,0.502729,0.11736,-34.0894,0.0602101,
2,0,0,1,0,3151.91,0.0590246,0.0587008,-7.39174,2,0.00482905,10,-0.000433901,-2.13125,0.549087,0.107451,-30.9704,0.0587008,
2,0,0,1,0,3151.93,0.0575353,0.0572032,-7.34006,2,0.00469194,10,-0.000419874,-2.1343,0.505027,0.116825,-33.4285,0.0572032,
2,0,0,1,0,3151.95,0.0560317,0.0557184,-7.27163,2,0.00455442,10,-0.000405164,-2.13837,0.503448,0.117192,-33.2759,0.0557184,
2,0,0,1,0,3151.97,0.0545282,0.0542283,-7.21531,2,0.00441795,10,-0.000391274,-2.14175,0.517199,0.114076,-32.161,0.0542283,
2,0,0,1,0,3151.99,0.0530407,0.0527074,-7.16796,2,0.00428392,10,-0.000377805,-2.1446,0.47995,0.122929,-34.4014,0.0527074,
2,0,0,1,0,3152,0.0515372,0.0512016,-7.11212,2,0.00414941,10,-0.000364152,-2.148,0.418398,0.141014,-39.1122,0.0512016,
2,0,0,1,0,3152.02,0.0500336,0.0497087,-7.04293,2,0.00401603,10,-0.000350095,-2.15225,0.384762,0.153342,-42.1964,0.0497087,
2,0,0,1,0,3152.04,0.0485444,0.0482441,-6.99018,2,0.00388533,10,-0.000337234,-2.15551,0.351228,0.167982,-45.8224,0.0482441,
2,0,0,1,0,3152.06,0.0470408,0.0467382,-6.92096,2,0.0037543,10,-0.000323473,-2.15983,0.36108,0.163399,-44.1673,0.0467382,
2,0,0,1,0,3152.08,0.0455444,0.0452117,-6.86577,2,0.00362518,10,-0.000310413,-2.16331,0.330047,0.178763,-47.8506,0.0452117,
2,0,0,1,0,3152.1,0.044048,0.0437371,-6.79802,2,0.00349726,10,-0.000297325,-2.16762,0.3165,0.186414,-49.4381,0.0437371,
2,0,0,1,0,3152.12,0.0425445,0.0422302,-6.72732,2,0.00337004,10,-0.000284096,-2.17216,0.309007,0.190934,-50.1199,0.0422302,
2,0,0,1,0,3152.14,0.0410552,0.0407594,-6.66059,2,0.00324545,10,-0.000271482,-2.17649,0.313342,0.188293,-48.8975,0.0407594,
2,0,0,1,0,3152.15,0.0395517,0.0392614,-6.59137,2,0.00312083,10,-0.000258786,-2.18102,0.312979,0.188511,-48.402,0.0392614,
2,0,0,1,0,3152.17,0.0380481,0.037686,-6.51382,2,0.0029976,10,-0.00024548,-2.18616,0.286295,0.206081,-52.302,0.03768605,
2,0,0,1,0,3152.19,0.0365606,0.0362116,-6.42272,2,0.0028772,10,-0.000232577,-2.19228,0.291023,0.202733,-50.8304,0.03621155,
2,0,0,1,0,3152.21,0.0350571,0.0347558,-6.34662,2,0.00275703,10,-0.000220582,-2.19746,0.296356,0.199085,-49.2841,0.0347558,
2,0,0,1,0,3152.23,0.0335535,0.0332223,-6.2661,2,0.00263829,10,-0.000208175,-2.203,0.286034,0.206269,-50.4263,0.0332223,
2,0,0,1,0,3152.25,0.0320643,0.0317151,-6.18537,2,0.0025223,10,-0.00019617,-2.20863,0.26471,0.222886,-53.7936,0.0317151,
2,0,0,1,0,3152.27,0.0305607,0.0302853,-6.09753,2,0.00240662,10,-0.000184665,-2.21485,0.272892,0.216203,-51.5126,0.03028528,
2,0,0,1,0,3152.29,0.0290643,0.0287779,-6.02535,2,0.00229302,10,-0.000173397,-2.22002,0.294914,0.200058,-47.0703,0.0287779,
2,0,0,1,0,3152.3,0.0275679,0.0272736,-5.95456,2,0.00218084,10,-0.000162402,-2.22515,0.28583,0.206417,-47.9816,0.0272736,
2,0,0,1,0,3152.32,0.0260644,0.025767,-5.87497,2,0.00206938,10,-0.000151381,-2.23099,0.272411,0.216585,-49.7021,0.025767,
2,0,0,1,0,3152.34,0.0245751,0.0242646,-5.80551,2,0.00196048,10,-0.000140868,-2.23616,0.274669,0.214804,-48.7197,0.0242646,
2,0,0,1,0,3152.36,0.0230716,0.0227598,-5.73804,2,0.0018518,10,-0.000130597,-2.24124,0.282464,0.208876,-46.8105,0.0227598,
2,0,0,1,0,3152.38,0.021568,0.0212256,-5.67889,2,0.00174429,10,-0.000120538,-2.24574,0.315161,0.187206,-41.4896,0.0212256,
2,0,0,1,0,3152.4,0.0200805,0.0197157,-5.62463,2,0.00163903,10,-0.000110893,-2.24991,0.326675,0.180608,-39.6288,0.0197157,
2,0,0,1,0,3152.42,0.018577,0.0182419,-5.57541,2,0.00153363,10,-0.000101706,-2.25372,0.341625,0.172704,-37.5586,0.0182419,
2,0,0,1,0,3152.44,0.0170735,0.0167646,-5.51592,2,0.00142934,10,-9.24725e-05,-2.25838,0.396742,0.148711,-32.0484,0.0167646,
2,0,0,1,0,3152.45,0.0155842,0.0152619,-5.47005,2,0.00132705,10,-8.34832e-05,-2.26201,0.486886,0.121178,-25.8875,0.0152619,
2,0,0,1,0,3152.47,0.0140806,0.0137076,-5.43495,2,0.00122439,10,-7.45001e-05,-2.2648,0.49448,0.119317,-25.2764,0.0137076,
2,0,0,1,0,3152.49,0.0125842,0.0122312,-5.39924,2,0.00112296,10,-6.60391e-05,-2.26767,0.532898,0.110715,-23.3031,0.0122312,
2,0,0,1,0,3152.51,0.0110878,0.0107862,-5.35957,2,0.00102233,10,-5.78095e-05,-2.27087,0.574757,0.102652,-21.4853,0.0107862,
2,0,0,1,0,3152.53,0.00958429,0.00925549,-5.32328,2,0.000921782,10,-4.92695e-05,-2.27382,0.831801,0.0709304,-14.7552,0.00925549,
2,0,0,1,0,3152.55,0.0080968,0.00781201,-5.29354,2,0.000822778,10,-4.13532e-05,-2.27625,0.961329,0.0613734,-12.7161,0.00781201,
2,0,0,1,0,3152.57,0.00659326,0.00624651,-5.27764,2,0.000723134,10,-3.29668e-05,-2.27756,1.04103,0.0566748,-11.6854,0.00624651,
2,0,0,1,0,3152.59,0.00508972,0.00476622,-5.24686,2,0.000623867,10,-2.50077e-05,-2.2801,1.29184,0.0456712,-9.38872,0.00476622,
2,0,0,1,0,3152.6,0.00360044,0.00332751,-5.24002,2,0.000526032,10,-1.74362e-05,-2.28067,-3.34158,-0.0176563,3.63404,0.00332751,
2,0,0,1,0,3152.62,0.0020969,0.0017569,-5.29015,2,0.000427138,10,-9.29426e-06,-2.27653,-37.8783,-0.00155762,0.319018,0.0017569,
2,0,0,1,0,3152.64,0.000593362,0.000290583,-5.25482,2,0.000327766,10,-1.52696e-06,-2.27944, , , ,0.000290583,
2,0,0,1,0,3152.65,0.000199195,-0.00014972,-5.24858,2,0.000301995,10,7.85819e-07,-2.27996, , , ,-0.0001497202,