File: Figure_codes/Fig_3-5/rawdata_trumpetplot_data/after 10th/20221101_1-115_003_TrumpetPlot_ParaChange_from10_every3_11_CV_C01_19.csv
mode,ox/red,error,control changes,counter inc.,time/s,control/V,Ewe/V,<I>/mA,cycle number,(Q-Qo)/C,I Range,P/W,log(|I|),Tafel slope mV/dec,alpha_eff,dI/d(E-IR),E-IR/V,
2,1,0,1,0,38627,2.44065e-05,-0.000344411,9.77246,20,0.0000000E+000,10,-3.36574e-06,-2.01, , , ,-0.000344411,
2,1,0,1,0,38627,0.00214129,0.00176898,10.8951,20,5.32931e-05,10,1.92732e-05,-1.96277, , , ,0.00176898,
2,1,0,1,0,38627,0.00454949,0.00418671,11.7799,20,0.000121554,10,4.93192e-05,-1.92886,0.0802085,0.735583,332.227,0.00418671,
2,1,0,1,0,38627,0.0069466,0.00662458,12.4589,20,0.000194373,10,8.25348e-05,-1.90452,0.105574,0.55885,269.436,0.00662458,
2,1,0,1,0,38627,0.0093437,0.00902004,13.0558,20,0.000271023,10,0.000117763,-1.8842,0.127272,0.463574,234.819,0.00902004,
2,1,0,1,0,38627,0.0117408,0.0113996,13.5842,20,0.000351017,10,0.000154854,-1.86697,0.145992,0.404132,213.496,0.0113996,
2,1,0,1,0,38627,0.0141462,0.0137495,14.0801,20,0.000434084,10,0.000193593,-1.85139,0.16601,0.3554,194.534,0.0137495,
2,1,0,1,0,38627,0.0165433,0.0161947,14.5216,20,0.00051996,10,0.000235173,-1.83799,0.191275,0.308456,174.268,0.0161947,
2,1,0,1,0,38627,0.0189404,0.0185997,14.9164,20,0.000608328,10,0.000277441,-1.82634,0.208482,0.282998,164.586,0.0185997,
2,1,0,1,0,38627.1,0.0213486,0.0210005,15.3089,20,0.000699039,10,0.000321495,-1.81505,0.230147,0.256358,152.85,0.02100051,
2,1,0,1,0,38627.1,0.0237457,0.0234235,15.6675,20,0.000792029,10,0.000366988,-1.805,0.253289,0.232936,142.066,0.0234235,
2,1,0,1,0,38627.1,0.0261429,0.0258116,15.9874,20,0.000887019,10,0.00041266,-1.79622,0.270359,0.218229,136.121,0.0258116,
2,1,0,1,0,38627.1,0.02854,0.0281742,16.3037,20,0.000983923,10,0.000459343,-1.78771,0.285729,0.20649,131.264,0.0281742,
2,1,0,1,0,38627.1,0.0309482,0.0306216,16.6176,20,0.00108277,10,0.000508857,-1.77943,0.315503,0.187003,121.069,0.0306216,
2,1,0,1,0,38627.1,0.0333453,0.0329926,16.8928,20,0.00118334,10,0.000557339,-1.7723,0.337608,0.174759,115.188,0.03299265,
2,1,0,1,0,38627.1,0.0357424,0.0354008,17.1708,20,0.00128556,10,0.000607862,-1.76521,0.349138,0.168988,113.225,0.0354008,
2,1,0,1,0,38627.1,0.0381478,0.0378419,17.4484,20,0.00138946,10,0.000660279,-1.75825,0.368133,0.160268,109.07,0.03784189,
2,1,0,1,0,38627.1,0.0405449,0.0401854,17.705,20,0.00149495,10,0.000711484,-1.7519,0.385026,0.153237,105.84,0.0401854,
2,1,0,1,0,38627.1,0.042942,0.0425904,17.9589,20,0.00160199,10,0.000764876,-1.74572,0.382638,0.154193,108.106,0.0425904,
2,1,0,1,0,38627.1,0.0453391,0.0449858,18.2137,20,0.0017105,10,0.000819358,-1.7396,0.397021,0.148607,105.628,0.0449858,
2,1,0,1,0,38627.1,0.0477473,0.0473792,18.4738,20,0.00182063,10,0.000875275,-1.73344,0.405824,0.145383,104.685,0.0473792,
2,1,0,1,0,38627.1,0.0501444,0.0498383,18.7102,20,0.00193222,10,0.000932483,-1.72792,0.416815,0.14155,103.4,0.0498383,
2,1,0,1,0,38627.1,0.0525415,0.0521924,18.9574,20,0.00204522,10,0.000989431,-1.72222,0.42221,0.139741,103.43,0.0521924,
2,1,0,1,0,38627.1,0.0549469,0.0546281,19.2154,20,0.00215977,10,0.0010497,-1.71635,0.42773,0.137937,103.345,0.0546281,
2,1,0,1,0,38627.1,0.057344,0.0570024,19.4509,20,0.00227581,10,0.00110875,-1.71106,0.440561,0.13392,101.682,0.0570024,
2,1,0,1,0,38627.1,0.0597411,0.0593819,19.695,20,0.00239328,10,0.00116953,-1.70564,0.438746,0.134474,103.423,0.0593819,
2,1,0,1,0,38627.2,0.0621438,0.0618187,19.9601,20,0.00251227,10,0.00123391,-1.69984,0.443863,0.132924,103.469,0.0618187,
2,1,0,1,0,38627.2,0.0645465,0.0642439,20.1996,20,0.00263278,10,0.0012977,-1.69466,0.44916,0.131356,103.537,0.06424389,
2,1,0,1,0,38627.2,0.0669436,0.0665884,20.4517,20,0.00275474,10,0.00136185,-1.68927,0.450636,0.130926,104.487,0.0665884,
2,1,0,1,0,38627.2,0.0693407,0.0689542,20.7063,20,0.00287823,10,0.00142778,-1.6839,0.448344,0.131595,106.322,0.0689542,
2,1,0,1,0,38627.2,0.0717489,0.0713921,20.9621,20,0.00300325,10,0.00149653,-1.67857,0.448756,0.131474,107.527,0.0713921,
2,1,0,1,0,38627.2,0.074146,0.0737695,21.2123,20,0.0031298,10,0.00156482,-1.67341,0.454759,0.129739,107.445,0.0737695,
2,1,0,1,0,38627.2,0.0765431,0.0761809,21.4702,20,0.00325786,10,0.00163562,-1.66816,0.447954,0.13171,110.441,0.0761809,
2,1,0,1,0,38627.2,0.0789485,0.0785806,21.7458,20,0.00338752,10,0.00170879,-1.66263,0.452716,0.130324,110.53,0.0785806,
2,1,0,1,0,38627.2,0.0813456,0.0810142,22.0084,20,0.00351884,10,0.001783,-1.65741,0.464138,0.127117,109.111,0.0810142,
2,1,0,1,0,38627.2,0.0837427,0.0833991,22.2558,20,0.00365166,10,0.00185611,-1.65256,0.477965,0.12344,107.284,0.0833991,
2,1,0,1,0,38627.2,0.0861398,0.0857988,22.5275,20,0.00378604,10,0.00193283,-1.64729,0.478736,0.123241,108.315,0.08579877,
2,1,0,1,0,38627.2,0.088548,0.0882154,22.7918,20,0.00392205,10,0.00201059,-1.64222,0.489056,0.120641,107.252,0.0882154,
2,1,0,1,0,38627.2,0.0909451,0.0905854,23.0418,20,0.00405955,10,0.00208725,-1.63748,0.507795,0.116189,104.48,0.09058544,
2,1,0,1,0,38627.2,0.0933422,0.092982,23.2978,20,0.00419857,10,0.00216628,-1.63268,0.493005,0.119674,108.822,0.092982,
2,1,0,1,0,38627.2,0.0957477,0.0953371,23.554,20,0.00433912,10,0.00224557,-1.62793,0.496225,0.118898,109.302,0.0953371,
2,1,0,1,0,38627.2,0.0981447,0.0977686,23.8194,20,0.00448128,10,0.00232879,-1.62307,0.487505,0.121024,112.474,0.0977686,
2,1,0,1,0,38627.2,0.100542,0.100218,24.0871,20,0.00462502,10,0.00241396,-1.61822,0.49497,0.119199,112.074,0.100218,
2,1,0,1,0,38627.3,0.102939,0.102598,24.3528,20,0.00477036,10,0.00249854,-1.61345,0.506824,0.116411,110.605,0.102598,
2,1,0,1,0,38627.3,0.105347,0.10501,24.6193,20,0.00491734,10,0.00258528,-1.60872,0.527854,0.111773,107.332,0.10501,
2,1,0,1,0,38627.3,0.107744,0.107406,24.8679,20,0.00506583,10,0.00267095,-1.60436,0.529781,0.111367,108.125,0.107406,
2,1,0,1,0,38627.3,0.110141,0.109813,25.135,20,0.00521586,10,0.00276014,-1.59972,0.530949,0.111122,109.017,0.109813,
2,1,0,1,0,38627.3,0.11255,0.112193,25.4109,20,0.00536753,10,0.00285093,-1.59498,0.52651,0.112059,111.096,0.112193,
2,1,0,1,0,38627.3,0.114947,0.114603,25.6644,20,0.00552075,10,0.00294121,-1.59067,0.52495,0.112392,112.667,0.114603,
2,1,0,1,0,38627.3,0.117344,0.11698,25.95,20,0.00567562,10,0.00303564,-1.58586,0.499675,0.118077,119.619,0.11698,
2,1,0,1,0,38627.3,0.119744,0.119433,26.2526,20,0.00583225,10,0.00313543,-1.58083,0.493486,0.119558,122.437,0.119433,
2,1,0,1,0,38627.3,0.122146,0.12178,26.53,20,0.00599062,10,0.00323084,-1.57626,0.486128,0.121367,125.74,0.12178,
2,1,0,1,0,38627.3,0.124543,0.124218,26.8414,20,0.00615078,10,0.00333419,-1.57119,0.473831,0.124517,130.469,0.124218,
2,1,0,1,0,38627.3,0.126941,0.126619,27.1629,20,0.00631285,10,0.00343934,-1.56602,0.463387,0.127323,134.986,0.126619,
2,1,0,1,0,38627.3,0.129349,0.128981,27.4915,20,0.00647683,10,0.00354587,-1.5608,0.465698,0.126691,135.961,0.128981,
2,1,0,1,0,38627.3,0.131746,0.131401,27.823,20,0.00664279,10,0.00365596,-1.5556,0.451975,0.130538,141.785,0.1314005,
2,1,0,1,0,38627.3,0.134143,0.133782,28.1679,20,0.0068108,10,0.00376836,-1.55025,0.449286,0.13132,144.378,0.133782,
2,1,0,1,0,38627.3,0.13654,0.136189,28.5181,20,0.00698089,10,0.00388386,-1.54488,0.456786,0.129163,143.726,0.136189,
2,1,0,1,0,38627.3,0.138945,0.13862,28.8632,20,0.00715308,10,0.00400101,-1.53966,0.458272,0.128745,145.008,0.13862,
2,1,0,1,0,38627.4,0.141343,0.141011,29.2128,20,0.00732732,10,0.00411932,-1.53443,0.460689,0.128069,146.009,0.141011,
2,1,0,1,0,38627.4,0.14374,0.14345,29.5681,20,0.00750371,10,0.00424154,-1.52918,0.467288,0.12626,145.604,0.14345,
2,1,0,1,0,38627.4,0.146148,0.145785,29.9036,20,0.00768218,10,0.00435949,-1.52428,0.488848,0.120692,140.841,0.145785,
2,1,0,1,0,38627.4,0.148545,0.148209,30.2269,20,0.00786263,10,0.0044799,-1.51961,0.51101,0.115458,136.242,0.148209,
2,1,0,1,0,38627.4,0.150942,0.150597,30.5637,20,0.00804507,10,0.0046028,-1.51479,0.532222,0.110856,132.148,0.150597,
2,1,0,1,0,38627.4,0.153345,0.152989,30.8745,20,0.00822943,10,0.00472347,-1.5104,0.55706,0.105913,127.56,0.1529893,
2,1,0,1,0,38627.4,0.155747,0.155419,31.1737,20,0.00841558,10,0.00484497,-1.50621,0.582107,0.101356,123.256,0.155419,
2,1,0,1,0,38627.4,0.158144,0.157809,31.4712,20,0.00860353,10,0.00496644,-1.50209,0.62915,0.0937773,115.06,0.157809,
2,1,0,1,0,38627.4,0.160542,0.160215,31.7294,20,0.00879316,10,0.00508352,-1.49854,0.688169,0.0857348,106.091,0.160215,
2,1,0,1,0,38627.4,0.162947,0.162593,31.9712,20,0.00898428,10,0.00519831,-1.49524,0.761626,0.0774659,96.5953,0.162593,
2,1,0,1,0,38627.4,0.165344,0.164986,32.1922,20,0.0091768,10,0.00531124,-1.49225,0.864707,0.0682312,85.6479,0.164986,
2,1,0,1,0,38627.4,0.167741,0.167465,32.3776,20,0.00937056,10,0.00542211,-1.48976,1.04213,0.0566147,71.4733,0.167465,
2,1,0,1,0,38627.4,0.170149,0.169773,32.5354,20,0.00956533,10,0.00552364,-1.48764,1.38882,0.042482,53.8715,0.169773,
2,1,0,1,0,38627.4,0.172547,0.172184,32.6374,20,0.00976089,10,0.00561964,-1.48628,2.04797,0.028809,36.6504,0.172184,
2,1,0,1,0,38627.4,0.174944,0.174582,32.7037,20,0.00995694,10,0.00570949,-1.4854,5.98689,0.00985486,12.5559,0.174582,
2,1,0,1,0,38627.4,0.177341,0.176995,32.7051,20,0.0101532,10,0.00578864,-1.48538,-6.2115,-0.00949851,-12.1035,0.1769948,
2,1,0,1,0,38627.4,0.179746,0.17941,32.6498,20,0.0103493,10,0.00585772,-1.48612,-2.071,-0.0284887,-36.2416,0.17941,
2,1,0,1,0,38627.5,0.182143,0.181842,32.5365,20,0.0105448,10,0.0059165,-1.48763,-1.19063,-0.0495534,-62.7943,0.181842,
2,1,0,1,0,38627.5,0.18454,0.18423,32.3526,20,0.0107395,10,0.00596031,-1.49009,-0.839739,-0.0702599,-88.5626,0.18423,
2,1,0,1,0,38627.5,0.186949,0.186651,32.1129,20,0.0109329,10,0.00599389,-1.49332,-0.644153,-0.0915932,-114.576,0.186651,
2,1,0,1,0,38627.5,0.189346,0.189009,31.8052,20,0.0111246,10,0.00601147,-1.4975,-0.516886,-0.114145,-141.389,0.189009,
2,1,0,1,0,38627.5,0.191743,0.191412,31.4305,20,0.0113143,10,0.00601619,-1.50265,-0.437109,-0.134978,-165.295,0.191412,
2,1,0,1,0,38627.5,0.19414,0.193843,30.9979,20,0.0115016,10,0.0060087,-1.50867,-0.372879,-0.158228,-191.12,0.193843,
2,1,0,1,0,38627.5,0.196548,0.196202,30.5146,20,0.0116861,10,0.00598702,-1.51549,-0.337687,-0.174718,-207.71,0.196202,
2,1,0,1,0,38627.5,0.198945,0.198606,29.9851,20,0.0118676,10,0.00595521,-1.52309,-0.294871,-0.200088,-233.755,0.198606,
2,1,0,1,0,38627.5,0.201342,0.201016,29.3964,20,0.0120457,10,0.00590915,-1.53171,-0.2702,-0.218357,-250.196,0.2010162,
2,1,0,1,0,38627.5,0.203748,0.203388,28.779,20,0.0122202,10,0.00585332,-1.54092,-0.255544,-0.23088,-259.14,0.2033883,
2,1,0,1,0,38627.5,0.206145,0.205802,28.1463,20,0.0123909,10,0.00579255,-1.55058,-0.24271,-0.243089,-266.83,0.205802,
2,1,0,1,0,38627.5,0.208542,0.208243,27.5021,20,0.0125578,10,0.00572712,-1.56063,-0.233044,-0.253171,-271.508,0.208243,
2,1,0,1,0,38627.5,0.210939,0.210635,26.821,20,0.0127207,10,0.00564944,-1.57153,-0.224156,-0.26321,-275.588,0.2106351,
2,1,0,1,0,38627.5,0.213347,0.213017,26.174,20,0.0128797,10,0.00557549,-1.58213,-0.220638,-0.267406,-273.013,0.213017,
2,1,0,1,0,38627.5,0.215744,0.21536,25.5178,20,0.0130347,10,0.00549552,-1.59316,-0.215462,-0.27383,-272.589,0.21536,
2,1,0,1,0,38627.5,0.218141,0.217829,24.8628,20,0.0131857,10,0.00541583,-1.60445,-0.217,-0.27189,-264.036,0.217829,
2,1,0,1,0,38627.5,0.220547,0.220261,24.2489,20,0.013333,10,0.0053411,-1.61531,-0.223077,-0.264483,-250.364,0.2202615,
2,1,0,1,0,38627.6,0.222944,0.222623,23.6499,20,0.0134766,10,0.00526501,-1.62617,-0.222175,-0.265557,-245.173,0.222623,
2,1,0,1,0,38627.6,0.225341,0.225039,23.0664,20,0.0136167,10,0.00519084,-1.63702,-0.226783,-0.26016,-234.491,0.225039,
2,1,0,1,0,38627.6,0.227744,0.227484,22.5278,20,0.0137534,10,0.00512472,-1.64728,-0.23589,-0.250117,-220.065,0.227484,
2,1,0,1,0,38627.6,0.230146,0.229841,22.0078,20,0.013887,10,0.00505829,-1.65742,-0.243602,-0.242198,-208.186,0.229841,
2,1,0,1,0,38627.6,0.232543,0.232195,21.5196,20,0.0140175,10,0.00499674,-1.66717,-0.249162,-0.236793,-199.006,0.2321953,
2,1,0,1,0,38627.6,0.234941,0.234623,21.053,20,0.0141452,10,0.00493951,-1.67669,-0.258796,-0.227979,-187.569,0.234623,
2,1,0,1,0,38627.6,0.237349,0.237047,20.6231,20,0.0142701,10,0.00488863,-1.68565,-0.273146,-0.216002,-174.018,0.237047,
2,1,0,1,0,38627.6,0.239746,0.239444,20.2155,20,0.0143926,10,0.00484049,-1.69431,-0.280553,-0.210299,-165.983,0.239444,
2,1,0,1,0,38627.6,0.242143,0.241818,19.818,20,0.0145127,10,0.00479235,-1.70294,-0.298034,-0.197964,-153.385,0.2418185,
2,1,0,1,0,38627.6,0.244548,0.244213,19.4639,20,0.0146304,10,0.00475333,-1.71077,-0.311435,-0.189446,-144.078,0.244213,
2,1,0,1,0,38627.6,0.246946,0.246632,19.1387,20,0.0147462,10,0.00472022,-1.71809,-0.324941,-0.181571,-135.601,0.246632,
2,1,0,1,0,38627.6,0.249343,0.249039,18.8077,20,0.0148601,10,0.00468384,-1.72566,-0.338617,-0.174238,-128.051,0.2490388,
2,1,0,1,0,38627.6,0.25174,0.25142,18.5014,20,0.014972,10,0.00465164,-1.73279,-0.354991,-0.166201,-120.192,0.25142,
2,1,0,1,0,38627.6,0.254148,0.253813,18.2443,20,0.0150822,10,0.00463063,-1.73887,-0.372768,-0.158275,-112.676,0.253813,
2,1,0,1,0,38627.6,0.256545,0.256206,17.9729,20,0.0151908,10,0.00460477,-1.74538,-0.382404,-0.154287,-108.302,0.256206,
2,1,0,1,0,38627.6,0.258942,0.258632,17.7261,20,0.0152978,10,0.00458453,-1.75139,-0.410625,-0.143683,-99.4677,0.2586323,
2,1,0,1,0,38627.7,0.261348,0.261022,17.4942,20,0.0154034,10,0.00456639,-1.75711,-0.432833,-0.136311,-93.0988,0.261022,
2,1,0,1,0,38627.7,0.263745,0.263439,17.2753,20,0.0155077,10,0.004551,-1.76257,-0.458077,-0.128799,-86.8494,0.263439,
2,1,0,1,0,38627.7,0.266142,0.265823,17.0636,20,0.0156107,10,0.00453591,-1.76793,-0.468187,-0.126018,-84.0037,0.265823,
2,1,0,1,0,38627.7,0.268539,0.268184,16.856,20,0.0157125,10,0.00452051,-1.77325,-0.501897,-0.117554,-77.47,0.268184,
2,1,0,1,0,38627.7,0.270947,0.270633,16.6918,20,0.0158131,10,0.00451736,-1.7775,-0.521849,-0.11306,-73.6391,0.270633,
2,1,0,1,0,38627.7,0.273344,0.273024,16.5128,20,0.0159127,10,0.00450838,-1.78218,-0.521114,-0.113219,-72.9719,0.273024,
2,1,0,1,0,38627.7,0.275741,0.275438,16.3371,20,0.0160113,10,0.00449985,-1.78683,-0.580615,-0.101616,-64.8926,0.275438,
2,1,0,1,0,38627.7,0.278149,0.277867,16.2015,20,0.0161089,10,0.00450185,-1.79045,-0.592023,-0.0996583,-62.969,0.277867,
2,1,0,1,0,38627.7,0.280547,0.280244,16.0448,20,0.0162056,10,0.00449645,-1.79467,-0.595039,-0.0991532,-62.0832,0.280244,
2,1,0,1,0,38627.7,0.282944,0.282645,15.8895,20,0.0163014,10,0.0044911,-1.79889,-0.627809,-0.0939776,-58.3496,0.2826452,
2,1,0,1,0,38627.7,0.285344,0.285056,15.7641,20,0.0163963,10,0.00449364,-1.80233,-0.668143,-0.0883045,-54.3362,0.285056,
2,1,0,1,0,38627.7,0.287746,0.287414,15.6353,20,0.0164905,10,0.00449381,-1.80589,-0.679879,-0.0867801,-52.9446,0.287414,
2,1,0,1,0,38627.7,0.290143,0.289851,15.5068,20,0.0165839,10,0.00449467,-1.80948,-0.683557,-0.0863133,-52.2355,0.289851,
2,1,0,1,0,38627.7,0.29254,0.292215,15.3816,20,0.0166766,10,0.00449475,-1.813,-0.7429,-0.0794184,-47.7116,0.292215,
2,1,0,1,0,38627.7,0.294949,0.29465,15.2823,20,0.0167685,10,0.00450294,-1.81581,-0.762568,-0.0773701,-46.1264,0.29465,
2,1,0,1,0,38627.7,0.297346,0.297032,15.1648,20,0.0168599,10,0.00450442,-1.81916,-0.812938,-0.0725762,-43.011,0.297032,
2,1,0,1,0,38627.7,0.299621,0.299311,15.0529,20,0.016946,10,0.00450549,-1.82238,-0.0812387,-0.726255,-413.09,0.299311,
2,1,0,1,0,38627.7,0.299962,0.299594,14.9211,20,0.016964,10,0.00447028,-1.8262,0.0114869,5.1363,2537.77,0.299594,
2,1,0,1,0,38627.8,0.297903,0.297664,11.485,20,0.0170298,10,0.00341867,-1.93987,0.0192198,3.06974,1340.36,0.297664,
2,1,0,1,0,38627.8,0.295506,0.295284,8.81258,20,0.0170901,10,0.00260221,-2.0549,0.020606,2.86324,1000.39,0.295284,
2,1,0,1,0,38627.8,0.293101,0.29283,6.70378,20,0.0171362,10,0.00196307,-2.17368,0.019342,3.05036,798.632,0.29283,
2,1,0,1,0,38627.8,0.290704,0.290379,4.96678,20,0.0171709,10,0.00144225,-2.30393,0.0167947,3.51302,671.386,0.290379,
2,1,0,1,0,38627.8,0.288307,0.287967,3.50267,20,0.0171961,10,0.00100865,-2.4556,0.0134011,4.40261,575.297,0.287967,
2,1,0,1,0,38627.8,0.28591,0.285606,2.23537,20,0.0172131,10,0.000638436,-2.65065,0.00907333,6.50258,499.673,0.285606,
2,1,0,1,0,38627.8,0.283501,0.283167,1.12348,20,0.0172229,10,0.000318133,-2.94943,0.00482219,12.2351,427.418,0.283167,
2,1,0,1,0,38627.8,0.281104,0.280834,0.165831,20,0.0172267,10,4.65711e-05,-3.78033,0.0331152,1.78166,378.663,0.280834,
2,0,0,1,0,38627.8,0.278707,0.278422,-0.682529,20,0.017225,10,-0.000190031,-3.16588,-0.0115308,-5.11675,339.096,0.278422,
2,0,0,1,0,38627.8,0.276302,0.276029,-1.454,20,0.0172185,10,-0.000401347,-2.83744,-0.00851861,-6.92602,298.137,0.276029,
2,0,0,1,0,38627.8,0.273905,0.273597,-2.11625,20,0.0172077,10,-0.000578999,-2.67443,-0.0169129,-3.48845,264.544,0.273597,
2,0,0,1,0,38627.8,0.271508,0.271175,-2.7261,20,0.017193,10,-0.00073925,-2.56446,-0.0245455,-2.4037,244.652,0.271175,
2,0,0,1,0,38627.8,0.269105,0.268792,-3.29429,20,0.0171749,10,-0.000885479,-2.48224,-0.0332002,-1.7771,220.674,0.268792,
2,0,0,1,0,38627.8,0.266702,0.266364,-3.78665,20,0.0171536,10,-0.00100863,-2.42175,-0.0428758,-1.37607,199.274,0.266364,
2,0,0,1,0,38627.8,0.264305,0.264005,-4.23957,20,0.0171295,10,-0.00111927,-2.37268,-0.0529499,-1.11426,181.954,0.264005,
2,0,0,1,0,38627.8,0.261908,0.261624,-4.65953,20,0.0171027,10,-0.00121904,-2.33166,-0.0626845,-0.941222,169.156,0.261624,
2,0,0,1,0,38627.8,0.2595,0.259209,-5.05115,20,0.0170735,10,-0.0013093,-2.29661,-0.0747898,-0.788878,154.051,0.259209,
2,0,0,1,0,38627.9,0.257103,0.256805,-5.39669,20,0.0170421,10,-0.0013859,-2.26787,-0.086875,-0.679137,142.272,0.256805,
2,0,0,1,0,38627.9,0.254706,0.25442,-5.7305,20,0.0170087,10,-0.00145796,-2.24181,-0.0981858,-0.600902,133.748,0.25442,
2,0,0,1,0,38627.9,0.2523,0.25197,-6.03679,20,0.0169734,10,-0.00152109,-2.21919,-0.113073,-0.521786,122.289,0.25197,
2,0,0,1,0,38627.9,0.249903,0.249565,-6.32328,20,0.0169362,10,-0.00157807,-2.19906,-0.127049,-0.464387,114.15,0.249565,
2,0,0,1,0,38627.9,0.247506,0.247186,-6.58074,20,0.0168975,10,-0.00162667,-2.18173,-0.13645,-0.432393,110.95,0.247186,
2,0,0,1,0,38627.9,0.245109,0.244796,-6.84653,20,0.0168572,10,-0.001676,-2.16453,-0.152015,-0.388121,103.295,0.244796,
2,0,0,1,0,38627.9,0.242701,0.242355,-7.08546,20,0.0168153,10,-0.0017172,-2.14963,-0.169457,-0.348171,95.9334,0.242355,
2,0,0,1,0,38627.9,0.240304,0.240007,-7.29906,20,0.0167722,10,-0.00175183,-2.13673,-0.187975,-0.313872,89.396,0.240007,
2,0,0,1,0,38627.9,0.237906,0.237583,-7.51987,20,0.0167277,10,-0.0017866,-2.12379,-0.196635,-0.300048,87.8238,0.237583,
2,0,0,1,0,38627.9,0.235501,0.235141,-7.73047,20,0.0166819,10,-0.00181775,-2.11179,-0.21581,-0.273389,82.245,0.235141,
2,0,0,1,0,38627.9,0.233104,0.232774,-7.90393,20,0.016635,10,-0.00183983,-2.10216,-0.23204,-0.254267,78.4378,0.232774,
2,0,0,1,0,38627.9,0.230707,0.230423,-8.09594,20,0.016587,10,-0.00186549,-2.09173,-0.23746,-0.248463,78.4381,0.230423,
2,0,0,1,0,38627.9,0.22831,0.228018,-8.26898,20,0.0165379,10,-0.00188548,-2.08255,-0.259825,-0.227076,73.2015,0.228018,
2,0,0,1,0,38627.9,0.225902,0.225605,-8.44452,20,0.0164877,10,-0.00190513,-2.07342,-0.28565,-0.206546,67.9675,0.225605,
2,0,0,1,0,38627.9,0.223504,0.223187,-8.60526,20,0.0164365,10,-0.00192058,-2.06524,-0.295925,-0.199375,66.9112,0.223187,
2,0,0,1,0,38627.9,0.221107,0.220839,-8.76271,20,0.0163844,10,-0.00193515,-2.05736,-0.30068,-0.196222,67.0935,0.220839,
2,0,0,1,0,38628,0.218699,0.218415,-8.92639,20,0.0163314,10,-0.00194966,-2.04932,-0.327703,-0.180041,62.5862,0.218415,
2,0,0,1,0,38628,0.216302,0.215994,-9.06391,20,0.0162774,10,-0.00195775,-2.04268,-0.341834,-0.172599,61.0822,0.215994,
2,0,0,1,0,38628,0.213905,0.213584,-9.21458,20,0.0162225,10,-0.00196809,-2.03552,-0.349831,-0.168653,60.6479,0.2135841,
2,0,0,1,0,38628,0.211505,0.211189,-9.35931,20,0.0161668,10,-0.00197658,-2.02876,-0.372314,-0.158468,57.802,0.211189,
2,0,0,1,0,38628,0.209102,0.20878,-9.48344,20,0.0161102,10,-0.00197996,-2.02303,-0.374687,-0.157465,58.3376,0.20878,
2,0,0,1,0,38628,0.206705,0.206412,-9.63641,20,0.0160529,10,-0.00198907,-2.01608,-0.397183,-0.148546,55.7674,0.206412,
2,0,0,1,0,38628,0.204308,0.204008,-9.7651,20,0.0159947,10,-0.00199215,-2.01032,-0.390024,-0.151273,57.5827,0.204008,
2,0,0,1,0,38628,0.2019,0.201575,-9.8951,20,0.0159357,10,-0.0019946,-2.00458,-0.42606,-0.138478,53.4722,0.201575,
2,0,0,1,0,38628,0.199503,0.199187,-10.0181,20,0.015876,10,-0.00199547,-1.99922,-0.435395,-0.135509,52.9803,0.199187,
2,0,0,1,0,38628,0.197106,0.196782,-10.151,20,0.0158154,10,-0.00199753,-1.99349,-0.423928,-0.139175,55.1454,0.196782,
2,0,0,1,0,38628,0.194709,0.194374,-10.2695,20,0.0157541,10,-0.00199613,-1.98845,-0.45882,-0.128591,51.5853,0.194374,
2,0,0,1,0,38628,0.192303,0.191988,-10.4107,20,0.015692,10,-0.00199872,-1.98252,-0.455621,-0.129494,52.5906,0.191988,
2,0,0,1,0,38628,0.189906,0.189537,-10.5342,20,0.0156292,10,-0.00199663,-1.9774,-0.465284,-0.126804,52.1341,0.189537,
2,0,0,1,0,38628,0.187509,0.187209,-10.6581,20,0.0155656,10,-0.00199528,-1.97232,-0.468452,-0.125947,52.3844,0.187209,
2,0,0,1,0,38628,0.185101,0.184792,-10.7875,20,0.0155013,10,-0.00199343,-1.96708,-0.446011,-0.132284,55.7092,0.184792,
2,0,0,1,0,38628,0.182704,0.182421,-10.9181,20,0.0154362,10,-0.00199169,-1.96185,-0.450746,-0.130894,55.7947,0.182421,
2,0,0,1,0,38628,0.180307,0.179987,-11.0541,20,0.0153702,10,-0.00198959,-1.95648,-0.459985,-0.128265,55.2993,0.179987,
2,0,0,1,0,38628.1,0.177904,0.177596,-11.1755,20,0.0153035,10,-0.00198472,-1.95173,-0.458644,-0.12864,56.1669,0.177596,
2,0,0,1,0,38628.1,0.175501,0.175202,-11.3221,20,0.015236,10,-0.00198365,-1.94607,-0.448959,-0.131415,58.0719,0.175202,
2,0,0,1,0,38628.1,0.173104,0.172766,-11.4714,20,0.0151676,10,-0.00198187,-1.94038,-0.435161,-0.135582,60.6409,0.172766,
2,0,0,1,0,38628.1,0.170707,0.170382,-11.6073,20,0.0150984,10,-0.00197767,-1.93527,-0.434566,-0.135768,61.5484,0.170382,
2,0,0,1,0,38628.1,0.168302,0.167962,-11.7564,20,0.0150283,10,-0.00197463,-1.92973,-0.41964,-0.140597,64.5666,0.167962,
2,0,0,1,0,38628.1,0.165905,0.165582,-11.9281,20,0.0149572,10,-0.00197507,-1.92343,-0.403613,-0.14618,68.0256,0.165582,
2,0,0,1,0,38628.1,0.163507,0.163207,-12.0888,20,0.0148852,10,-0.00197299,-1.91762,-0.395396,-0.149217,70.4505,0.1632074,
2,0,0,1,0,38628.1,0.161099,0.160769,-12.2642,20,0.0148121,10,-0.00197172,-1.91136,-0.373697,-0.157882,75.5927,0.160769,
2,0,0,1,0,38628.1,0.158702,0.158358,-12.4465,20,0.014738,10,-0.00197101,-1.90495,-0.343126,-0.171948,83.6164,0.158358,
2,0,0,1,0,38628.1,0.156305,0.155983,-12.655,20,0.0146627,10,-0.00197396,-1.89774,-0.334807,-0.176221,87.0945,0.155983,
2,0,0,1,0,38628.1,0.153908,0.153578,-12.8622,20,0.0145861,10,-0.00197535,-1.89069,-0.316542,-0.186389,93.6985,0.153578,
2,0,0,1,0,38628.1,0.151503,0.15116,-13.0945,20,0.0145082,10,-0.00197936,-1.88291,-0.292781,-0.201516,103.194,0.15116,
2,0,0,1,0,38628.1,0.149105,0.148796,-13.3586,20,0.0144288,10,-0.00198771,-1.87424,-0.282008,-0.209214,109.12,0.148796,
2,0,0,1,0,38628.1,0.146708,0.146397,-13.6292,20,0.0143478,10,-0.00199528,-1.86553,-0.257925,-0.228748,121.889,0.146397,
2,0,0,1,0,38628.1,0.1443,0.143999,-13.9379,20,0.0142651,10,-0.00200705,-1.8558,-0.240303,-0.245524,133.845,0.143999,
2,0,0,1,0,38628.1,0.141903,0.14158,-14.2842,20,0.0141804,10,-0.00202236,-1.84514,-0.22306,-0.264503,147.566,0.14158,
2,0,0,1,0,38628.1,0.139506,0.139216,-14.6446,20,0.0140936,10,-0.00203876,-1.83432,-0.20979,-0.281234,161.012,0.139216,
2,0,0,1,0,38628.2,0.137109,0.136802,-15.0367,20,0.0140046,10,-0.00205705,-1.82285,-0.196152,-0.300787,177.037,0.136802,
2,0,0,1,0,38628.2,0.134701,0.134372,-15.4968,20,0.0139129,10,-0.00208233,-1.80976,-0.18183,-0.324478,196.532,0.134372,
2,0,0,1,0,38628.2,0.132303,0.131957,-15.983,20,0.0138185,10,-0.00210907,-1.79634,-0.177297,-0.332775,207.781,0.1319572,
2,0,0,1,0,38628.2,0.129906,0.129579,-16.5031,20,0.013721,10,-0.00213846,-1.78243,-0.170009,-0.347041,223.746,0.129579,
2,0,0,1,0,38628.2,0.127501,0.127215,-17.0606,20,0.0136202,10,-0.00217036,-1.76801,-0.163493,-0.360873,240.485,0.127215,
2,0,0,1,0,38628.2,0.125104,0.124793,-17.6471,20,0.0135161,10,-0.00220224,-1.75333,-0.165105,-0.357349,246.274,0.1247931,
2,0,0,1,0,38628.2,0.122707,0.122401,-18.2572,20,0.0134083,10,-0.00223469,-1.73857,-0.162611,-0.362828,258.66,0.122401,
2,0,0,1,0,38628.2,0.12031,0.120011,-18.8846,20,0.0132968,10,-0.00226635,-1.72389,-0.163958,-0.359848,265.409,0.120011,
2,0,0,1,0,38628.2,0.117901,0.117582,-19.5403,20,0.0131815,10,-0.00229759,-1.70907,-0.16511,-0.357337,272.38,0.117582,
2,0,0,1,0,38628.2,0.115504,0.115191,-20.197,20,0.0130622,10,-0.00232652,-1.69471,-0.170302,-0.346444,272.726,0.115191,
2,0,0,1,0,38628.2,0.113107,0.112839,-20.8338,20,0.012939,10,-0.00235087,-1.68123,-0.17834,-0.33083,268.995,0.112839,
2,0,0,1,0,38628.2,0.110702,0.110378,-21.4962,20,0.012812,10,-0.0023727,-1.66764,-0.18663,-0.316133,264.656,0.110378,
2,0,0,1,0,38628.2,0.108305,0.108038,-22.1103,20,0.0126811,10,-0.00238874,-1.65541,-0.194561,-0.303246,261.455,0.108038,
2,0,0,1,0,38628.2,0.105908,0.105662,-22.7265,20,0.0125465,10,-0.00240134,-1.64347,-0.202508,-0.291346,258.546,0.1056623,
2,0,0,1,0,38628.2,0.103505,0.103227,-23.3494,20,0.0124083,10,-0.00241028,-1.63172,-0.209336,-0.281843,256.622,0.103227,
2,0,0,1,0,38628.2,0.101102,0.100836,-23.9804,20,0.0122661,10,-0.00241809,-1.62014,-0.220315,-0.267798,250.061,0.1008364,
2,0,0,1,0,38628.3,0.0987052,0.0984261,-24.5498,20,0.0121205,10,-0.00241634,-1.60995,-0.241451,-0.244356,233.878,0.0984261,
2,0,0,1,0,38628.3,0.0963081,0.0959893,-25.1053,20,0.0119715,10,-0.00240984,-1.60023,-0.25181,-0.234304,229.463,0.0959893,
2,0,0,1,0,38628.3,0.0938999,0.09358,-25.6602,20,0.0118191,10,-0.00240129,-1.59074,-0.269175,-0.219188,219.141,0.09358,
2,0,0,1,0,38628.3,0.0915028,0.0912015,-26.1802,20,0.0116636,10,-0.00238767,-1.58203,-0.293382,-0.201103,205.052,0.0912015,
2,0,0,1,0,38628.3,0.0891057,0.0888305,-26.6481,20,0.0115051,10,-0.00236716,-1.57433,-0.317581,-0.18578,192.992,0.0888305,
2,0,0,1,0,38628.3,0.0867002,0.0864,-27.1044,20,0.0113438,10,-0.00234182,-1.56696,-0.335214,-0.176007,185.984,0.0864,
2,0,0,1,0,38628.3,0.0843031,0.0840523,-27.5273,20,0.0111799,10,-0.00231374,-1.56024,-0.369065,-0.159864,171.467,0.0840523,
2,0,0,1,0,38628.3,0.081906,0.0816473,-27.9053,20,0.0110135,10,-0.00227839,-1.55431,-0.409461,-0.144092,156.832,0.0816473,
2,0,0,1,0,38628.3,0.0795089,0.0792455,-28.2744,20,0.0108449,10,-0.00224062,-1.54861,-0.447867,-0.131736,145.288,0.0792455,
2,0,0,1,0,38628.3,0.0771007,0.0767906,-28.6295,20,0.0106741,10,-0.00219848,-1.54319,-0.489929,-0.120425,134.335,0.0767906,
2,0,0,1,0,38628.3,0.0747036,0.0744312,-28.9245,20,0.0105014,10,-0.00215289,-1.53873,-0.575579,-0.102505,115.582,0.0744312,
2,0,0,1,0,38628.3,0.0723065,0.0719795,-29.1868,20,0.010327,10,-0.00210085,-1.53481,-0.6675,-0.0883895,100.575,0.0719795,
2,0,0,1,0,38628.3,0.0699011,0.069582,-29.4321,20,0.0101512,10,-0.00204795,-1.53118,-0.769083,-0.0767147,87.968,0.069582,
2,0,0,1,0,38628.3,0.067504,0.0672056,-29.6148,20,0.00997405,10,-0.00199028,-1.52849,-0.927091,-0.0636399,73.4547,0.0672056,
2,0,0,1,0,38628.3,0.0651069,0.0647815,-29.7717,20,0.00979587,10,-0.00192866,-1.5262,-1.15334,-0.0511557,59.3849,0.0647815,
2,0,0,1,0,38628.3,0.0627098,0.0624073,-29.8886,20,0.00961687,10,-0.00186527,-1.52449,-1.41683,-0.0416422,48.5588,0.0624073,
2,0,0,1,0,38628.3,0.0603016,0.0599545,-30.0043,20,0.00943715,10,-0.00179889,-1.52282,-1.85629,-0.0317839,37.1804,0.0599545,
2,0,0,1,0,38628.4,0.0579045,0.0575909,-30.0743,20,0.00925688,10,-0.00173201,-1.5218,-2.94385,-0.0200418,23.5033,0.0575909,
2,0,0,1,0,38628.4,0.0555074,0.0552357,-30.1093,20,0.00907632,10,-0.00166311,-1.5213,-3.97731,-0.0148342,17.4342,0.0552357,
2,0,0,1,0,38628.4,0.0530992,0.0527989,-30.1667,20,0.0088955,10,-0.00159277,-1.52047,-6.60273,-0.00893569,10.5069,0.0527989,
2,0,0,1,0,38628.4,0.0507021,0.0503801,-30.1725,20,0.00871448,10,-0.00152009,-1.52039,-218.266,-0.000270312,0.318023,0.0503801,
2,0,0,1,0,38628.4,0.048305,0.0479879,-30.153,20,0.00853351,10,-0.00144698,-1.52067,14.4154,0.00409285,-4.81789,0.0479879,
2,0,0,1,0,38628.4,0.0459051,0.0455659,-30.1464,20,0.00835263,10,-0.00137365,-1.52076,7.0659,0.00834996,-9.81876,0.0455659,
2,0,0,1,0,38628.4,0.0435024,0.0432319,-30.1193,20,0.00817179,10,-0.00130211,-1.52116,4.84659,0.0121735,-14.3023,0.0432319,
2,0,0,1,0,38628.4,0.0411053,0.0407972,-30.0681,20,0.00799123,10,-0.00122669,-1.52189,3.73671,0.0157893,-18.5333,0.0407972,
2,0,0,1,0,38628.4,0.0387082,0.0383583,-30.0278,20,0.00781093,10,-0.00115182,-1.52248,3.70771,0.0159128,-18.6488,0.0383583,
2,0,0,1,0,38628.4,0.0363,0.0359841,-29.9847,20,0.00763089,10,-0.00107897,-1.5231,2.87574,0.0205164,-23.9959,0.0359841,
2,0,0,1,0,38628.4,0.0339029,0.033596,-29.9125,20,0.00745118,10,-0.00100494,-1.52415,2.37477,0.0248445,-28.9968,0.03359602,
2,0,0,1,0,38628.4,0.0315058,0.0311889,-29.8418,20,0.00727191,10,-0.000930733,-1.52517,2.37709,0.0248203,-28.9153,0.0311889,
2,0,0,1,0,38628.4,0.0291087,0.0288306,-29.7721,20,0.00709309,10,-0.000858346,-1.52619,2.23183,0.0264357,-30.7124,0.0288306,
2,0,0,1,0,38628.4,0.0267033,0.0263662,-29.7024,20,0.00691463,10,-0.000783139,-1.52721,1.94826,0.0302834,-35.0793,0.0263662,
2,0,0,1,0,38628.4,0.0243062,0.0239834,-29.5993,20,0.00673671,10,-0.000709894,-1.52872,1.67921,0.0351355,-40.6024,0.0239834,
2,0,0,1,0,38628.4,0.0219091,0.0215615,-29.5156,20,0.00655938,10,-0.000636399,-1.52995,1.72009,0.0343005,-39.5131,0.0215615,
2,0,0,1,0,38628.4,0.0195009,0.0191745,-29.4304,20,0.00638256,10,-0.000564312,-1.5312,1.56049,0.0378087,-43.3866,0.01917449,
2,0,0,1,0,38628.5,0.0171038,0.016796,-29.3002,20,0.00620637,10,-0.000492126,-1.53313,1.42926,0.0412801,-47.2203,0.016796,
2,0,0,1,0,38628.5,0.0147067,0.0143899,-29.1961,20,0.0060309,10,-0.00042013,-1.53467,1.4178,0.0416138,-47.4079,0.0143899,
2,0,0,1,0,38628.5,0.012304,0.0119913,-29.0835,20,0.00585609,10,-0.000348749,-1.53635,1.27842,0.0461506,-52.3383,0.0119913,
2,0,0,1,0,38628.5,0.00990136,0.0095513,-28.9323,20,0.00568205,10,-0.000276342,-1.53862,1.1188,0.0527349,-59.5297,0.0095513,
2,0,0,1,0,38628.5,0.00750426,0.00719614,-28.788,20,0.0055089,10,-0.000207162,-1.54079,1.05495,0.055927,-62.828,0.00719614,
2,0,0,1,0,38628.5,0.00510715,0.00480068,-28.6357,20,0.00533664,10,-0.000137471,-1.54309,1.1414,0.0516911,-57.7924,0.00480068,
2,0,0,1,0,38628.5,0.00270173,0.00238189,-28.4756,20,0.0051653,10,-6.7826e-05,-1.54553,0.966981,0.0610146,-67.8053,0.00238189,
2,0,0,1,0,38628.5,0.000304623,-7.71884e-05,-28.3199,20,0.0049948,10,2.18597e-06,-1.54791,0.88881,0.0663809,-73.3092,-7.71884e-05,
2,0,0,1,0,38628.5,-0.00209248,-0.00248749,-28.1265,20,0.00482549,10,6.99644e-05,-1.55088,0.778423,0.0757943,-83.1978,-0.00248749,
2,0,0,1,0,38628.5,-0.00450068,-0.00485962,-27.9432,20,0.00465733,10,0.000135793,-1.55372,0.748175,0.0788586,-85.8835,-0.004859624,
2,0,0,1,0,38628.5,-0.00689779,-0.0073028,-27.7191,20,0.00449041,10,0.000202427,-1.55722,0.712359,0.0828234,-89.5552,-0.0073028,
2,0,0,1,0,38628.5,-0.00929489,-0.00963464,-27.4955,20,0.00432484,10,0.000264909,-1.56074,0.723909,0.081502,-87.4799,-0.00963464,
2,0,0,1,0,38628.5,-0.011692,-0.0120884,-27.2798,20,0.00416055,10,0.00032977,-1.56416,0.697586,0.0845774,-90.0066,-0.0120884,
2,0,0,1,0,38628.5,-0.0140974,-0.0144118,-27.0535,20,0.00399752,10,0.000389889,-1.56778,0.66127,0.0892223,-94.1861,-0.0144118,
2,0,0,1,0,38628.5,-0.0164945,-0.016874,-26.8186,20,0.00383591,10,0.000452539,-1.57156,0.656929,0.0898119,-94.0588,-0.016874,
2,0,0,1,0,38628.5,-0.0188916,-0.0192737,-26.6049,20,0.00367566,10,0.000512775,-1.57504,0.676861,0.0871671,-90.5167,-0.0192737,
2,0,0,1,0,38628.6,-0.0212998,-0.0217106,-26.3958,20,0.00351668,10,0.000573068,-1.57846,0.686551,0.0859368,-88.5058,-0.0217106,
2,0,0,1,0,38628.6,-0.0236969,-0.0240774,-26.1748,20,0.00335901,10,0.00063022,-1.58212,0.680177,0.0867422,-88.6258,-0.0240774,
2,0,0,1,0,38628.6,-0.026094,-0.0264548,-25.9747,20,0.0032026,10,0.000687155,-1.58545,0.734916,0.0802812,-81.412,-0.0264548,
2,0,0,1,0,38628.6,-0.0284912,-0.0288524,-25.7805,20,0.00304739,10,0.00074383,-1.58871,0.752547,0.0784004,-78.895,-0.0288524,
2,0,0,1,0,38628.6,-0.0308994,-0.0312892,-25.6057,20,0.00289326,10,0.000801183,-1.59166,0.790973,0.0745917,-74.5255,-0.0312892,
2,0,0,1,0,38628.6,-0.0332965,-0.033638,-25.4103,20,0.00274026,10,0.000854753,-1.59499,0.854159,0.0690738,-68.5765,-0.033638,
2,0,0,1,0,38628.6,-0.0356936,-0.0360568,-25.259,20,0.00258827,10,0.000910758,-1.59758,0.934207,0.0631552,-62.2945,-0.0360568,
2,0,0,1,0,38628.6,-0.038099,-0.0384798,-25.1208,20,0.00243711,10,0.000966644,-1.59997,0.981631,0.0601041,-58.9204,-0.0384798,
2,0,0,1,0,38628.6,-0.0404961,-0.0408816,-24.9746,20,0.00228684,10,0.001021,-1.6025,1.02151,0.0577575,-56.3468,-0.0408816,
2,0,0,1,0,38628.6,-0.0428932,-0.0432665,-24.8586,20,0.00213736,10,0.00107555,-1.60452,1.25221,0.0471167,-45.7273,-0.0432665,
2,0,0,1,0,38628.6,-0.0452903,-0.0456206,-24.7545,20,0.00198854,10,0.00112931,-1.60635,1.34151,0.0439803,-42.4978,-0.0456206,
2,0,0,1,0,38628.6,-0.0476985,-0.0480436,-24.6527,20,0.00184033,10,0.00118441,-1.60813,1.56642,0.0376655,-36.2648,-0.0480436,
2,0,0,1,0,38628.6,-0.0500956,-0.0504433,-24.5735,20,0.00169267,10,0.00123957,-1.60953,1.73806,0.033946,-32.5704,-0.0504433,
2,0,0,1,0,38628.6,-0.0524927,-0.0528579,-24.504,20,0.00154545,10,0.00129523,-1.61076,2.15833,0.0273359,-26.1529,-0.0528579,
2,0,0,1,0,38628.6,-0.0548981,-0.055283,-24.4486,20,0.00139861,10,0.00135159,-1.61175,2.67586,0.022049,-21.0467,-0.055283,
2,0,0,1,0,38628.6,-0.0572953,-0.0576615,-24.4064,20,0.00125207,10,0.00140731,-1.6125,3.45385,0.0170824,-16.2757,-0.0576615,
2,0,0,1,0,38628.6,-0.0596924,-0.0600538,-24.3668,20,0.00110577,10,0.00146332,-1.6132,5.43174,0.0108621,-10.3356,-0.0600538,
2,0,0,1,0,38628.7,-0.062095,-0.062445,-24.3536,20,0.000959635,10,0.00152076,-1.61344,8.09612,0.00728744,-6.92502,-0.062445,
2,0,0,1,0,38628.7,-0.0644977,-0.0648352,-24.3366,20,0.000813561,10,0.00157787,-1.61374,19.125,0.00308496,-2.93014,-0.0648352,
2,0,0,1,0,38628.7,-0.0668948,-0.0672529,-24.3304,20,0.000667587,10,0.00163629,-1.61385,143.394,0.000411453,-0.390882,-0.0672529,
2,0,0,1,0,38628.7,-0.0692919,-0.0696675,-24.3429,20,0.000521579,10,0.00169591,-1.61363,-10.1867,-0.00579185,5.50276,-0.0696675,
2,0,0,1,0,38628.7,-0.0717001,-0.0720619,-24.353,20,0.000375493,10,0.00175492,-1.61345,-6.37836,-0.00925002,8.79709,-0.0720619,
2,0,0,1,0,38628.7,-0.0740972,-0.0744616,-24.3864,20,0.000229283,10,0.00181585,-1.61285,-4.5961,-0.012837,12.2219,-0.0744616,
2,0,0,1,0,38628.7,-0.0764943,-0.0768878,-24.4228,20,8.28678e-05,10,0.00187781,-1.61221,-3.46619,-0.0170215,16.2276,-0.0768878,
2,0,0,1,0,38628.7,-0.0788997,-0.079262,-24.4676,20,-6.37582e-05,10,0.00193935,-1.61141,-2.84429,-0.0207433,19.8091,-0.079262,
2,0,0,1,0,38628.7,-0.0812968,-0.0816808,-24.5121,20,-0.000210707,10,0.00200217,-1.61062,-2.3079,-0.0255644,24.4558,-0.0816808,
2,0,0,1,0,38628.7,-0.0836939,-0.0840731,-24.5697,20,-0.000357978,10,0.00206565,-1.6096,-2.19005,-0.02694,25.8442,-0.0840731,
2,0,0,1,0,38628.7,-0.086091,-0.0864346,-24.6367,20,-0.000505598,10,0.00212947,-1.60842,-1.8315,-0.0322141,30.9968,-0.0864346,
2,0,0,1,0,38628.7,-0.0884992,-0.0888789,-24.728,20,-0.000653704,10,0.0021978,-1.60681,-1.65712,-0.035604,34.351,-0.0888789,
2,0,0,1,0,38628.7,-0.0908963,-0.0913029,-24.8015,20,-0.000802312,10,0.00226445,-1.60552,-1.66086,-0.0355237,34.3997,-0.0913029,
2,0,0,1,0,38628.7,-0.0932935,-0.093639,-24.8952,20,-0.000951408,10,0.00233117,-1.60388,-1.43354,-0.0411568,40.0108,-0.093639,
2,0,0,1,0,38628.7,-0.0956989,-0.0960758,-25.0068,20,-0.00110109,10,0.00240255,-1.60194,-1.34366,-0.04391,42.8454,-0.0960758,
2,0,0,1,0,38628.7,-0.098096,-0.0984564,-25.107,20,-0.00125141,10,0.00247195,-1.6002,-1.52701,-0.0386375,37.7864,-0.0984564,
2,0,0,0,0,38628.7,-0.0999548,-0.100343,-25.1699,20,-0.0013696,10,0.00252562,-1.59912,0.0277347,2.1273,-1961.67,-0.100343,
2,0,0,1,1,38628.7,-0.0994555,-0.0999304,-23.8237,20,-0.00141095,10,0.00238072,-1.62299,-0.0253479,-2.32761,1975.87,-0.0999304,
2,0,0,1,1,38628.8,-0.0970583,-0.0974448,-19.7355,20,-0.00154042,10,0.00192313,-1.70475,-0.030538,-1.93202,1512.93,-0.09744481,
2,0,0,1,1,38628.8,-0.0946501,-0.0950801,-16.6812,20,-0.0016491,10,0.00158605,-1.77777,-0.0329937,-1.78822,1175.87,-0.0950801,
2,0,0,1,1,38628.8,-0.092253,-0.0926041,-14.1146,20,-0.00174108,10,0.00130707,-1.85033,-0.0324174,-1.82001,1005.51,-0.0926041,
2,0,0,1,1,38628.8,-0.0898559,-0.0902765,-11.8702,20,-0.00181868,10,0.0010716,-1.92554,-0.0302222,-1.95221,901.794,-0.0902765,
2,0,0,1,1,38628.8,-0.0874588,-0.0878524,-9.84499,20,-0.00188354,10,0.000864906,-2.00678,-0.027982,-2.1085,804.539,-0.0878524,
2,0,0,1,1,38628.8,-0.0850534,-0.085459,-8.00188,20,-0.00193678,10,0.000683833,-2.09681,-0.024712,-2.3875,737.372,-0.085459,
2,0,0,1,1,38628.8,-0.0826563,-0.0830116,-6.32975,20,-0.00197954,10,0.000525443,-2.19861,-0.0208594,-2.82846,682.968,-0.0830116,
2,0,0,1,1,38628.8,-0.0802592,-0.0806511,-4.76458,20,-0.0020126,10,0.000384269,-2.32198,-0.0169433,-3.4822,623.478,-0.0806511,
2,0,0,1,1,38628.8,-0.077851,-0.0782504,-3.32136,20,-0.00203667,10,0.000259897,-2.47868,-0.0120194,-4.90874,583.131,-0.0782504,
2,0,0,1,1,38628.8,-0.0754539,-0.0758401,-1.9888,20,-0.00205245,10,0.000150831,-2.70141,-0.00605332,-9.74671,540.242,-0.0758401,
2,0,0,1,1,38628.8,-0.0730568,-0.0734701,-0.728359,20,-0.00206042,10,5.35126e-05,-3.13765,-0.0134323,-4.39241,512.009,-0.0734701,
2,1,0,1,1,38628.8,-0.0706597,-0.0710216,0.431516,20,-0.00206113,10,-3.06469e-05,-3.365,0.0288403,2.04575,470.904,-0.0710216,
2,1,0,1,1,38628.8,-0.0682542,-0.0686261,1.54362,20,-0.00205503,10,-0.000105933,-2.81146,0.00386758,15.255,445.932,-0.0686261,
2,1,0,1,1,38628.8,-0.0658571,-0.0662466,2.58074,20,-0.00204253,10,-0.000170965,-2.58826,0.0124012,4.7576,419.897,-0.0662466,
2,1,0,1,1,38628.8,-0.06346,-0.0638819,3.55115,20,-0.00202403,10,-0.000226854,-2.44963,0.0194404,3.03491,396.65,-0.0638819,
2,1,0,1,1,38628.8,-0.0610518,-0.0614673,4.47696,20,-0.00199985,10,-0.000275187,-2.34902,0.0264218,2.233,375.505,-0.0614673,
2,1,0,1,1,38628.9,-0.0586547,-0.0590517,5.33762,20,-0.00197031,10,-0.000315196,-2.27265,0.0342626,1.722,351.007,-0.0590517,
2,1,0,1,1,38628.9,-0.0562576,-0.0567167,6.1681,20,-0.00193569,10,-0.000349834,-2.20985,0.0419327,1.40702,332.752,-0.0567167,
2,1,0,1,1,38628.9,-0.053855,-0.0542343,6.95045,20,-0.00189625,10,-0.000376953,-2.15799,0.0503701,1.17133,313.563,-0.0542343,
2,1,0,1,1,38628.9,-0.0514523,-0.05186,7.67751,20,-0.00185228,10,-0.000398156,-2.11478,0.0581805,1.01409,301.018,-0.05186,
2,1,0,1,1,38628.9,-0.0490552,-0.0494805,8.38198,20,-0.00180401,10,-0.000414745,-2.07665,0.0680836,0.866582,281.173,-0.0494805,
2,1,0,1,1,38628.9,-0.0466581,-0.0470511,9.04056,20,-0.00175164,10,-0.000425368,-2.0438,0.0775244,0.761051,266.66,-0.0470511,
2,1,0,1,1,38628.9,-0.0442527,-0.0446281,9.65748,20,-0.00169547,10,-0.000430995,-2.01514,0.0878944,0.67126,252.006,-0.0446281,
2,1,0,1,1,38628.9,-0.0418556,-0.0422708,10.2578,20,-0.00163565,10,-0.000433606,-1.98894,0.0993321,0.593967,236.39,-0.0422708,
2,1,0,1,1,38628.9,-0.0394585,-0.039834,10.8183,20,-0.00157234,10,-0.000430936,-1.96584,0.110547,0.533709,224.22,-0.039834,
2,1,0,1,1,38628.9,-0.0370558,-0.037464,11.3314,20,-0.00150587,10,-0.000424519,-1.94572,0.122362,0.482175,212.715,-0.037464,
2,1,0,1,1,38628.9,-0.0346532,-0.0350165,11.8386,20,-0.00143631,10,-0.000414546,-1.9267,0.134557,0.438477,201.747,-0.0350165,
2,1,0,1,1,38628.9,-0.0322561,-0.0326296,12.2947,20,-0.00136383,10,-0.000401171,-1.91028,0.148173,0.398183,190.496,-0.0326296,
2,1,0,1,1,38628.9,-0.0298589,-0.0302521,12.7292,20,-0.00128868,10,-0.000385084,-1.8952,0.164245,0.359219,178.168,-0.0302521,
2,1,0,1,1,38628.9,-0.0274535,-0.0278482,13.1516,20,-0.00121097,10,-0.000366248,-1.88102,0.179189,0.329261,168.616,-0.0278482,
2,1,0,1,1,38628.9,-0.0250564,-0.0254093,13.5462,20,-0.00113083,10,-0.000344199,-1.86818,0.197988,0.297998,157.223,-0.02540925,
2,1,0,1,1,38628.9,-0.0226593,-0.0230445,13.912,20,-0.0010484,10,-0.000320596,-1.85661,0.217749,0.270954,146.785,-0.0230445,
2,1,0,1,1,38628.9,-0.0202511,-0.0206565,14.2647,20,-0.000963858,10,-0.000294659,-1.84574,0.231955,0.25436,141.369,-0.0206565,
2,1,0,1,1,38629,-0.017854,-0.01826,14.5849,20,-0.000877299,10,-0.00026632,-1.8361,0.25298,0.23322,132.54,-0.01826,
2,1,0,1,1,38629,-0.0154569,-0.0158613,14.8982,20,-0.000788806,10,-0.000236306,-1.82687,0.278097,0.212156,123.107,-0.0158613,
2,1,0,1,1,38629,-0.0130598,-0.0134373,15.166,20,-0.000698573,10,-0.000203789,-1.81913,0.296286,0.199132,117.852,-0.0134373,
2,1,0,1,1,38629,-0.0106516,-0.0110185,15.4509,20,-0.000606679,10,-0.000170245,-1.81105,0.320087,0.184325,111.008,-0.0110185,
2,1,0,1,1,38629,-0.00825448,-0.0086633,15.7138,20,-0.000513153,10,-0.000136133,-1.80372,0.361526,0.163197,99.8566,-0.0086633,
2,1,0,1,1,38629,-0.00585738,-0.00626466,15.9269,20,-0.000418204,10,-9.97768e-05,-1.79787,0.383401,0.153886,95.6617,-0.00626466,
2,1,0,1,1,38629,-0.00345195,-0.00381512,16.1591,20,-0.000321924,10,-6.16488e-05,-1.79158,0.411202,0.143482,90.3738,-0.00381512,
2,1,0,1,1,38629,-0.00105485,-0.00144617,16.3711,20,-0.000224293,10,-2.36754e-05,-1.78592, , , ,-0.00144617,
2,1,0,0,1,38629,-7.54729e-05,-0.000344411,16.4463,20,-0.000183273,10,-5.6643e-06,-1.78393, , , ,-0.000344411,