File: Figure_codes/Fig_3-5/rawdata_trumpetplot_data/after 10th/20221101_1-115_003_TrumpetPlot_ParaChange_from10_every3_08_CV_C01_3.csv
mode,ox/red,error,control changes,counter inc.,time/s,control/V,Ewe/V,<I>/mA,cycle number,(Q-Qo)/C,I Range,P/W,log(|I|),Tafel slope mV/dec,alpha_eff,dI/d(E-IR),E-IR/V,
2,0,0,0,0,7085.41,2.44065e-05,-0.000401673,-3.96965,4,0.0000000E+000,10,1.5945e-06,-2.40125, , , ,-0.000401673,
2,0,0,1,0,7085.43,0.0012943,0.000926259,-1.72952,4,-4.22573e-05,10,-1.60198e-06,-2.76208, , , ,0.000926259,
2,0,0,1,0,7085.44,0.00279784,0.00251664,-0.120701,4,-5.81412e-05,10,-3.03761e-07,-3.91829,-0.01157,-5.09939,881.306,0.00251664,
2,1,0,1,0,7085.46,0.00429425,0.00398314,0.846703,4,-5.03254e-05,10,3.37254e-06,-3.07227,0.00869934,6.78212,552.734,0.00398314,
2,1,0,1,0,7085.48,0.00579065,0.00548881,1.4797,4,-2.78477e-05,10,8.12178e-06,-2.82983,0.00718573,8.21072,370.277,0.00548881,
2,1,0,1,0,7085.5,0.0072942,0.00698307,1.93619,4,4.80967e-06,10,1.35205e-05,-2.71305,0.0154577,3.81686,264.713,0.00698307,
2,1,0,1,0,7085.52,0.00878347,0.00843848,2.26329,4,4.43292e-05,10,1.90987e-05,-2.64526,0.0261929,2.25252,190.492,0.00843848,
2,1,0,1,0,7085.54,0.010287,0.00999989,2.51321,4,8.95829e-05,10,2.51319e-05,-2.59977,0.0397222,1.48532,141.749,0.00999989,
2,1,0,1,0,7085.56,0.0117905,0.0114676,2.70344,4,0.000138908,10,3.10019e-05,-2.56808,0.0528789,1.11576,115.959,0.0114676,
2,1,0,1,0,7085.58,0.013278,0.0130007,2.84384,4,0.000190754,10,3.69719e-05,-2.5461,0.0684721,0.861665,95.2203,0.0130007,
2,1,0,1,0,7085.59,0.0147816,0.0145025,2.97506,4,0.000245789,10,4.31457e-05,-2.5265,0.0875696,0.67375,77.8306,0.0145025,
2,1,0,1,0,7085.61,0.0162851,0.0159558,3.09983,4,0.000303203,10,4.94603e-05,-2.50866,0.103819,0.568298,68.1896,0.0159558,
2,1,0,1,0,7085.63,0.0177744,0.0174593,3.19594,4,0.000361884,10,5.57988e-05,-2.4954,0.120887,0.488057,60.5687,0.0174593,
2,1,0,1,0,7085.65,0.0192779,0.0190054,3.27859,4,0.000422871,10,6.23107e-05,-2.48431,0.128508,0.459117,58.6571,0.0190054,
2,1,0,1,0,7085.67,0.0207743,0.0204654,3.36616,4,0.00048518,10,6.88897e-05,-2.47287,0.135526,0.43534,57.0374,0.0204654,
2,1,0,1,0,7085.69,0.0222707,0.0219697,3.44562,4,0.000549048,10,7.56992e-05,-2.46273,0.149339,0.395075,53.0063,0.0219697,
2,1,0,1,0,7085.71,0.0237743,0.0234721,3.51602,4,0.000614708,10,8.25284e-05,-2.45395,0.158861,0.371395,50.9087,0.02347213,
2,1,0,1,0,7085.73,0.0252636,0.0249367,3.5769,4,0.000680997,10,8.91962e-05,-2.44649,0.160518,0.367559,51.4543,0.0249367,
2,1,0,1,0,7085.74,0.0267671,0.0264225,3.65578,4,0.000749305,10,9.65947e-05,-2.43702,0.164595,0.358456,51.1766,0.0264225,
2,1,0,1,0,7085.76,0.0282706,0.0279645,3.73114,4,0.000819091,10,0.000104339,-2.42816,0.170513,0.346015,50.3891,0.0279645,
2,1,0,1,0,7085.78,0.0297581,0.0294656,3.80414,4,0.000889497,10,0.000112091,-2.41974,0.189629,0.311134,46.176,0.0294656,
2,1,0,1,0,7085.8,0.0312617,0.0309486,3.86545,4,0.00096195,10,0.00011963,-2.4128,0.19289,0.305874,46.2654,0.0309486,
2,1,0,1,0,7085.82,0.0327652,0.0324752,3.94179,4,0.00103567,10,0.000128011,-2.40431,0.200808,0.293814,45.2292,0.0324752,
2,1,0,1,0,7085.84,0.0342545,0.0339623,4.01438,4,0.00110994,10,0.000136338,-2.39638,0.199742,0.295381,46.315,0.0339623,
2,1,0,1,0,7085.86,0.035758,0.0354498,4.08875,4,0.00118636,10,0.000144945,-2.38841,0.213031,0.276955,44.1606,0.0354498,
2,1,0,1,0,7085.88,0.0372544,0.0369654,4.16318,4,0.00126375,10,0.000153893,-2.38058,0.21735,0.271452,44.0464,0.03696537,
2,1,0,1,0,7085.89,0.0387508,0.0384223,4.23206,4,0.00134235,10,0.000162605,-2.37345,0.215427,0.273875,45.2657,0.0384223,
2,1,0,1,0,7085.91,0.0402544,0.0399544,4.30468,4,0.00142277,10,0.000171991,-2.36606,0.204671,0.288268,48.3637,0.0399544,
2,1,0,1,0,7085.93,0.0417437,0.0414831,4.38775,4,0.00150375,10,0.000182017,-2.35776,0.211481,0.278985,47.6247,0.04148306,
2,1,0,1,0,7085.95,0.0432472,0.0429521,4.45044,4,0.00158693,10,0.000191156,-2.3516,0.222039,0.265719,46.0608,0.0429521,
2,1,0,1,0,7085.97,0.0447507,0.0444559,4.51092,4,0.00167134,10,0.000200537,-2.34574,0.2141,0.275572,48.574,0.0444559,
2,1,0,1,0,7085.99,0.0462382,0.0459246,4.58207,4,0.00175613,10,0.00021043,-2.33894,0.202706,0.291061,52.0723,0.0459246,
2,1,0,1,0,7086.01,0.0477418,0.0474901,4.65497,4,0.00184324,10,0.000221065,-2.33208,0.209417,0.281735,51.2172,0.0474901,
2,1,0,1,0,7086.03,0.0492453,0.0489486,4.72117,4,0.00193174,10,0.000231094,-2.32595,0.226101,0.260945,48.1349,0.04894859,
2,1,0,1,0,7086.04,0.0507346,0.0504316,4.78486,4,0.00202052,10,0.000241308,-2.32013,0.24352,0.24228,45.3737,0.0504316,
2,1,0,1,0,7086.06,0.0522381,0.051947,4.86066,4,0.00211156,10,0.000252496,-2.31331,0.225424,0.261729,49.6998,0.051947,
2,1,0,1,0,7086.08,0.0537345,0.053441,4.93813,4,0.00220346,10,0.000263898,-2.30644,0.247265,0.238611,45.9463,0.05344101,
2,1,0,1,0,7086.1,0.0552309,0.0549192,5.00844,4,0.00229673,10,0.000275059,-2.3003,0.263961,0.223518,43.6273,0.0549192,
2,1,0,1,0,7086.12,0.0567345,0.0564281,5.06662,4,0.00239176,10,0.0002859,-2.29528,0.288384,0.204588,40.5074,0.05642809,
2,1,0,1,0,7086.14,0.0582237,0.0579172,5.14125,4,0.00248692,10,0.000297767,-2.28893,0.290441,0.203139,40.7848,0.0579172,
2,1,0,1,0,7086.16,0.0597273,0.0593825,5.20702,4,0.00258441,10,0.000309206,-2.28341,0.277285,0.212777,43.2244,0.0593825,
2,1,0,1,0,7086.17,0.0612308,0.0609409,5.27721,4,0.0026832,10,0.000321598,-2.2776,0.287376,0.205306,42.2503,0.0609409,
2,1,0,1,0,7086.19,0.0627183,0.0624423,5.34671,4,0.00278216,10,0.000333861,-2.27191,0.299095,0.197262,41.0966,0.0624423,
2,1,0,1,0,7086.21,0.0642219,0.0639526,5.40541,4,0.00288332,10,0.00034569,-2.26717,0.298001,0.197986,41.7711,0.0639526,
2,1,0,1,0,7086.23,0.0657254,0.0654765,5.47264,4,0.00298571,10,0.000358329,-2.2618,0.275768,0.213948,45.6071,0.0654765,
2,1,0,1,0,7086.25,0.0672147,0.0669254,5.54117,4,0.00308828,10,0.000370845,-2.2564,0.276662,0.213256,46.0286,0.0669254,
2,1,0,1,0,7086.27,0.0687182,0.068404,5.59665,4,0.00319313,10,0.000382833,-2.25207,0.299743,0.196835,42.9651,0.068404,
2,1,0,1,0,7086.29,0.0702146,0.0699078,5.65182,4,0.00329856,10,0.000395106,-2.24781,0.305319,0.193241,42.6555,0.06990777,
2,1,0,1,0,7086.31,0.071711,0.071384,5.71643,4,0.00340509,10,0.000408062,-2.24288,0.300269,0.19649,43.8387,0.071384,
2,1,0,1,0,7086.32,0.0732146,0.0729021,5.7705,4,0.00351339,10,0.000420682,-2.23879,0.308368,0.19133,43.1204,0.07290215,
2,1,0,1,0,7086.34,0.0747038,0.0744114,5.82861,4,0.00362166,10,0.000433715,-2.23443,0.348818,0.169143,38.491,0.0744114,
2,1,0,1,0,7086.36,0.0762074,0.0758777,5.8803,4,0.00373213,10,0.000446184,-2.2306,0.386984,0.152461,35.0563,0.0758777,
2,1,0,1,0,7086.38,0.0777109,0.0773764,5.94457,4,0.0038436,10,0.00045997,-2.22588,0.370399,0.159288,36.9843,0.0773764,
2,1,0,1,0,7086.4,0.0791984,0.0789341,5.99496,4,0.00395495,10,0.000473206,-2.22221,0.388505,0.151864,35.5669,0.0789341,
2,1,0,1,0,7086.42,0.0807019,0.0803827,6.05777,4,0.00406862,10,0.00048694,-2.21769,0.418355,0.141029,33.3209,0.0803827,
2,1,0,1,0,7086.44,0.0822055,0.0818957,6.1072,4,0.00418326,10,0.000500154,-2.21416,0.456292,0.129303,30.8386,0.0818957,
2,1,0,1,0,7086.46,0.0836947,0.0833992,6.16221,4,0.00429756,10,0.000513923,-2.21026,0.443617,0.132997,31.9946,0.0833992,
2,1,0,1,0,7086.47,0.0851983,0.0848866,6.21406,4,0.00441412,10,0.00052749,-2.20662,0.426528,0.138326,33.5561,0.0848866,
2,1,0,1,0,7086.49,0.0866947,0.086388,6.27686,4,0.0045311,10,0.000542245,-2.20226,0.40551,0.145496,35.6137,0.086388,
2,1,0,1,0,7086.51,0.0881911,0.0878608,6.33137,4,0.0046491,10,0.000556279,-2.1985,0.400882,0.147176,36.328,0.0878608,
2,1,0,1,0,7086.53,0.0896946,0.0893561,6.38297,4,0.00476875,10,0.000570358,-2.19498,0.366593,0.160941,40.1337,0.0893561,
2,1,0,1,0,7086.55,0.0911839,0.090878,6.44932,4,0.0048882,10,0.000586101,-2.19049,0.339515,0.173777,43.7037,0.090878,
2,1,0,1,0,7086.57,0.0926857,0.0923866,6.50667,4,0.00501017,10,0.000601129,-2.18664,0.327033,0.18041,45.7879,0.0923866,
2,1,0,1,0,7086.59,0.0941892,0.0938883,6.56349,4,0.00513334,10,0.000616235,-2.18287,0.323181,0.18256,46.8298,0.0938883,
2,1,0,1,0,7086.61,0.0956785,0.0953516,6.62786,4,0.00525637,10,0.000631977,-2.17863,0.320169,0.184278,47.7582,0.0953516,
2,1,0,1,0,7086.62,0.097182,0.0968789,6.70352,4,0.00538198,10,0.000649429,-2.1737,0.301689,0.195565,51.2238,0.0968789,
2,1,0,1,0,7086.64,0.0986856,0.0983643,6.77633,4,0.00550903,10,0.000666549,-2.16901,0.277661,0.212489,56.3255,0.0983643,
2,1,0,1,0,7086.66,0.100175,0.0998916,6.86864,4,0.00563623,10,0.000686119,-2.16313,0.271983,0.216925,58.2142,0.0998916,
2,1,0,1,0,7086.68,0.101678,0.101346,6.95392,4,0.00576654,10,0.000704751,-2.15777,0.260289,0.226671,61.6472,0.101346,
2,1,0,1,0,7086.7,0.103175,0.102842,7.06407,4,0.0058979,10,0.000726485,-2.15094,0.248717,0.237217,65.4385,0.102842,
2,1,0,1,0,7086.72,0.104671,0.104368,7.17516,4,0.00603122,10,0.000748857,-2.14417,0.234001,0.252136,70.5594,0.104368,
2,1,0,1,0,7086.74,0.106175,0.105888,7.28628,4,0.00616733,10,0.00077153,-2.13749,0.23963,0.246213,69.9237,0.1058881,
2,1,0,1,0,7086.76,0.107662,0.107359,7.39616,4,0.00630403,10,0.000794045,-2.13099,0.235866,0.250142,72.1991,0.107359,
2,1,0,1,0,7086.77,0.109166,0.10888,7.50917,4,0.00644421,10,0.000817601,-2.12441,0.228108,0.258649,75.824,0.10888,
2,1,0,1,0,7086.79,0.110669,0.110361,7.63365,4,0.00658669,10,0.000842455,-2.11727,0.215581,0.273679,81.4552,0.110361,
2,1,0,1,0,7086.81,0.112159,0.111838,7.75307,4,0.00672996,10,0.000867085,-2.11053,0.217844,0.270836,81.868,0.111838,
2,1,0,1,0,7086.83,0.113662,0.113387,7.88013,4,0.00687707,10,0.000893502,-2.10347,0.221115,0.266829,81.9492,0.113387,
2,1,0,1,0,7086.85,0.115166,0.114837,7.9951,4,0.00702639,10,0.000918133,-2.09718,0.225504,0.261636,81.5775,0.114837,
2,1,0,1,0,7086.87,0.116655,0.116321,8.11163,4,0.00717634,10,0.00094355,-2.09089,0.220692,0.267341,84.5862,0.116321,
2,1,0,1,0,7086.89,0.118158,0.117841,8.23282,4,0.00733026,10,0.000970159,-2.08445,0.238697,0.247175,79.3547,0.117841,
2,1,0,1,0,7086.91,0.119655,0.119338,8.34227,4,0.00748556,10,0.00099555,-2.07872,0.265254,0.222428,72.3893,0.119338,
2,1,0,1,0,7086.92,0.121151,0.120848,8.4438,4,0.00764276,10,0.00102042,-2.07346,0.279158,0.21135,69.6849,0.120848,
2,1,0,1,0,7086.94,0.122655,0.122332,8.54591,4,0.00780279,10,0.00104544,-2.06824,0.293929,0.200729,66.9197,0.122332,
2,1,0,1,0,7086.96,0.124142,0.123887,8.64444,4,0.00796302,10,0.00107094,-2.06326,0.311051,0.18968,63.991,0.123887,
2,1,0,1,0,7086.98,0.125646,0.12534,8.73611,4,0.00812672,10,0.00109498,-2.05868,0.36043,0.163693,55.7996,0.12534,
2,1,0,1,0,7087,0.127149,0.126844,8.81823,4,0.00829211,10,0.00111854,-2.05462,0.389445,0.151498,52.1458,0.126844,
2,1,0,1,0,7087.02,0.128639,0.128303,8.90589,4,0.00845721,10,0.00114266,-2.05032,0.390456,0.151105,52.5215,0.128303,
2,1,0,1,0,7087.04,0.130142,0.129835,8.994,4,0.00862563,10,0.00116774,-2.04605,0.402008,0.146763,51.4624,0.129835,
2,1,0,1,0,7087.06,0.131646,0.13132,9.06712,4,0.00879565,10,0.0011907,-2.04253,0.44164,0.133593,47.2205,0.13132,
2,1,0,1,0,7087.07,0.133135,0.132843,9.14834,4,0.00896524,10,0.00121529,-2.03866,0.4537,0.130042,46.3895,0.132843,
2,1,0,1,0,7087.09,0.134639,0.134306,9.21291,4,0.00913786,10,0.00123735,-2.0356,0.447125,0.131954,47.4458,0.134306,
2,1,0,1,0,7087.11,0.136135,0.13583,9.28449,4,0.00931096,10,0.00126112,-2.03224,0.439493,0.134246,48.5819,0.1358304,
2,1,0,1,0,7087.13,0.137631,0.137358,9.35314,4,0.00948534,10,0.00128473,-2.02904,0.490817,0.120208,43.8132,0.137358,
2,1,0,1,0,7087.15,0.139135,0.138842,9.40514,4,0.00966185,10,0.00130583,-2.02663,0.583389,0.101133,37.0732,0.138842,
2,1,0,1,0,7087.17,0.140622,0.140298,9.45056,4,0.00983744,10,0.0013259,-2.02454,0.677753,0.0870524,32.0901,0.1402981,
2,1,0,1,0,7087.19,0.142126,0.141764,9.48517,4,0.0100157,10,0.00134466,-2.02295,0.831505,0.0709557,26.2453,0.141764,
2,1,0,1,0,7087.2,0.143629,0.143326,9.51591,4,0.0101947,10,0.00136388,-2.02155,2.21254,0.0266662,9.88626,0.143326,
2,1,0,1,0,7087.22,0.145119,0.14482,9.51323,4,0.0103722,10,0.0013777,-2.02167,-2.77165,-0.021287,-7.89266,0.14482,
2,1,0,1,0,7087.24,0.146622,0.146294,9.48795,4,0.0105512,10,0.00138803,-2.02283,-0.721513,-0.0817726,-30.2369,0.146294,
2,1,0,1,0,7087.26,0.148126,0.147823,9.43855,4,0.0107295,10,0.00139523,-2.02509,-0.451231,-0.130753,-48.0297,0.1478226,
2,1,0,1,0,7087.28,0.149615,0.149329,9.36182,4,0.0109046,10,0.00139799,-2.02864,-0.289253,-0.203974,-74.209,0.1493288,
2,1,0,1,0,7087.3,0.151119,0.150819,9.22796,4,0.0110797,10,0.00139175,-2.03489,-0.206731,-0.285394,-102.332,0.1508193,
2,1,0,1,0,7087.32,0.152615,0.15234,9.06181,4,0.011251,10,0.00138047,-2.04279,-0.161986,-0.364229,-128.294,0.15234,
2,1,0,1,0,7087.34,0.154111,0.1538,8.859,4,0.0114186,10,0.00136251,-2.05262,-0.129613,-0.4552,-156.619,0.1538,
2,1,0,1,0,7087.35,0.155615,0.15534,8.60277,4,0.0115829,10,0.00133635,-2.06536,-0.111686,-0.528265,-176.566,0.15534,
2,1,0,1,0,7087.37,0.157103,0.156822,8.32744,4,0.0117406,10,0.00130593,-2.07949,-0.0973313,-0.606177,-196,0.156822,
2,1,0,1,0,7087.39,0.158606,0.158306,8.01498,4,0.0118943,10,0.00126882,-2.0961,-0.0860446,-0.685691,-213.692,0.158306,
2,1,0,1,0,7087.41,0.16011,0.159779,7.67497,4,0.0120419,10,0.0012263,-2.11492,-0.0800764,-0.736796,-220.29,0.1597791,
2,1,0,1,0,7087.43,0.161599,0.161284,7.34707,4,0.0121817,10,0.00118496,-2.13389,-0.0769061,-0.767169,-219.572,0.1612836,
2,1,0,1,0,7087.45,0.163102,0.162795,7.00978,4,0.0123168,10,0.00114116,-2.1543,-0.0758843,-0.777499,-212.734,0.162795,
2,1,0,1,0,7087.47,0.164606,0.164321,6.68889,4,0.0124458,10,0.00109912,-2.17465,-0.075845,-0.777902,-203.476,0.164321,
2,1,0,1,0,7087.49,0.166095,0.16579,6.38897,4,0.0125675,10,0.00105923,-2.19457,-0.0781132,-0.755315,-188.882,0.16579,
2,1,0,1,0,7087.5,0.167599,0.167275,6.11183,4,0.0126853,10,0.00102236,-2.21383,-0.0832021,-0.709117,-169.761,0.167275,
2,1,0,1,0,7087.52,0.169095,0.168796,5.87101,4,0.0127976,10,0.000991004,-2.23129,-0.0869066,-0.67889,-156.063,0.168796,
2,1,0,1,0,7087.54,0.170592,0.170303,5.6479,4,0.0129055,10,0.000961857,-2.24811,-0.0917932,-0.642749,-142.133,0.170303,
2,1,0,1,0,7087.56,0.172095,0.171797,5.44846,4,0.0130101,10,0.000936026,-2.26373,-0.0983631,-0.599819,-127.985,0.1717966,
2,1,0,1,0,7087.58,0.173583,0.173314,5.27279,4,0.01311,10,0.000913849,-2.27796,-0.106768,-0.552602,-114.064,0.173314,
2,1,0,1,0,7087.6,0.175086,0.174771,5.11778,4,0.0132079,10,0.00089444,-2.29092,-0.117258,-0.503163,-100.689,0.174771,
2,1,0,1,0,7087.62,0.17659,0.176279,4.98104,4,0.0133029,10,0.000878052,-2.30268,-0.119731,-0.492773,-95.7587,0.176279,
2,1,0,1,0,7087.64,0.178079,0.177836,4.84579,4,0.0133945,10,0.000861758,-2.31464,-0.130346,-0.452642,-85.8013,0.177836,
2,1,0,1,0,7087.65,0.179582,0.179326,4.73616,4,0.0134847,10,0.000849318,-2.32457,-0.140877,-0.418804,-77.5055,0.179326,
2,1,0,1,0,7087.67,0.181086,0.180766,4.62454,4,0.0135728,10,0.000835958,-2.33493,-0.164674,-0.358283,-64.7374,0.1807656,
2,1,0,1,0,7087.69,0.182575,0.182271,4.53826,4,0.0136582,10,0.000827194,-2.34311,-0.171212,-0.344603,-60.9636,0.182271,
2,1,0,1,0,7087.71,0.184079,0.183788,4.44927,4,0.0137427,10,0.000817721,-2.35171,-0.184293,-0.320142,-55.5633,0.183788,
2,1,0,1,0,7087.73,0.185582,0.185292,4.3575,4,0.0138256,10,0.00080741,-2.36076,-0.201429,-0.292907,-49.8926,0.185292,
2,1,0,1,0,7087.75,0.18707,0.186763,4.28478,4,0.0139061,10,0.000800238,-2.36807,-0.220729,-0.267296,-44.769,0.186763,
2,1,0,1,0,7087.77,0.188573,0.188264,4.21119,4,0.0139863,10,0.000792816,-2.3756,-0.234906,-0.251165,-41.3594,0.188264,
2,1,0,1,0,7087.79,0.19007,0.18981,4.14389,4,0.0140647,10,0.000786551,-2.38259,-0.22931,-0.257294,-41.7177,0.18981,
2,1,0,1,0,7087.8,0.191566,0.191296,4.08177,4,0.0141419,10,0.000780828,-2.38915,-0.243774,-0.242028,-38.6604,0.191296,
2,1,0,1,0,7087.82,0.19307,0.192729,4.03242,4,0.0142185,10,0.000777162,-2.39443,-0.272574,-0.216455,-34.086,0.192729,
2,1,0,1,0,7087.84,0.194559,0.194233,3.98846,4,0.0142934,10,0.000774692,-2.3992,-0.279143,-0.211361,-32.8733,0.194233,
2,1,0,1,0,7087.86,0.196063,0.195759,3.93726,4,0.0143681,10,0.000770755,-2.40481,-0.259765,-0.227128,-34.9085,0.195759,
2,1,0,1,0,7087.88,0.197566,0.197224,3.8839,4,0.0144419,10,0.000765999,-2.41073,-0.277254,-0.212801,-32.3399,0.197224,
2,1,0,1,0,7087.9,0.199055,0.198767,3.85123,4,0.0145141,10,0.000765497,-2.4144,-0.291001,-0.202749,-30.4864,0.198767,
2,1,0,1,0,7087.92,0.200559,0.200287,3.81252,4,0.0145863,10,0.000763598,-2.41879,-0.328062,-0.179844,-26.7678,0.200287,
2,1,0,1,0,7087.94,0.202062,0.201747,3.77685,4,0.0146578,10,0.000761968,-2.42287,-0.33836,-0.17437,-25.6515,0.201747,
2,1,0,1,0,7087.95,0.20355,0.203274,3.74023,4,0.0147279,10,0.000760291,-2.4271,-0.382943,-0.15407,-22.5115,0.203274,
2,1,0,1,0,7087.97,0.205053,0.204775,3.70189,4,0.014798,10,0.000758053,-2.43158,-0.466413,-0.126497,-18.3426,0.204775,
2,1,0,1,0,7087.99,0.20655,0.206237,3.67745,4,0.0148672,10,0.000758427,-2.43445,-0.560453,-0.105272,-15.1194,0.2062373,
2,1,0,1,0,7088.01,0.208046,0.207812,3.65231,4,0.0149361,10,0.000758995,-2.43743,-0.48585,-0.121437,-17.2935,0.207812,
2,1,0,1,0,7088.03,0.20955,0.209263,3.6265,4,0.0150047,10,0.000758893,-2.44051,-0.480207,-0.122864,-17.3887,0.209263,
2,1,0,1,0,7088.05,0.211039,0.210742,3.59453,4,0.015072,10,0.000757516,-2.44436,-0.520098,-0.11344,-15.9253,0.210742,
2,1,0,1,0,7088.07,0.212543,0.212264,3.56688,4,0.0151396,10,0.000757121,-2.44771,-0.647945,-0.0910571,-12.6951,0.212264,
2,1,0,1,0,7088.09,0.214046,0.21375,3.54685,4,0.0152068,10,0.000758139,-2.45016,-0.623473,-0.0946313,-13.1121,0.2137502,
2,1,0,1,0,7088.1,0.215535,0.215263,3.52724,4,0.0152728,10,0.000759283,-2.45257,-0.560842,-0.105199,-14.4878,0.215263,
2,1,0,1,0,7088.12,0.217039,0.216731,3.49766,4,0.0153391,10,0.00075805,-2.45622,-0.579531,-0.101806,-13.9311,0.216731,
2,1,0,1,0,7088.14,0.218543,0.218253,3.48577,4,0.0154051,10,0.00076078,-2.4577,-0.740756,-0.0796484,-10.8501,0.218253,
2,1,0,1,0,7088.16,0.22003,0.219726,3.47591,4,0.01547,10,0.000763747,-2.45893,-0.622413,-0.0947924,-12.8591,0.219726,
2,1,0,1,0,7088.18,0.221534,0.221264,3.45533,4,0.0155354,10,0.000764541,-2.46151,-0.528353,-0.111668,-15.0498,0.221264,
2,1,0,1,0,7088.2,0.22303,0.222702,3.43827,4,0.0156001,10,0.000765711,-2.46366,-0.590658,-0.0998887,-13.3946,0.2227024,
2,1,0,1,0,7088.22,0.224526,0.224267,3.42685,4,0.0156644,10,0.000768528,-2.4651,-0.673319,-0.0876257,-11.7146,0.2242666,
2,1,0,1,0,7088.23,0.22603,0.225731,3.40947,4,0.0157289,10,0.000769624,-2.46731,-0.843981,-0.0699068,-9.29463,0.225731,
2,1,0,1,0,7088.25,0.227519,0.227231,3.39909,4,0.0157923,10,0.000772377,-2.46864,-0.805601,-0.0732372,-9.70195,0.227231,
2,1,0,1,0,7088.27,0.229023,0.228741,3.38508,4,0.0158562,10,0.000774305,-2.47043,-0.972431,-0.0606727,-8.00229,0.228741,
2,1,0,1,0,7088.29,0.230526,0.230263,3.36475,4,0.0159198,10,0.000774778,-2.47305,-1.33693,-0.0441309,-5.80688,0.230263,
2,1,0,1,0,7088.31,0.232016,0.231738,3.36072,4,0.0159825,10,0.000778804,-2.47357,-1.55748,-0.0378818,-4.95938,0.231738,
2,1,0,1,0,7088.33,0.233519,0.233227,3.35005,4,0.0160458,10,0.000781322,-2.47495,-1.41153,-0.0417985,-5.45474,0.233227,
2,1,0,1,0,7088.35,0.235023,0.23475,3.33157,4,0.0161088,10,0.000782084,-2.47735,-1.32412,-0.0445579,-5.79011,0.23475,
2,1,0,1,0,7088.37,0.23651,0.236188,3.31652,4,0.0161709,10,0.000783321,-2.47932,-1.14069,-0.051723,-6.70853,0.236188,
2,1,0,1,0,7088.38,0.238014,0.237728,3.3102,4,0.0162334,10,0.000786925,-2.48015,-1.86658,-0.0316086,-4.08505,0.237728,
2,1,0,1,0,7088.4,0.23951,0.23919,3.2963,4,0.0162955,10,0.000788442,-2.48197,-1.91341,-0.0308351,-3.96949,0.23919,
2,1,0,1,0,7088.42,0.241006,0.240719,3.28615,4,0.0163574,10,0.000791038,-2.48331,-0.845786,-0.0697576,-8.96094,0.240719,
2,1,0,1,0,7088.44,0.24251,0.242154,3.26976,4,0.0164194,10,0.000791787,-2.48548,-0.758011,-0.0778353,-9.96995,0.242154,
2,1,0,1,0,7088.46,0.243999,0.243693,3.26976,4,0.0164805,10,0.000796816,-2.48548,-1.01488,-0.0581352,-7.43231,0.243693,
2,1,0,1,0,7088.48,0.245503,0.24525,3.27215,4,0.0165422,10,0.000802495,-2.48517,-1.01758,-0.057981,-7.39147,0.24525,
2,1,0,1,0,7088.5,0.247006,0.246713,3.2586,4,0.0166038,10,0.00080394,-2.48697,-0.849961,-0.069415,-8.81689,0.246713,
2,1,0,1,0,7088.52,0.248496,0.248178,3.24918,4,0.0166646,10,0.000806374,-2.48823,-1.03881,-0.0567957,-7.20074,0.248178,
2,1,0,1,0,7088.53,0.249999,0.249695,3.24776,4,0.0167257,10,0.000810949,-2.48842,-1.15948,-0.0508847,-6.44271,0.249695,
2,1,0,1,0,7088.55,0.251503,0.251234,3.23725,4,0.0167868,10,0.000813308,-2.48982,-2.92191,-0.0201923,-2.55061,0.251234,
2,1,0,1,0,7088.57,0.25299,0.252702,3.2267,4,0.0168471,10,0.000815395,-2.49124,-1.24366,-0.0474408,-5.96542,0.2527023,
2,1,0,1,0,7088.59,0.254494,0.254215,3.22085,4,0.0169079,10,0.000818786,-2.49203,-1.8218,-0.0323855,-4.06527,0.254215,
2,1,0,1,0,7088.61,0.25599,0.255705,3.20878,4,0.0169682,10,0.000820501,-2.49366,-7.17658,-0.00822118,-1.03028,0.255705,
2,1,0,1,0,7088.63,0.257487,0.257173,3.19994,4,0.0170283,10,0.00082294,-2.49486,-3.96689,-0.0148731,-1.86087,0.257173,
2,1,0,1,0,7088.65,0.25899,0.258704,3.19529,4,0.0170887,10,0.000826635,-2.49549,-2.86817,-0.0205706,-2.56444,0.258704,
2,1,0,1,0,7088.67,0.260479,0.260209,3.18927,4,0.0171484,10,0.000829875,-2.49631,-1.80641,-0.0326614,-4.06972,0.260209,
2,1,0,1,0,7088.68,0.261983,0.261734,3.17664,4,0.0172085,10,0.000831434,-2.49803,-2.05412,-0.0287228,-3.5679,0.261734,
2,1,0,1,0,7088.7,0.263486,0.26319,3.17105,4,0.0172684,10,0.000834589,-2.4988,-2.22237,-0.0265482,-3.28949,0.26319,
2,1,0,1,0,7088.72,0.264974,0.264683,3.16271,4,0.0173276,10,0.000837116,-2.49994,-1.4056,-0.0419751,-5.19174,0.264683,
2,1,0,1,0,7088.74,0.266477,0.266201,3.16188,4,0.0173874,10,0.000841696,-2.50005,-0.994528,-0.0593246,-7.31159,0.266201,
2,1,0,1,0,7088.76,0.267981,0.267707,3.14565,4,0.0174469,10,0.000842112,-2.50229,-1.09251,-0.0540041,-6.64939,0.267707,
2,1,0,1,0,7088.78,0.26947,0.269169,3.14859,4,0.0175057,10,0.000847503,-2.50188,-1.5389,-0.038339,-4.71357,0.269169,
2,1,0,1,0,7088.8,0.270974,0.270688,3.15063,4,0.0175651,10,0.000852838,-2.5016,-1.09508,-0.0538775,-6.60787,0.270688,
2,1,0,1,0,7088.82,0.27247,0.272165,3.14061,4,0.0176241,10,0.000854764,-2.50299,-1.01537,-0.058107,-7.10186,0.272165,
2,1,0,1,0,7088.83,0.273967,0.27368,3.13245,4,0.0176829,10,0.000857287,-2.50412,-1.15338,-0.051154,-6.25604,0.27368,
2,1,0,1,0,7088.85,0.27547,0.275167,3.12417,4,0.0177418,10,0.00085967,-2.50526,-2.16446,-0.0272585,-3.32317,0.275167,
2,1,0,1,0,7088.87,0.276959,0.276686,3.12047,4,0.0178,10,0.00086339,-2.50578,-3.54695,-0.016634,-2.02313,0.276686,
2,1,0,1,0,7088.89,0.278463,0.278145,3.10852,4,0.0178588,10,0.00086462,-2.50745,-1.76555,-0.0334173,-4.05317,0.278145,
2,1,0,1,0,7088.91,0.279967,0.279692,3.1019,4,0.0179174,10,0.000867575,-2.50837,-2.46948,-0.0238917,-2.89391,0.279692,
2,1,0,1,0,7088.93,0.281454,0.281142,3.08828,4,0.0179752,10,0.000868247,-2.51028,-2.47678,-0.0238213,-2.87528,0.281142,
2,1,0,1,0,7088.95,0.282958,0.282691,3.085,4,0.0180335,10,0.000872101,-2.51075,-3.50944,-0.0168118,-2.02409,0.282691,
2,1,0,1,0,7088.97,0.284461,0.284151,3.08057,4,0.0180918,10,0.000875347,-2.51137,-2.36798,-0.0249158,-2.99606,0.284151,
2,1,0,1,0,7088.98,0.28595,0.285662,3.072,4,0.0181493,10,0.000877552,-2.51258,-1.11133,-0.0530895,-6.37008,0.285662,
2,1,0,1,0,7089,0.287454,0.287129,3.05854,4,0.0182073,10,0.000878196,-2.51449,-1.11399,-0.0529628,-6.34732,0.287129,
2,1,0,1,0,7089.02,0.28895,0.288686,3.0573,4,0.0182648,10,0.000882599,-2.51466,-1.43504,-0.041114,-4.9121,0.288686,
2,1,0,1,0,7089.04,0.290447,0.290168,3.05656,4,0.0183222,10,0.000886916,-2.51477,-1.46029,-0.0404028,-4.82096,0.290168,
2,1,0,1,0,7089.06,0.29195,0.291649,3.04709,4,0.0183798,10,0.000888679,-2.51611,-0.938424,-0.0628713,-7.47379,0.2916486,
2,1,0,1,0,7089.08,0.29344,0.293166,3.03733,4,0.0184367,10,0.000890442,-2.51751,-1.17995,-0.0500021,-5.93504,0.2931664,
2,1,0,1,0,7089.1,0.294943,0.294658,3.04371,4,0.018494,10,0.000896853,-2.5166,-1.59843,-0.0369112,-4.37436,0.294658,
2,1,0,1,0,7089.12,0.296447,0.296133,3.03652,4,0.0185512,10,0.000899213,-2.51762,-2.20045,-0.0268127,-3.16915,0.296133,
2,1,0,1,0,7089.13,0.297934,0.297657,3.0283,4,0.0186078,10,0.000901396,-2.5188,-1.50425,-0.0392223,-4.63461,0.297657,
2,1,0,1,0,7089.15,0.299438,0.299177,3.02111,4,0.0186648,10,0.000903849,-2.51983,-0.0220235,-2.67896,-280.254,0.2991772,
2,1,0,1,0,7089.16,0.300012,0.299785,3.02607,4,0.018686,10,0.000907168,-2.51912,0.000820005,71.9508,3748.94,0.299785,
2,1,0,1,0,7089.18,0.298737,0.298489,0.886427,4,0.0187136,10,0.000264589,-3.05236,0.0034425,17.1387,1029.74,0.298489,
2,0,0,1,0,7089.19,0.29724,0.296958,-0.141027,4,0.018719,10,-4.1879e-05,-3.8507,0.0127208,4.63806,549.907,0.296958,
2,0,0,1,0,7089.21,0.295744,0.295465,-0.617028,4,0.0187112,10,-0.00018231,-3.2097,-0.00435561,-13.5457,255.678,0.295465,
2,0,0,1,0,7089.23,0.29424,0.293975,-0.870594,4,0.0186967,10,-0.000255933,-3.06018,-0.012464,-4.73361,137.281,0.293975,
2,0,0,1,0,7089.25,0.292751,0.292461,-1.01242,4,0.0186789,10,-0.000296094,-2.99464,-0.0254515,-2.31813,87.7613,0.292461,
2,0,0,1,0,7089.27,0.291248,0.290922,-1.12874,4,0.0186585,10,-0.000328375,-2.94741,-0.0393475,-1.49946,64.6406,0.290922,
2,0,0,1,0,7089.29,0.289744,0.289437,-1.21825,4,0.0186363,10,-0.000352608,-2.91426,-0.0530299,-1.11258,51.8757,0.289437,
2,0,0,1,0,7089.31,0.288257,0.287917,-1.28505,4,0.0186128,10,-0.000369989,-2.89108,-0.0696702,-0.846847,41.9052,0.287917,
2,0,0,1,0,7089.33,0.286753,0.286433,-1.34365,4,0.0185879,10,-0.000384865,-2.87171,-0.0833566,-0.707802,36.99,0.286433,
2,0,0,1,0,7089.34,0.285249,0.284932,-1.40226,4,0.018562,10,-0.000399548,-2.85317,-0.0893369,-0.660421,35.9157,0.284932,
2,0,0,1,0,7089.36,0.28376,0.283443,-1.44854,4,0.0185354,10,-0.00041058,-2.83907,-0.100475,-0.58721,33.0085,0.283443,
2,0,0,1,0,7089.38,0.282257,0.281933,-1.49805,4,0.0185075,10,-0.000422348,-2.82448,-0.1161,-0.508182,29.5572,0.281933,
2,0,0,1,0,7089.4,0.28076,0.280458,-1.53649,4,0.018479,10,-0.000430919,-2.81347,-0.122435,-0.48189,28.8089,0.280458,
2,0,0,1,0,7089.42,0.279264,0.27895,-1.56657,4,0.0184499,10,-0.000436994,-2.80505,-0.136626,-0.431837,26.4533,0.27895,
2,0,0,1,0,7089.44,0.27776,0.27747,-1.60669,4,0.0184198,10,-0.000445809,-2.79407,-0.145405,-0.405764,25.4183,0.27747,
2,0,0,1,0,7089.46,0.276271,0.275992,-1.64701,4,0.0183893,10,-0.000454563,-2.7833,-0.152489,-0.386914,24.7634,0.275992,
2,0,0,1,0,7089.48,0.274767,0.274498,-1.67762,4,0.0183579,10,-0.000460502,-2.77531,-0.184838,-0.319199,20.843,0.274498,
2,0,0,1,0,7089.49,0.273264,0.272928,-1.70392,4,0.0183259,10,-0.000465047,-2.76855,-0.187109,-0.315325,20.9833,0.2729277,
2,0,0,1,0,7089.51,0.271776,0.271459,-1.73196,4,0.0182937,10,-0.000470156,-2.76146,-0.180913,-0.326123,22.12,0.271459,
2,0,0,1,0,7089.53,0.270273,0.269946,-1.76447,4,0.0182606,10,-0.000476311,-2.75339,-0.241681,-0.244124,16.8329,0.269946,
2,0,0,1,0,7089.55,0.268769,0.268468,-1.79591,4,0.0182269,10,-0.000482144,-2.74572,-0.262792,-0.224512,15.6833,0.268468,
2,0,0,1,0,7089.57,0.26728,0.266943,-1.81859,4,0.0181931,10,-0.000485461,-2.74026,-0.288681,-0.204378,14.5191,0.2669428,
2,0,0,1,0,7089.59,0.265777,0.265502,-1.8487,4,0.0181585,10,-0.000490834,-2.73313,-0.271759,-0.217104,15.6346,0.265502,
2,0,0,1,0,7089.61,0.26428,0.263989,-1.87428,4,0.0181235,10,-0.000494789,-2.72717,-0.278471,-0.211872,15.4529,0.263989,
2,0,0,1,0,7089.62,0.262784,0.262516,-1.89921,4,0.0180881,10,-0.000498572,-2.72143,-0.336481,-0.175344,12.9428,0.262516,
2,0,0,1,0,7089.64,0.26128,0.260985,-1.91815,4,0.0180521,10,-0.000500608,-2.71712,-0.312244,-0.188955,14.1358,0.260985,
2,0,0,1,0,7089.66,0.259791,0.259494,-1.93862,4,0.0180161,10,-0.00050306,-2.71251,-0.269736,-0.218732,16.6208,0.259494,
2,0,0,1,0,7089.68,0.258287,0.257998,-1.96802,4,0.0179792,10,-0.000507746,-2.70597,-0.24863,-0.2373,18.1881,0.257998,
2,0,0,1,0,7089.7,0.256786,0.256477,-1.98419,4,0.0179419,10,-0.0005089,-2.70242,-0.300692,-0.196214,15.1922,0.256477,
2,0,0,1,0,7089.72,0.255296,0.254968,-2.00507,4,0.0179046,10,-0.000511228,-2.69787,-0.322323,-0.183046,14.304,0.254968,
2,0,0,1,0,7089.74,0.253793,0.25347,-2.01928,4,0.0178666,10,-0.000511827,-2.6948,-0.314948,-0.187333,14.7998,0.25347,
2,0,0,1,0,7089.76,0.252289,0.251928,-2.04129,4,0.0178281,10,-0.000514258,-2.6901,-0.328716,-0.179486,14.2914,0.251928,
2,0,0,1,0,7089.77,0.2508,0.250485,-2.06016,4,0.0177897,10,-0.000516038,-2.6861,-0.354979,-0.166207,13.3969,0.250485,
2,0,0,1,0,7089.79,0.249296,0.248983,-2.07774,4,0.0177505,10,-0.000517321,-2.68241,-0.453553,-0.130084,10.5894,0.248983,
2,0,0,1,0,7089.81,0.2478,0.247494,-2.10008,4,0.0177112,10,-0.000519755,-2.67776,-0.441753,-0.133559,10.9754,0.247494,
2,0,0,1,0,7089.83,0.246304,0.246019,-2.11661,4,0.0176716,10,-0.000520728,-2.67436,-0.419403,-0.140676,11.6491,0.246019,
2,0,0,1,0,7089.85,0.2448,0.244504,-2.14471,4,0.0176313,10,-0.000524391,-2.66863,-0.532569,-0.110784,9.26732,0.244504,
2,0,0,1,0,7089.87,0.243313,0.242989,-2.16235,4,0.017591,10,-0.000525427,-2.66507,-0.52547,-0.11228,9.45231,0.242989,
2,0,0,1,0,7089.89,0.241809,0.241468,-2.17367,4,0.0175501,10,-0.000524873,-2.66281,-0.484028,-0.121894,10.3534,0.241468,
2,0,0,1,0,7089.91,0.240306,0.240012,-2.19587,4,0.0175088,10,-0.000527034,-2.65839,-0.462392,-0.127597,10.9212,0.2400116,
2,0,0,1,0,7089.92,0.238816,0.238523,-2.22345,4,0.0174677,10,-0.000530343,-2.65297,-0.477095,-0.123665,10.6645,0.238523,
2,0,0,1,0,7089.94,0.237313,0.237057,-2.23357,4,0.0174257,10,-0.000529483,-2.651,-0.435735,-0.135403,11.7686,0.237057,
2,0,0,1,0,7089.96,0.235809,0.235498,-2.24727,4,0.0173835,10,-0.00052923,-2.64834,-0.42318,-0.139421,12.227,0.2354985,
2,0,0,1,0,7089.98,0.23432,0.234046,-2.2677,4,0.0173414,10,-0.000530747,-2.64441,-0.375432,-0.157152,13.8966,0.234046,
2,0,0,1,0,7090,0.232816,0.232463,-2.28502,4,0.0172985,10,-0.000531181,-2.64111,-0.330306,-0.178622,15.8953,0.232463,
2,0,0,1,0,7090.02,0.23132,0.230999,-2.29815,4,0.0172555,10,-0.00053087,-2.63862,-0.42997,-0.137219,12.3021,0.230999,
2,0,0,1,0,7090.04,0.229824,0.22945,-2.31702,4,0.0172121,10,-0.000531641,-2.63507,-0.43537,-0.135517,12.2413,0.22945,
2,0,0,1,0,7090.06,0.22832,0.228036,-2.32022,4,0.0171683,10,-0.000529095,-2.63447,-0.48354,-0.122017,11.1197,0.228036,
2,0,0,1,0,7090.07,0.226833,0.226565,-2.34324,4,0.0171246,10,-0.000530894,-2.63018,-0.452234,-0.130463,11.9392,0.2265646,
2,0,0,1,0,7090.09,0.225329,0.22503,-2.35961,4,0.0170801,10,-0.000530984,-2.62716,-0.524016,-0.112592,10.4024,0.22503,
2,0,0,1,0,7090.11,0.223825,0.223486,-2.37304,4,0.0170352,10,-0.00053034,-2.6247,-0.755909,-0.0780517,7.2469,0.223486,
2,0,0,1,0,7090.13,0.222336,0.22203,-2.39454,4,0.0169906,10,-0.000531658,-2.62078,-0.714298,-0.0825986,7.74203,0.22203,
2,0,0,1,0,7090.15,0.220833,0.220531,-2.41358,4,0.0169453,10,-0.00053227,-2.61734,-0.516672,-0.114192,10.7811,0.220531,
2,0,0,1,0,7090.17,0.219329,0.219021,-2.44468,4,0.0168995,10,-0.000535438,-2.61178,-0.491449,-0.120053,11.4009,0.219021,
2,0,0,1,0,7090.19,0.21784,0.217546,-2.45927,4,0.0168538,10,-0.000535003,-2.60919,-0.646344,-0.0912826,8.71946,0.217546,
2,0,0,1,0,7090.21,0.216336,0.216013,-2.4732,4,0.0168073,10,-0.000534243,-2.60674,-0.58857,-0.100243,9.6557,0.216013,
2,0,0,1,0,7090.22,0.21484,0.21451,-2.48736,4,0.0167609,10,-0.000533564,-2.60426,-0.471743,-0.125068,12.1498,0.21451,
2,0,0,1,0,7090.24,0.213343,0.213062,-2.50555,4,0.0167142,10,-0.000533837,-2.6011,-0.381296,-0.154735,15.1081,0.213062,
2,0,0,1,0,7090.26,0.21184,0.21154,-2.52681,4,0.0166667,10,-0.000534521,-2.59743,-0.429451,-0.137385,13.4869,0.2115398,
2,0,0,1,0,7090.28,0.210352,0.21005,-2.54076,4,0.0166195,10,-0.000533688,-2.59504,-0.422336,-0.139699,13.8299,0.21005,
2,0,0,1,0,7090.3,0.208849,0.208545,-2.54716,4,0.0165715,10,-0.000531199,-2.59394,-0.380852,-0.154916,15.4557,0.208545,
2,0,0,1,0,7090.32,0.207345,0.20707,-2.57186,4,0.0165232,10,-0.000532556,-2.58975,-0.364502,-0.161865,16.2682,0.20707,
2,0,0,1,0,7090.34,0.205856,0.205586,-2.60318,4,0.0164748,10,-0.000535178,-2.5845,-0.410776,-0.14363,14.512,0.205586,
2,0,0,1,0,7090.36,0.204353,0.204064,-2.6106,4,0.0164256,10,-0.00053273,-2.58326,-0.686121,-0.0859906,8.77612,0.204064,
2,0,0,1,0,7090.37,0.202849,0.202528,-2.62061,4,0.0163762,10,-0.000530746,-2.5816,-0.552381,-0.10681,10.979,0.2025279,
2,0,0,1,0,7090.39,0.20136,0.201011,-2.64619,4,0.0163269,10,-0.000531913,-2.57738,-0.445382,-0.132471,13.7015,0.201011,
2,0,0,1,0,7090.41,0.199856,0.199583,-2.66721,4,0.0162767,10,-0.000532329,-2.57394,-0.558037,-0.105728,11.0226,0.199583,
2,0,0,1,0,7090.43,0.19836,0.19802,-2.68963,4,0.0162264,10,-0.0005326,-2.57031,-0.578898,-0.101918,10.7003,0.19802,
2,0,0,1,0,7090.45,0.196863,0.196558,-2.71058,4,0.0161757,10,-0.000532786,-2.56694,-0.52238,-0.112944,11.9508,0.196558,
2,0,0,1,0,7090.47,0.19536,0.195046,-2.73492,4,0.0161244,10,-0.000533437,-2.56305,-0.448377,-0.131586,14.0491,0.195046,
2,0,0,1,0,7090.49,0.193872,0.193557,-2.76347,4,0.0160732,10,-0.00053489,-2.55855,-0.378773,-0.155766,16.7509,0.193557,
2,0,0,1,0,7090.51,0.192369,0.192027,-2.78423,4,0.016021,10,-0.000534647,-2.55529,-0.422876,-0.139521,15.1294,0.192027,
2,0,0,1,0,7090.52,0.190865,0.190534,-2.80032,4,0.0159683,10,-0.000533557,-2.55279,-0.372653,-0.158324,17.3281,0.190534,
2,0,0,1,0,7090.54,0.189376,0.18903,-2.83154,4,0.0159158,10,-0.000535246,-2.54798,-0.406896,-0.145,16.0186,0.18903,
2,0,0,1,0,7090.56,0.187872,0.18755,-2.85418,4,0.0158623,10,-0.000535302,-2.54452,-0.316468,-0.186433,20.735,0.18755,
2,0,0,1,0,7090.58,0.186369,0.186058,-2.87471,4,0.0158082,10,-0.000534862,-2.54141,-0.298197,-0.197856,22.2228,0.186058,
2,0,0,1,0,7090.6,0.18488,0.184573,-2.90491,4,0.0157543,10,-0.000536166,-2.53687,-0.347922,-0.169578,19.2312,0.1845725,
2,0,0,1,0,7090.62,0.183376,0.183054,-2.93159,4,0.0156992,10,-0.00053664,-2.5329,-0.341485,-0.172775,19.8062,0.183054,
2,0,0,1,0,7090.64,0.18188,0.181589,-2.95888,4,0.0156439,10,-0.000537302,-2.52887,-0.304129,-0.193997,22.4305,0.181589,
2,0,0,1,0,7090.65,0.180383,0.180043,-2.99774,4,0.015588,10,-0.000539722,-2.52321,-0.322034,-0.18321,21.4388,0.180043,
2,0,0,1,0,7090.67,0.17888,0.178577,-3.03041,4,0.0155311,10,-0.00054116,-2.5185,-0.335629,-0.175789,20.8067,0.178577,
2,0,0,1,0,7090.69,0.177392,0.177071,-3.058,4,0.0154742,10,-0.000541482,-2.51456,-0.301917,-0.195418,23.4121,0.177071,
2,0,0,1,0,7090.71,0.175889,0.175579,-3.10111,4,0.0154161,10,-0.00054449,-2.50848,-0.287935,-0.204908,24.8139,0.175579,
2,0,0,1,0,7090.73,0.174385,0.174091,-3.14917,4,0.0153572,10,-0.000548242,-2.5018,-0.283766,-0.207918,25.5386,0.174091,
2,0,0,1,0,7090.75,0.172896,0.172565,-3.18957,4,0.0152981,10,-0.000550406,-2.49627,-0.285083,-0.206957,25.7224,0.172565,
2,0,0,1,0,7090.77,0.171392,0.171078,-3.23292,4,0.0152376,10,-0.000553082,-2.49041,-0.256618,-0.229914,29.0266,0.171078,
2,0,0,1,0,7090.79,0.169889,0.169576,-3.28854,4,0.0151762,10,-0.000557658,-2.483,-0.21904,-0.269357,34.5616,0.169576,
2,0,0,1,0,7090.8,0.1684,0.168083,-3.34349,4,0.0151145,10,-0.000561983,-2.4758,-0.204154,-0.288997,37.5936,0.168083,
2,0,0,1,0,7090.82,0.166896,0.166564,-3.40089,4,0.0150511,10,-0.000566465,-2.46841,-0.202556,-0.291277,38.5374,0.166564,
2,0,0,1,0,7090.84,0.165392,0.165095,-3.45072,4,0.0149865,10,-0.000569698,-2.46209,-0.180378,-0.327091,44.1214,0.165095,
2,0,0,1,0,7090.86,0.163905,0.163614,-3.5101,4,0.0149217,10,-0.000574301,-2.45468,-0.170336,-0.346375,47.6177,0.163614,
2,0,0,1,0,7090.88,0.162401,0.16209,-3.58324,4,0.0148547,10,-0.000580809,-2.44572,-0.158976,-0.371126,52.0409,0.16209,
2,0,0,1,0,7090.9,0.160905,0.160596,-3.65445,4,0.0147868,10,-0.000586891,-2.43718,-0.153948,-0.383246,54.8075,0.160596,
2,0,0,1,0,7090.92,0.159409,0.159081,-3.74667,4,0.0147173,10,-0.000596024,-2.42635,-0.146213,-0.403522,59.029,0.159081,
2,0,0,1,0,7090.94,0.157905,0.157583,-3.8307,4,0.0146458,10,-0.000603654,-2.41672,-0.140129,-0.42104,63.1776,0.157583,
2,0,0,1,0,7090.95,0.156416,0.156109,-3.9302,4,0.0145734,10,-0.000613541,-2.40559,-0.129223,-0.456576,70.2675,0.156109,
2,0,0,1,0,7090.97,0.154912,0.154582,-4.04802,4,0.0144982,10,-0.000625751,-2.39276,-0.126197,-0.467522,73.9485,0.154582,
2,0,0,1,0,7090.99,0.153409,0.153102,-4.16392,4,0.0144207,10,-0.000637505,-2.3805,-0.121163,-0.486947,79.2765,0.153102,
2,0,0,1,0,7091.01,0.151919,0.151621,-4.29241,4,0.0143419,10,-0.00065082,-2.3673,-0.111394,-0.529651,88.9845,0.151621,
2,0,0,1,0,7091.03,0.150416,0.150108,-4.43822,4,0.0142597,10,-0.000666213,-2.35279,-0.102549,-0.575336,99.8155,0.150108,
2,0,0,1,0,7091.05,0.148912,0.148608,-4.59643,4,0.0141746,10,-0.000683068,-2.33758,-0.0986131,-0.598298,107.42,0.148608,
2,0,0,1,0,7091.07,0.147425,0.147102,-4.76232,4,0.0140874,10,-0.000700547,-2.32218,-0.0952519,-0.61941,115.205,0.147102,
2,0,0,1,0,7091.09,0.145921,0.145625,-4.9349,4,0.0139961,10,-0.000718647,-2.30672,-0.0890989,-0.662186,127.957,0.1456255,
2,0,0,1,0,7091.1,0.144425,0.144093,-5.14148,4,0.0139017,10,-0.000740851,-2.28891,-0.0857627,-0.687944,138.27,0.144093,
2,0,0,1,0,7091.12,0.142929,0.142631,-5.3552,4,0.0138035,10,-0.000763819,-2.27122,-0.0819517,-0.719936,150.543,0.142631,
2,0,0,1,0,7091.14,0.141425,0.141111,-5.58256,4,0.0137005,10,-0.00078776,-2.25317,-0.083851,-0.703629,153.181,0.141111,
2,0,0,1,0,7091.16,0.139936,0.139614,-5.81176,4,0.0135943,10,-0.000811405,-2.23569,-0.0833578,-0.707792,160.63,0.139614,
2,0,0,1,0,7091.18,0.138432,0.13816,-6.0466,4,0.0134827,10,-0.000835399,-2.21849,-0.0833185,-0.708126,167.558,0.13816,
2,0,0,1,0,7091.2,0.136929,0.136633,-6.30937,4,0.0133662,10,-0.000862065,-2.20001,-0.0827214,-0.713237,175.581,0.136633,
2,0,0,1,0,7091.22,0.135439,0.135095,-6.57201,4,0.0132462,10,-0.000887849,-2.1823,-0.0888456,-0.664073,169.97,0.135095,
2,0,0,1,0,7091.24,0.133936,0.133634,-6.81475,4,0.0131201,10,-0.000910684,-2.16655,-0.0922586,-0.639506,170.292,0.133634,
2,0,0,1,0,7091.25,0.132432,0.132124,-7.08521,4,0.0129892,10,-0.000936128,-2.14965,-0.0948869,-0.621793,171.802,0.1321243,
2,0,0,1,0,7091.27,0.130945,0.130629,-7.3436,4,0.0128547,10,-0.000959288,-2.13409,-0.0977414,-0.603633,172.89,0.130629,
2,0,0,1,0,7091.29,0.129441,0.129115,-7.60483,4,0.012714,10,-0.000981895,-2.11891,-0.104952,-0.562162,166.512,0.129115,
2,0,0,1,0,7091.31,0.127945,0.12766,-7.84574,4,0.0125692,10,-0.00100159,-2.10537,-0.115231,-0.512016,156.449,0.12766,
2,0,0,1,0,7091.33,0.126448,0.12614,-8.07344,4,0.0124201,10,-0.00101839,-2.09294,-0.124242,-0.474878,149.437,0.12614,
2,0,0,1,0,7091.35,0.124945,0.124648,-8.30018,4,0.012266,10,-0.0010346,-2.08091,-0.133215,-0.442894,143.158,0.124648,
2,0,0,1,0,7091.37,0.123456,0.123152,-8.51383,4,0.0121096,10,-0.00104849,-2.06987,-0.150471,-0.392103,129.863,0.123152,
2,0,0,1,0,7091.39,0.121952,0.121681,-8.70094,4,0.0119476,10,-0.00105874,-2.06043,-0.163609,-0.360615,122.082,0.121681,
2,0,0,1,0,7091.4,0.120449,0.120127,-8.86573,4,0.0117823,10,-0.00106501,-2.05229,-0.181895,-0.324362,112.088,0.120127,
2,0,0,1,0,7091.42,0.118959,0.118674,-9.02936,4,0.0116157,10,-0.00107155,-2.04434,-0.204433,-0.288604,101.542,0.118674,
2,0,0,1,0,7091.44,0.117456,0.117157,-9.17716,4,0.0114444,10,-0.00107517,-2.03729,-0.219624,-0.268641,95.9645,0.117157,
2,0,0,1,0,7091.46,0.115952,0.115664,-9.3058,4,0.0112705,10,-0.00107635,-2.03125,-0.261264,-0.225825,81.7864,0.115664,
2,0,0,1,0,7091.48,0.114465,0.114157,-9.41678,4,0.0110962,10,-0.001075,-2.0261,-0.305668,-0.19302,70.8293,0.114157,
2,0,0,1,0,7091.5,0.112961,0.112638,-9.49547,4,0.0109182,10,-0.00106955,-2.02248,-0.363791,-0.162181,60.1039,0.112638,
2,0,0,1,0,7091.52,0.111465,0.111124,-9.58478,4,0.0107394,10,-0.0010651,-2.01842,-0.452507,-0.130385,48.7022,0.111124,
2,0,0,1,0,7091.54,0.109968,0.109639,-9.64835,4,0.0105593,10,-0.00105784,-2.01555,-0.613738,-0.0961323,36.1515,0.109639,
2,0,0,1,0,7091.55,0.108465,0.108113,-9.69345,4,0.0103771,10,-0.00104799,-2.01352,-1.03234,-0.0571514,21.5999,0.1081128,
2,0,0,1,0,7091.57,0.106976,0.106659,-9.71984,4,0.0101963,10,-0.00103671,-2.01234,-1.9259,-0.030635,11.6151,0.106659,
2,0,0,1,0,7091.59,0.105472,0.105152,-9.73811,4,0.0100131,10,-0.00102398,-2.01153,-4.88295,-0.0120828,4.5897,0.105152,
2,0,0,1,0,7091.61,0.103968,0.103672,-9.75202,4,0.00982968,10,-0.00101101,-2.01091,4.60525,0.0128115,-4.86731,0.103672,
2,0,0,1,0,7091.63,0.102479,0.10218,-9.73784,4,0.00964828,10,-0.000995016,-2.01154,1.31337,0.0449225,-17.0416,0.10218,
2,0,0,1,0,7091.65,0.100976,0.100663,-9.70576,4,0.00946538,10,-0.000977007,-2.01297,0.899022,0.0656269,-24.8201,0.1006626,
2,0,0,1,0,7091.67,0.0994721,0.0991786,-9.66102,4,0.00928321,10,-0.000958166,-2.01498,0.711527,0.0829202,-31.2235,0.0991786,
2,0,0,1,0,7091.68,0.0979846,0.0976502,-9.60829,4,0.00910387,10,-0.000938251,-2.01735,0.573176,0.102935,-38.5548,0.0976502,
2,0,0,1,0,7091.7,0.0964811,0.0962067,-9.5417,4,0.00892372,10,-0.000917976,-2.02037,0.439167,0.134345,-49.9347,0.09620674,
2,0,0,1,0,7091.72,0.0949847,0.0946324,-9.45161,4,0.0087459,10,-0.000894429,-2.02449,0.387075,0.152425,-56.1738,0.0946324,
2,0,0,1,0,7091.74,0.0934883,0.0931811,-9.35691,4,0.00856986,10,-0.000871887,-2.02887,0.342821,0.172101,-62.8439,0.0931811,
2,0,0,1,0,7091.76,0.0919847,0.0916841,-9.25306,4,0.00839469,10,-0.000848358,-2.03371,0.312168,0.189001,-68.2272,0.0916841,
2,0,0,1,0,7091.78,0.0904955,0.0902068,-9.14987,4,0.00822327,10,-0.000825381,-2.03859,0.289052,0.204115,-72.8205,0.0902068,
2,0,0,1,0,7091.8,0.0889919,0.0886993,-9.03101,4,0.00805214,10,-0.000801044,-2.04426,0.262533,0.224733,-79.1923,0.0886993,
2,0,0,1,0,7091.82,0.0874884,0.0871532,-8.90595,4,0.00788333,10,-0.000776183,-2.05032,0.250555,0.235477,-81.8837,0.0871532,
2,0,0,1,0,7091.83,0.0860009,0.0856958,-8.78736,4,0.00771853,10,-0.00075304,-2.05614,0.261054,0.226006,-77.5436,0.0856958,
2,0,0,1,0,7091.85,0.0844973,0.0841599,-8.67222,4,0.0075542,10,-0.000729853,-2.06187,0.257795,0.228864,-77.5055,0.0841599,
2,0,0,1,0,7091.87,0.0829938,0.082651,-8.56092,4,0.00739199,10,-0.000707568,-2.06748,0.257571,0.229063,-76.5491,0.082651,
2,0,0,1,0,7091.89,0.0815045,0.0812038,-8.44394,4,0.00723366,10,-0.00068568,-2.07345,0.2646,0.222978,-73.5674,0.0812038,
2,0,0,1,0,7091.91,0.080001,0.0796785,-8.34133,4,0.00707565,10,-0.000664625,-2.07876,0.289644,0.203698,-66.3778,0.0796785,
2,0,0,1,0,7091.93,0.0785046,0.0781683,-8.26321,4,0.00692027,10,-0.000645921,-2.08285,0.306307,0.192617,-62.0691,0.0781683,
2,0,0,1,0,7091.95,0.0770082,0.0766869,-8.16969,4,0.0067666,10,-0.000626508,-2.08779,0.308458,0.191274,-60.9611,0.0766869,
2,0,0,1,0,7091.97,0.0755046,0.0751937,-8.08284,4,0.00661373,10,-0.000607779,-2.09244,0.346391,0.170328,-53.7416,0.0751937,
2,0,0,1,0,7091.98,0.0740154,0.073712,-8.0087,4,0.00646406,10,-0.000590337,-2.09644,0.383136,0.153992,-48.1487,0.073712,
2,0,0,1,0,7092,0.0725118,0.0721836,-7.94096,4,0.0063141,10,-0.000573208,-2.10013,0.435753,0.135398,-41.941,0.0721836,
2,0,0,1,0,7092.02,0.0710083,0.0706645,-7.87231,4,0.00616534,10,-0.000556292,-2.1039,0.442333,0.133384,-40.9746,0.0706645,
2,0,0,1,0,7092.04,0.0695208,0.0692507,-7.80289,4,0.00601934,10,-0.000540355,-2.10774,0.494356,0.119347,-36.39,0.0692507,
2,0,0,1,0,7092.06,0.0680173,0.0677097,-7.74469,4,0.005873,10,-0.000524391,-2.111,0.542143,0.108827,-32.962,0.0677097,
2,0,0,1,0,7092.08,0.0665137,0.0662315,-7.69222,4,0.00572762,10,-0.000509467,-2.11395,0.566555,0.104138,-31.2988,0.0662315,
2,0,0,1,0,7092.1,0.0650244,0.0646793,-7.64526,4,0.00558463,10,-0.00049449,-2.11661,0.518543,0.11378,-33.9599,0.0646793,
2,0,0,1,0,7092.12,0.0635209,0.0632286,-7.59739,4,0.00544106,10,-0.000480372,-2.11934,0.491352,0.120077,-35.6278,0.0632286,
2,0,0,1,0,7092.13,0.0620245,0.0616943,-7.54564,4,0.00529925,10,-0.000465523,-2.1223,0.492691,0.119751,-35.31,0.0616943,
2,0,0,1,0,7092.15,0.0605281,0.0602135,-7.49943,4,0.00515837,10,-0.000451567,-2.12497,0.545983,0.108062,-31.6486,0.0602135,
2,0,0,1,0,7092.17,0.0590246,0.0587025,-7.45419,4,0.00501757,10,-0.00043758,-2.1276,0.526697,0.112019,-32.6039,0.0587025,
2,0,0,1,0,7092.19,0.0575353,0.0571739,-7.41784,4,0.00487907,10,-0.000424107,-2.12972,0.495745,0.119013,-34.4111,0.0571739,
2,0,0,1,0,7092.21,0.0560317,0.0556987,-7.35977,4,0.00474005,10,-0.000409929,-2.13314,0.481244,0.122599,-35.2406,0.0556987,
2,0,0,1,0,7092.23,0.0545282,0.0541901,-7.32102,4,0.00460191,10,-0.000396727,-2.13543,0.583975,0.101032,-28.8429,0.0541901,
2,0,0,1,0,7092.25,0.0530407,0.052764,-7.27596,4,0.00446609,10,-0.000383909,-2.13811,0.576115,0.10241,-29.0788,0.052764,
2,0,0,1,0,7092.27,0.0515372,0.0512036,-7.23187,4,0.00432958,10,-0.000370298,-2.14075,0.533413,0.110608,-31.1771,0.05120362,
2,0,0,1,0,7092.28,0.0500336,0.0497499,-7.17838,4,0.00419396,10,-0.000357124,-2.14397,0.51447,0.114681,-32.1152,0.0497499,
2,0,0,1,0,7092.3,0.0485444,0.0482096,-7.12888,4,0.00406083,10,-0.000343681,-2.14698,0.511379,0.115374,-32.1057,0.0482096,
2,0,0,1,0,7092.32,0.0470408,0.0467345,-7.07586,4,0.00392716,10,-0.000330686,-2.15022,0.542038,0.108849,-30.055,0.0467345,
2,0,0,1,0,7092.34,0.0455444,0.0452071,-7.02484,4,0.00379507,10,-0.000317573,-2.15336,0.48008,0.122896,-33.6742,0.0452071,
2,0,0,1,0,7092.36,0.044048,0.0437664,-6.97218,4,0.00366392,10,-0.000305147,-2.15663,0.460937,0.128,-34.8471,0.0437664,
2,0,0,1,0,7092.38,0.0425445,0.0422329,-6.91557,4,0.00353317,10,-0.000292065,-2.16017,0.463784,0.127214,-34.3747,0.0422329,
2,0,0,1,0,7092.4,0.0410552,0.0407502,-6.86475,4,0.00340478,10,-0.00027974,-2.16338,0.434175,0.13589,-36.4147,0.0407502,
2,0,0,1,0,7092.42,0.0395517,0.0392379,-6.81898,4,0.00327593,10,-0.000267563,-2.16628,0.416863,0.141533,-37.6251,0.0392379,
2,0,0,1,0,7092.43,0.0380481,0.0377375,-6.75875,4,0.00314813,10,-0.000255058,-2.17013,0.374705,0.157457,-41.4882,0.0377375,
2,0,0,1,0,7092.45,0.0365606,0.0362136,-6.69303,4,0.00302286,10,-0.000242379,-2.17438,0.353358,0.166969,-43.6229,0.0362136,
2,0,0,1,0,7092.47,0.0350571,0.0347429,-6.6335,4,0.00289742,10,-0.000230467,-2.17826,0.358402,0.16462,-42.5999,0.0347429,
2,0,0,1,0,7092.49,0.0335535,0.0332288,-6.57118,4,0.00277312,10,-0.000218353,-2.18236,0.347239,0.169912,-43.5508,0.0332288,
2,0,0,1,0,7092.51,0.0320643,0.0317536,-6.50941,4,0.00265137,10,-0.000206697,-2.18646,0.316169,0.186609,-47.3447,0.0317536,
2,0,0,1,0,7092.53,0.0305607,0.0302662,-6.43551,4,0.00252958,10,-0.000194778,-2.19142,0.318599,0.185186,-46.4821,0.0302662,
2,0,0,1,0,7092.55,0.0290643,0.0287749,-6.3709,4,0.00240979,10,-0.000183322,-2.1958,0.328855,0.17941,-44.573,0.0287749,
2,0,0,1,0,7092.57,0.0275679,0.0272344,-6.30314,4,0.00229123,10,-0.000171662,-2.20044,0.338322,0.17439,-42.8537,0.0272344,
2,0,0,1,0,7092.58,0.0260644,0.0257473,-6.23834,4,0.00217324,10,-0.00016062,-2.20493,0.31446,0.187623,-45.5707,0.0257473,
2,0,0,1,0,7092.6,0.0245751,0.0242383,-6.1575,4,0.0020578,10,-0.000149248,-2.2106,0.308968,0.190958,-45.9421,0.02423835,
2,0,0,1,0,7092.62,0.0230716,0.0227819,-6.08744,4,0.00194254,10,-0.000138683,-2.21557,0.323764,0.182231,-43.3555,0.02278192,
2,0,0,1,0,7092.64,0.021568,0.0212519,-6.02117,4,0.00182846,10,-0.000127961,-2.22032,0.339844,0.173609,-40.8161,0.0212519,
2,0,0,1,0,7092.66,0.0200805,0.0197372,-5.95522,4,0.00171681,10,-0.000117539,-2.2251,0.308721,0.191111,-44.4359,0.0197372,
2,0,0,1,0,7092.68,0.018577,0.0182691,-5.89639,4,0.00160517,10,-0.000107722,-2.22941,0.337493,0.174818,-40.2344,0.0182691,
2,0,0,1,0,7092.7,0.0170735,0.0167459,-5.82726,4,0.00149478,10,-9.75828e-05,-2.23454,0.335775,0.175713,-40.0509,0.0167459,
2,0,0,1,0,7092.71,0.0155842,0.0153143,-5.77723,4,0.00138662,10,-8.84745e-05,-2.23828,0.363684,0.162229,-36.6183,0.0153143,
2,0,0,1,0,7092.73,0.0140806,0.0137461,-5.73042,4,0.00127823,10,-7.8771e-05,-2.24181,0.358216,0.164705,-36.8088,0.01374612,
2,0,0,1,0,7092.75,0.0125842,0.0122295,-5.67905,4,0.00117135,10,-6.94521e-05,-2.24572,0.346913,0.170072,-37.7143,0.0122295,
2,0,0,1,0,7092.77,0.0110878,0.0107753,-5.62791,4,0.00106552,10,-6.06426e-05,-2.24965,0.391894,0.150551,-33.0962,0.0107753,
2,0,0,1,0,7092.79,0.00958429,0.00925787,-5.58679,4,0.00095997,10,-5.17218e-05,-2.25284,0.464013,0.127152,-27.7129,0.00925787,
2,0,0,1,0,7092.81,0.0080968,0.00775645,-5.5519,4,0.000856284,10,-4.30631e-05,-2.25556,0.481691,0.122485,-26.5305,0.00775645,
2,0,0,1,0,7092.83,0.00659326,0.00628025,-5.51284,4,0.000752206,10,-3.4622e-05,-2.25862,0.515904,0.114362,-24.6009,0.00628025,
2,0,0,1,0,7092.85,0.00508972,0.00475463,-5.47137,4,0.000648817,10,-2.60143e-05,-2.2619,0.621611,0.0949147,-20.299,0.00475463,
2,0,0,1,0,7092.86,0.00360044,0.00325423,-5.44876,4,0.000547138,10,-1.77315e-05,-2.2637,2.94941,0.020004,-4.27414,0.00325423,
2,0,0,1,0,7092.88,0.0020969,0.00178757,-5.47819,4,0.000444684,10,-9.79266e-06,-2.26136,2.22507,0.026516,-5.62612,0.00178757,
2,0,0,1,0,7092.9,0.000593362,0.000245251,-5.43645,4,0.00034195,10,-1.3333e-06,-2.26468, , , ,0.000245251,
2,0,0,1,0,7092.91,0.000199195,-0.000206982,-5.42553,4,0.000315291,10,1.12299e-06,-2.26556, , , ,-0.000206982,