File: Figure_codes/Fig_3-5/rawdata_trumpetplot_data/after 10th/20221101_1-115_003_TrumpetPlot_ParaChange_from10_every3_03_CV_C01_30.csv
mode,ox/red,error,control changes,counter inc.,time/s,control/V,Ewe/V,<I>/mA,cycle number,(Q-Qo)/C,I Range,P/W,log(|I|),Tafel slope mV/dec,alpha_eff,dI/d(E-IR),E-IR/V,
2,0,0,1,0,60043.9,2.44065e-05,-0.000401673,-0.099394,31,0.0000000E+000,10,3.99239e-08,-4.00264, , , ,-0.000401673,
2,1,0,0,0,60044.2,0.00129787,0.000920654,0.120468,31,1.77734e-05,10,1.1091e-07,-3.91913, , , ,0.000920654,
2,1,0,0,0,60044.5,0.00279606,0.00246249,0.166282,31,6.60326e-05,10,4.09466e-07,-3.77916,0.0124028,4.75701,23.9611,0.00246249,
2,1,0,1,0,60044.8,0.00429469,0.00397304,0.178435,31,0.000121359,10,7.08929e-07,-3.74852,0.0514142,1.14754,7.89021,0.00397304,
2,1,0,1,0,60045.1,0.00579255,0.00540404,0.188688,31,0.000180318,10,1.01968e-06,-3.72426,0.0632928,0.932175,6.80425,0.00540404,
2,1,0,1,0,60045.4,0.00729041,0.00692541,0.198572,31,0.000242138,10,1.37519e-06,-3.70208,0.0830554,0.710369,5.48396,0.00692541,
2,1,0,1,0,60045.7,0.00878882,0.00846227,0.20671,31,0.000306578,10,1.74923e-06,-3.68464,0.102158,0.577536,4.62575,0.00846227,
2,1,0,1,0,60046,0.010287,0.00995108,0.213435,31,0.000373157,10,2.12391e-06,-3.67073,0.131152,0.449859,3.72252,0.00995108,
2,1,0,1,0,60046.3,0.0117852,0.01146,0.217893,31,0.00044152,10,2.49706e-06,-3.66176,0.135382,0.435802,3.72298,0.01146,
2,1,0,1,0,60046.6,0.0132836,0.0128899,0.224293,31,0.000511495,10,2.89111e-06,-3.64918,0.137167,0.430131,3.78018,0.01288988,
2,1,0,1,0,60046.9,0.0147815,0.0144164,0.229961,31,0.000583328,10,3.3152e-06,-3.63835,0.166038,0.355341,3.18653,0.0144164,
2,1,0,1,0,60047.2,0.0162793,0.0159407,0.234703,31,0.00065693,10,3.74134e-06,-3.62948,0.175956,0.33531,3.06638,0.0159407,
2,1,0,0,0,60047.5,0.017778,0.0174269,0.240402,31,0.000731877,10,4.18946e-06,-3.61906,0.169596,0.347886,3.26072,0.01742694,
2,1,0,0,0,60047.8,0.0192761,0.0188744,0.245148,31,0.00080809,10,4.62702e-06,-3.61057,0.165953,0.355522,3.39867,0.0188744,
2,1,0,1,0,60048.1,0.0207747,0.0204451,0.251682,31,0.000886147,10,5.14567e-06,-3.59915,0.16797,0.351254,3.42296,0.0204451,
2,1,0,1,0,60048.4,0.0222725,0.0218606,0.255276,31,0.000965629,10,5.58048e-06,-3.59299,0.176978,0.333374,3.31522,0.0218606,
2,1,0,1,0,60048.7,0.0237704,0.0234456,0.260196,31,0.0010467,10,6.10046e-06,-3.5847,0.175402,0.336371,3.41982,0.0234456,
2,1,0,1,0,60049,0.0252689,0.0249145,0.264265,31,0.00112908,10,6.58401e-06,-3.57796,0.176821,0.333671,3.46653,0.0249145,
2,1,0,1,0,60049.3,0.0267671,0.0264277,0.270564,31,0.00121303,10,7.15039e-06,-3.56773,0.150093,0.393091,4.14737,0.0264277,
2,1,0,1,0,60049.6,0.0282657,0.0279286,0.276305,31,0.00129874,10,7.7168e-06,-3.55861,0.173441,0.340172,3.66113,0.0279286,
2,1,0,1,0,60049.9,0.0297635,0.0294464,0.28141,31,0.00138594,10,8.28653e-06,-3.55066,0.192462,0.306555,3.35499,0.0294464,
2,1,0,1,0,60050.2,0.0312613,0.0309637,0.284964,31,0.00147449,10,8.82354e-06,-3.54521,0.202389,0.291519,3.25186,0.0309637,
2,1,0,0,0,60050.5,0.0327599,0.03242,0.290929,31,0.00156438,10,9.43193e-06,-3.53621,0.195206,0.302244,3.43744,0.03242,
2,1,0,0,0,60050.8,0.034258,0.0338908,0.296636,31,0.00165601,10,1.00532e-05,-3.52778,0.189413,0.311489,3.59162,0.03389081,
2,1,0,1,0,60051.1,0.0357567,0.0354404,0.301673,31,0.00174925,10,1.06914e-05,-3.52046,0.234328,0.251784,2.95128,0.0354404,
2,1,0,1,0,60051.4,0.0372545,0.0368952,0.306139,31,0.00184402,10,1.12951e-05,-3.51408,0.19827,0.297574,3.55299,0.0368952,
2,1,0,1,0,60051.7,0.0387524,0.0384398,0.310801,31,0.00193989,10,1.19471e-05,-3.50752,0.190496,0.309718,3.77285,0.0384398,
2,1,0,1,0,60052,0.0402508,0.0398524,0.316823,31,0.00203765,10,1.26261e-05,-3.49918,0.204802,0.288083,3.55367,0.0398524,
2,1,0,1,0,60052.3,0.041749,0.041407,0.321937,31,0.00213706,10,1.33304e-05,-3.49223,0.23038,0.256098,3.20395,0.041407,
2,1,0,1,0,60052.6,0.0432472,0.0429329,0.326597,31,0.00223774,10,1.40217e-05,-3.48599,0.263513,0.223898,2.84975,0.0429329,
2,1,0,1,0,60052.9,0.0447456,0.044421,0.33021,31,0.0023396,10,1.46682e-05,-3.48121,0.254069,0.23222,2.99243,0.04442098,
2,1,0,1,0,60053.2,0.0462435,0.0459081,0.335295,31,0.00244306,10,1.53928e-05,-3.47457,0.217708,0.271005,3.53775,0.0459081,
2,1,0,1,0,60053.5,0.0477413,0.0473904,0.339873,31,0.00254791,10,1.61067e-05,-3.46868,0.242489,0.24331,3.22706,0.0473904,
2,1,0,0,0,60053.8,0.0492399,0.0489104,0.344518,31,0.00265419,10,1.68505e-05,-3.46279,0.274043,0.215294,2.89672,0.0489104,
2,1,0,0,0,60054.1,0.0507381,0.0504257,0.346691,31,0.00276153,10,1.74821e-05,-3.46006,0.268466,0.219767,2.98967,0.0504257,
2,1,0,1,0,60054.4,0.0522367,0.0518438,0.353145,31,0.00287029,10,1.83084e-05,-3.45205,0.256239,0.230254,3.16826,0.0518438,
2,1,0,1,0,60054.7,0.0537345,0.0534235,0.358928,31,0.00298056,10,1.91752e-05,-3.44499,0.260065,0.226867,3.1612,0.05342352,
2,1,0,1,0,60055,0.0552323,0.0548472,0.361704,31,0.00309211,10,1.98384e-05,-3.44165,0.364809,0.161729,2.27804,0.0548472,
2,1,0,1,0,60055.3,0.0567309,0.0563799,0.364401,31,0.00320488,10,2.05449e-05,-3.43842,0.340804,0.17312,2.46869,0.0563799,
2,1,0,1,0,60055.6,0.0582291,0.0578475,0.370535,31,0.00331856,10,2.14345e-05,-3.43117,0.337793,0.174663,2.52215,0.0578475,
2,1,0,1,0,60055.9,0.0597277,0.0593908,0.373895,31,0.00343371,10,2.22059e-05,-3.42725,0.321866,0.183306,2.66971,0.0593908,
2,1,0,1,0,60056.2,0.0612255,0.0608908,0.377727,31,0.00355006,10,2.30001e-05,-3.42282,0.512571,0.115106,1.69112,0.0608908,
2,1,0,1,0,60056.5,0.0627233,0.0623731,0.381513,31,0.0036676,10,2.37962e-05,-3.41849,0.404642,0.145808,2.17143,0.0623731,
2,1,0,0,0,60056.8,0.0642218,0.0639289,0.384339,31,0.0037859,10,2.45704e-05,-3.41529,0.355955,0.165751,2.49834,0.0639289,
2,1,0,0,0,60057.1,0.06572,0.0653828,0.389405,31,0.00390552,10,2.54604e-05,-3.4096,0.332576,0.177403,2.68851,0.0653828,
2,1,0,1,0,60057.4,0.0672187,0.0669017,0.392459,31,0.00402646,10,2.62562e-05,-3.40621,0.410872,0.143597,2.19461,0.0669017,
2,1,0,1,0,60057.7,0.0687165,0.0683901,0.395815,31,0.00414816,10,2.70699e-05,-3.40251,0.551581,0.106965,1.64669,0.0683901,
2,1,0,1,0,60058,0.0702144,0.069865,0.398265,31,0.00427062,10,2.78248e-05,-3.39983,0.430646,0.137003,2.12656,0.069865,
2,1,0,1,0,60058.3,0.0717128,0.0713465,0.400238,31,0.00439401,10,2.85556e-05,-3.39768,0.435116,0.135596,2.11989,0.0713465,
2,1,0,1,0,60058.6,0.073211,0.0729042,0.404333,31,0.00451841,10,2.94776e-05,-3.39326,0.414365,0.142387,2.24631,0.0729042,
2,1,0,1,0,60058.9,0.0747092,0.0743708,0.40657,31,0.00464371,10,3.02369e-05,-3.39087,0.642401,0.0918429,1.45656,0.0743708,
2,1,0,1,0,60059.2,0.0762076,0.0758673,0.407518,31,0.00476968,10,3.09173e-05,-3.38985,0.496627,0.118801,1.89932,0.0758673,
2,1,0,1,0,60059.5,0.0777054,0.0773578,0.412185,31,0.00489649,10,3.18857e-05,-3.38491,0.435846,0.135369,2.17389,0.0773578,
2,1,0,1,0,60059.8,0.0792033,0.0788674,0.417131,31,0.00502427,10,3.28981e-05,-3.37973,0.495806,0.118998,1.92647,0.0788674,
2,1,0,0,0,60060.1,0.0807019,0.0803568,0.418723,31,0.00515308,10,3.36472e-05,-3.37807,0.566978,0.10406,1.69336,0.0803568,
2,1,0,0,0,60060.4,0.0822001,0.0818392,0.419885,31,0.00528255,10,3.4363e-05,-3.37687,0.480456,0.1228,2.01686,0.0818392,
2,1,0,1,0,60060.7,0.0836986,0.0833984,0.424412,31,0.00541285,10,3.53953e-05,-3.37221,0.415304,0.142064,2.35832,0.0833984,
2,1,0,1,0,60061,0.0851965,0.0848612,0.426782,31,0.0055443,10,3.62172e-05,-3.36979,0.38717,0.152388,2.54837,0.0848612,
2,1,0,1,0,60061.3,0.0866944,0.0863275,0.431546,31,0.00567691,10,3.72543e-05,-3.36497,0.499596,0.118096,1.987,0.0863275,
2,1,0,1,0,60061.6,0.0881929,0.0878909,0.43513,31,0.00581079,10,3.8244e-05,-3.36138,0.355315,0.16605,2.82692,0.0878909,
2,1,0,1,0,60061.9,0.0896911,0.0893395,0.440676,31,0.00594554,10,3.93698e-05,-3.35588,0.290305,0.203234,3.4964,0.0893395,
2,1,0,1,0,60062.2,0.0911897,0.0908183,0.4452,31,0.00608185,10,4.04324e-05,-3.35144,0.256592,0.229937,3.99494,0.0908183,
2,1,0,1,0,60062.5,0.0926875,0.0923428,0.451435,31,0.0062201,10,4.16867e-05,-3.34541,0.250136,0.235872,4.14927,0.0923428,
2,1,0,1,0,60062.8,0.0941853,0.0938417,0.456882,31,0.00635986,10,4.28746e-05,-3.3402,0.267007,0.220968,3.94436,0.0938417,
2,1,0,0,0,60063.1,0.0956838,0.0953361,0.462113,31,0.00650139,10,4.4056e-05,-3.33525,0.243251,0.242548,4.386,0.0953361,
2,1,0,0,0,60063.4,0.097182,0.0968546,0.46938,31,0.00664499,10,4.54616e-05,-3.32848,0.21769,0.271028,4.96587,0.09685456,
2,1,0,1,0,60063.7,0.0986807,0.0983226,0.477131,31,0.00679074,10,4.69128e-05,-3.32136,0.224244,0.263106,4.90701,0.0983226,
2,1,0,1,0,60064,0.100179,0.0998324,0.484941,31,0.0069387,10,4.84129e-05,-3.31431,0.217911,0.270752,5.1176,0.0998324,
2,1,0,1,0,60064.3,0.101676,0.101347,0.490881,31,0.00708896,10,4.97495e-05,-3.30902,0.203074,0.290535,5.5834,0.1013473,
2,1,0,1,0,60064.6,0.103175,0.102812,0.501144,31,0.00724148,10,5.15235e-05,-3.30004,0.203632,0.289738,5.66499,0.102812,
2,1,0,1,0,60064.9,0.104673,0.104354,0.510334,31,0.00739665,10,5.32552e-05,-3.29215,0.212617,0.277495,5.49996,0.104354,
2,1,0,1,0,60065.2,0.106171,0.105849,0.517217,31,0.00755434,10,5.47468e-05,-3.28633,0.253297,0.232928,4.6873,0.105849,
2,1,0,1,0,60065.5,0.10767,0.107348,0.523546,31,0.0077142,10,5.62019e-05,-3.28105,0.251195,0.234878,4.81115,0.107348,
2,1,0,1,0,60065.8,0.109167,0.108832,0.530581,31,0.00787582,10,5.77441e-05,-3.27525,0.264612,0.222968,4.62957,0.108832,
2,1,0,1,0,60066.1,0.110665,0.11034,0.537183,31,0.00803975,10,5.9273e-05,-3.26988,0.282098,0.209147,4.38835,0.11034,
2,1,0,0,0,60066.4,0.112164,0.111807,0.544195,31,0.00820582,10,6.0845e-05,-3.26425,0.35587,0.165791,3.51545,0.111807,
2,1,0,0,0,60066.7,0.113662,0.113342,0.54961,31,0.00837351,10,6.22938e-05,-3.25995,0.367768,0.160427,3.43771,0.113342,
2,1,0,1,0,60067,0.115161,0.11479,0.55482,31,0.00854248,10,6.3688e-05,-3.25585,0.395586,0.149146,3.22644,0.11479,
2,1,0,1,0,60067.3,0.116658,0.116258,0.559165,31,0.00871311,10,6.50073e-05,-3.25246,0.366601,0.160938,3.50483,0.116258,
2,1,0,1,0,60067.6,0.118156,0.11781,0.564275,31,0.00888537,10,6.64771e-05,-3.24851,0.490694,0.120238,2.64512,0.11781,
2,1,0,1,0,60067.9,0.119655,0.119326,0.567379,31,0.00905881,10,6.77029e-05,-3.24613,0.702397,0.0839981,1.86043,0.119326,
2,1,0,1,0,60068.2,0.121153,0.12081,0.56924,31,0.00923276,10,6.877e-05,-3.2447,0.673589,0.0875906,1.95068,0.1208102,
2,1,0,1,0,60068.5,0.122652,0.12233,0.573392,31,0.00940788,10,7.01431e-05,-3.24155,0.549217,0.107426,2.39873,0.12233,
2,1,0,1,0,60068.8,0.124149,0.123796,0.57615,31,0.00958403,10,7.13252e-05,-3.23946,0.702885,0.0839397,1.88817,0.123796,
2,1,0,1,0,60069.1,0.125647,0.125314,0.57925,31,0.0097609,10,7.25884e-05,-3.23713,1.31997,0.044698,1.00952,0.125314,
2,1,0,0,0,60069.4,0.127146,0.126763,0.578661,31,0.00993833,10,7.33531e-05,-3.23758,1.4495,0.0407036,0.920831,0.126763,
2,1,0,0,0,60069.7,0.128644,0.128297,0.582093,31,0.0101161,10,7.46806e-05,-3.23501,2.10365,0.0280464,0.635373,0.128297,
2,1,0,1,0,60070,0.130143,0.129802,0.58174,31,0.0102942,10,7.55108e-05,-3.23527,-4.10866,-0.0143599,-0.325476,0.129802,
2,1,0,1,0,60070.3,0.131641,0.131291,0.580591,31,0.0104723,10,7.62265e-05,-3.23613,-0.611299,-0.0965158,-2.17574,0.1312913,
2,1,0,1,0,60070.5,0.133138,0.132795,0.576678,31,0.0106496,10,7.65797e-05,-3.23907,-0.436867,-0.135052,-3.03506,0.132795,
2,1,0,1,0,60070.8,0.134637,0.134289,0.570852,31,0.0108253,10,7.66592e-05,-3.24348,-0.296707,-0.198849,-4.42732,0.134289,
2,1,0,1,0,60071.1,0.136135,0.135767,0.564756,31,0.0109994,10,7.66753e-05,-3.24814,-0.226097,-0.26095,-5.72116,0.135767,
2,1,0,1,0,60071.4,0.137633,0.137294,0.554552,31,0.0111708,10,7.61367e-05,-3.25606,-0.152561,-0.386731,-8.30975,0.137294,
2,1,0,1,0,60071.7,0.139132,0.138806,0.542041,31,0.0113388,10,7.52383e-05,-3.26597,-0.129436,-0.455825,-9.5821,0.138806,
2,1,0,1,0,60072,0.140629,0.14025,0.526101,31,0.0115021,10,7.3786e-05,-3.27893,-0.114102,-0.517081,-10.5783,0.14025,
2,1,0,1,0,60072.3,0.142127,0.141808,0.50794,31,0.0116607,10,7.203e-05,-3.29419,-0.0991346,-0.595151,-11.7524,0.141808,
2,1,0,0,0,60072.6,0.143626,0.143289,0.489844,31,0.0118143,10,7.01891e-05,-3.30994,-0.0842859,-0.699999,-13.3193,0.1432887,
2,1,0,0,0,60072.9,0.145124,0.144819,0.468936,31,0.0119617,10,6.79107e-05,-3.32889,-0.0775193,-0.761101,-13.9461,0.144819,
2,1,0,1,0,60073.2,0.146623,0.146263,0.448092,31,0.0121027,10,6.55391e-05,-3.34863,-0.0799664,-0.73781,-12.9383,0.146263,
2,1,0,1,0,60073.5,0.14812,0.147788,0.429111,31,0.0122378,10,6.34175e-05,-3.36743,-0.0803755,-0.734055,-12.2963,0.147788,
2,1,0,1,0,60073.8,0.149618,0.149295,0.410443,31,0.0123673,10,6.12768e-05,-3.38675,-0.0819991,-0.71952,-11.5563,0.149295,
2,1,0,1,0,60074.1,0.151117,0.150812,0.394658,31,0.0124916,10,5.95193e-05,-3.40378,-0.085463,-0.690358,-10.6391,0.1508123,
2,1,0,1,0,60074.4,0.152615,0.152233,0.378272,31,0.0126111,10,5.75855e-05,-3.4222,-0.0957325,-0.616301,-9.16578,0.152233,
2,1,0,1,0,60074.7,0.154114,0.153754,0.367703,31,0.0127265,10,5.65359e-05,-3.4345,-0.114361,-0.515908,-7.42446,0.153754,
2,1,0,1,0,60075,0.155612,0.155248,0.357073,31,0.0128385,10,5.54348e-05,-3.44724,-0.125055,-0.471792,-6.60159,0.155248,
2,1,0,1,0,60075.3,0.157109,0.156761,0.348531,31,0.0129479,10,5.4636e-05,-3.45776,-0.135376,-0.435824,-5.92014,0.1567608,
2,1,0,0,0,60075.6,0.158608,0.158255,0.339765,31,0.0130546,10,5.37697e-05,-3.46882,-0.174777,-0.337573,-4.50585,0.158255,
2,1,0,0,0,60075.9,0.160106,0.159767,0.334493,31,0.013159,10,5.34411e-05,-3.47561,-0.203526,-0.28989,-3.78969,0.159767,
2,1,0,1,0,60076.2,0.161605,0.161209,0.328909,31,0.0132619,10,5.30231e-05,-3.48292,-0.230721,-0.25572,-3.29187,0.161209,
2,1,0,1,0,60076.5,0.163102,0.162761,0.324738,31,0.0133632,10,5.28546e-05,-3.48847,-0.263385,-0.224007,-2.83752,0.162761,
2,1,0,1,0,60076.8,0.1646,0.164261,0.321126,31,0.0134633,10,5.27485e-05,-3.49332,-0.293119,-0.201283,-2.52187,0.1642611,
2,1,0,1,0,60077.1,0.166099,0.165738,0.316432,31,0.013562,10,5.24447e-05,-3.49972,-0.364124,-0.162033,-2.00658,0.165738,
2,1,0,1,0,60077.4,0.167597,0.167273,0.31376,31,0.0136599,10,5.24836e-05,-3.5034,-0.52298,-0.112815,-1.382,0.167273,
2,1,0,1,0,60077.7,0.169095,0.168748,0.311778,31,0.0137571,10,5.26119e-05,-3.50615,-0.413417,-0.142713,-1.73622,0.168748,
2,1,0,1,0,60078,0.170594,0.170253,0.308599,31,0.0138535,10,5.25398e-05,-3.51061,-0.403863,-0.146089,-1.76469,0.170253,
2,1,0,1,0,60078.3,0.172091,0.171761,0.305855,31,0.0139489,10,5.25339e-05,-3.51448,-0.457019,-0.129097,-1.54626,0.171761,
2,1,0,1,0,60078.6,0.173589,0.17324,0.304674,31,0.0140439,10,5.27816e-05,-3.51616,-0.752055,-0.0784517,-0.932917,0.17324,
2,1,0,0,0,60078.9,0.175088,0.174739,0.303925,31,0.0141384,10,5.31077e-05,-3.51723,-0.74165,-0.0795524,-0.939949,0.1747393,
2,1,0,0,0,60079.2,0.176586,0.176194,0.301966,31,0.0142324,10,5.32046e-05,-3.52004,-0.542766,-0.108703,-1.27886,0.176194,
2,1,0,1,0,60079.5,0.178085,0.177773,0.298377,31,0.014326,10,5.30436e-05,-3.52523,-0.774162,-0.0762114,-0.892666,0.177773,
2,1,0,1,0,60079.8,0.179582,0.179238,0.298937,31,0.0144191,10,5.35808e-05,-3.52442,-1.18559,-0.0497642,-0.582051,0.179238,
2,1,0,1,0,60080.1,0.18108,0.180722,0.297602,31,0.014512,10,5.37832e-05,-3.52636,-1.255,-0.0470121,-0.547111,0.180722,
2,1,0,1,0,60080.4,0.182579,0.182245,0.296297,31,0.0146047,10,5.39986e-05,-3.52827,-0.826009,-0.0714278,-0.827104,0.182245,
2,1,0,1,0,60080.7,0.184077,0.183734,0.295881,31,0.014697,10,5.43632e-05,-3.52888,-0.749678,-0.0787004,-0.909932,0.183734,
2,1,0,1,0,60081,0.185576,0.185244,0.295086,31,0.0147889,10,5.46629e-05,-3.53005,-1.11054,-0.0531272,-0.612369,0.1852442,
2,1,0,1,0,60081.3,0.187074,0.186747,0.294745,31,0.0148807,10,5.50427e-05,-3.53055,-7.65895,-0.00770341,-0.0883736,0.186747,
2,1,0,1,0,60081.6,0.188571,0.188279,0.293307,31,0.0149723,10,5.52236e-05,-3.53268,-1.66108,-0.0355191,-0.407378,0.188279,
2,1,0,0,0,60081.9,0.19007,0.18971,0.292418,31,0.0150637,10,5.54746e-05,-3.534,-1.68041,-0.0351106,-0.402147,0.18971,
2,1,0,0,0,60082.2,0.191568,0.19119,0.290969,31,0.0151547,10,5.56305e-05,-3.53615,-1.87616,-0.0314472,-0.358755,0.19119,
2,1,0,1,0,60082.5,0.193067,0.192729,0.291458,31,0.0152457,10,5.61723e-05,-3.53542,20.9603,0.00281485,0.0320487,0.192729,
2,1,0,1,0,60082.8,0.194564,0.194211,0.291186,31,0.0153366,10,5.65515e-05,-3.53583,29.4102,0.0020061,0.022826,0.194211,
2,1,0,1,0,60083.1,0.196062,0.195718,0.291034,31,0.0154274,10,5.69607e-05,-3.53606,-2.26507,-0.0260478,-0.29558,0.195718,
2,1,0,1,0,60083.4,0.197561,0.19723,0.288519,31,0.0155179,10,5.69048e-05,-3.53983,-2.18571,-0.0269935,-0.30591,0.19723,
2,1,0,1,0,60083.7,0.199059,0.198701,0.289865,31,0.0156082,10,5.75965e-05,-3.5378,-1.60278,-0.0368109,-0.416317,0.198701,
2,1,0,1,0,60084,0.200557,0.200208,0.289912,31,0.0156985,10,5.80428e-05,-3.53773,-2816.35,-2.09491e-05,-0.000236848,0.200208,
2,1,0,1,0,60084.3,0.202056,0.201724,0.289875,31,0.0157886,10,5.84746e-05,-3.53779,-1.09403,-0.053929,-0.607781,0.2017238,
2,1,0,1,0,60084.6,0.203553,0.203199,0.288783,31,0.0158786,10,5.86806e-05,-3.53943,-3.43783,-0.017162,-0.193375,0.203199,
2,1,0,1,0,60084.9,0.205051,0.204663,0.287848,31,0.0159684,10,5.8912e-05,-3.54084,2.10579,0.028018,0.317285,0.204663,
2,1,0,0,0,60085.2,0.20655,0.206194,0.287986,31,0.0160583,10,5.93811e-05,-3.54063,-6.21111,-0.00949911,-0.106899,0.206194,
2,1,0,0,0,60085.5,0.208048,0.207717,0.287837,31,0.0161483,10,5.97887e-05,-3.54085,-1.00292,-0.0588284,-0.660304,0.207717,
2,1,0,1,0,60085.8,0.209547,0.20925,0.288234,31,0.0162381,10,6.03131e-05,-3.54025,-4.68637,-0.0125897,-0.141146,0.20925,
2,1,0,1,0,60086.1,0.211044,0.210671,0.288197,31,0.0163275,10,6.07147e-05,-3.54031,-3.49528,-0.0168799,-0.189291,0.210671,
2,1,0,1,0,60086.4,0.212542,0.212212,0.287246,31,0.0164168,10,6.09572e-05,-3.54175,278.68,0.000211712,0.00237168,0.212212,
2,1,0,1,0,60086.7,0.214041,0.213713,0.286814,31,0.0165062,10,6.12961e-05,-3.5424,-3.51352,-0.0167923,-0.18761,0.213713,
2,1,0,1,0,60087,0.215539,0.215208,0.286107,31,0.0165953,10,6.15725e-05,-3.54347,-2.22113,-0.0265631,-0.296929,0.215208,
2,1,0,1,0,60087.3,0.217038,0.216707,0.284404,31,0.0166842,10,6.16325e-05,-3.54606,-3.38035,-0.0174538,-0.194919,0.216707,
2,1,0,1,0,60087.6,0.218535,0.218205,0.285905,31,0.0167731,10,6.2386e-05,-3.54378,1.78237,0.033102,0.368476,0.2182055,
2,1,0,1,0,60087.9,0.220033,0.219671,0.285568,31,0.016862,10,6.27309e-05,-3.54429,135.767,0.000434568,0.00484364,0.2196707,
2,1,0,0,0,60088.2,0.221532,0.221203,0.284509,31,0.0169508,10,6.29342e-05,-3.5459,-0.899698,-0.0655775,-0.72888,0.221203,
2,1,0,0,0,60088.5,0.22303,0.222687,0.283856,31,0.0170394,10,6.3211e-05,-3.5469,-3.07443,-0.0191906,-0.212771,0.222687,
2,1,0,1,0,60088.8,0.224529,0.224174,0.284139,31,0.0171278,10,6.36965e-05,-3.54647,-3.95774,-0.0149075,-0.165374,0.224174,
2,1,0,1,0,60089.1,0.226026,0.225671,0.284713,31,0.0172161,10,6.42514e-05,-3.54559,-9.47447,-0.00622726,-0.0689936,0.2256708,
2,1,0,1,0,60089.4,0.227524,0.227174,0.283563,31,0.0173045,10,6.44181e-05,-3.54735,-1.69996,-0.0347066,-0.38245,0.227174,
2,1,0,1,0,60089.7,0.229023,0.228718,0.282848,31,0.0173927,10,6.46925e-05,-3.54845,-1.77676,-0.0332064,-0.366963,0.228718,
2,1,0,1,0,60090,0.230521,0.230208,0.282502,31,0.0174806,10,6.50342e-05,-3.54898,-603.223,-9.78079e-05,-0.00108178,0.230208,
2,1,0,1,0,60090.3,0.232019,0.231688,0.28228,31,0.0175686,10,6.5401e-05,-3.54932,-2.82733,-0.0208678,-0.229643,0.231688,
2,1,0,1,0,60090.6,0.233518,0.233149,0.282268,31,0.0176567,10,6.58106e-05,-3.54934,-2.00546,-0.0294197,-0.322737,0.233149,
2,1,0,1,0,60090.9,0.235015,0.23467,0.282436,31,0.0177445,10,6.62793e-05,-3.54908,-1.92016,-0.0307265,-0.338257,0.23467,
2,1,0,1,0,60091.2,0.236513,0.236168,0.280209,31,0.0178319,10,6.61763e-05,-3.55252,-1.51563,-0.0389277,-0.427575,0.236168,
2,1,0,0,0,60091.5,0.238012,0.237677,0.280972,31,0.0179194,10,6.67805e-05,-3.55134,-2.47901,-0.0237998,-0.260242,0.237677,
2,1,0,0,0,60091.8,0.23951,0.23915,0.280988,31,0.018007,10,6.71985e-05,-3.55131,-2.57995,-0.0228687,-0.25008,0.23915,
2,1,0,1,0,60092.1,0.241009,0.240693,0.279741,31,0.0180944,10,6.73315e-05,-3.55324,-2.16515,-0.0272499,-0.298859,0.240693,
2,1,0,1,0,60092.4,0.242506,0.242163,0.279734,31,0.0181816,10,6.77411e-05,-3.55326,-4.96836,-0.0118751,-0.129852,0.242163,
2,1,0,1,0,60092.7,0.244004,0.243636,0.279554,31,0.0182688,10,6.81093e-05,-3.55353,8.99717,0.00655762,0.0715665,0.243636,
2,1,0,1,0,60093,0.245503,0.245171,0.280444,31,0.018356,10,6.87568e-05,-3.55215,-3.28134,-0.0179805,-0.195851,0.2451715,
2,1,0,1,0,60093.3,0.247001,0.246706,0.279467,31,0.018443,10,6.89463e-05,-3.55367,-2.77745,-0.0212425,-0.231146,0.2467059,
2,1,0,1,0,60093.6,0.2485,0.248177,0.277511,31,0.0185299,10,6.88718e-05,-3.55672,-6.84048,-0.00862513,-0.0936497,0.248177,
2,1,0,1,0,60093.9,0.249997,0.24968,0.278147,31,0.0186165,10,6.94478e-05,-3.55573,-4.28169,-0.0137796,-0.149911,0.24968,
2,1,0,1,0,60094.2,0.251495,0.251201,0.278254,31,0.0187033,10,6.98975e-05,-3.55556,-3.10904,-0.0189769,-0.206173,0.251201,
2,1,0,0,0,60094.5,0.252994,0.25264,0.277637,31,0.01879,10,7.01423e-05,-3.55652,-1.19523,-0.0493629,-0.535306,0.25264,
2,1,0,0,0,60094.8,0.254492,0.254137,0.276794,31,0.0188766,10,7.03436e-05,-3.55784,-9.04653,-0.00652184,-0.070645,0.254137,
2,1,0,1,0,60095.1,0.255991,0.255666,0.277084,31,0.0189629,10,7.0841e-05,-3.55739,-26.4487,-0.00223073,-0.0241644,0.255666,
2,1,0,1,0,60095.4,0.257488,0.257162,0.277176,31,0.0190493,10,7.12789e-05,-3.55724,-5.93914,-0.0099341,-0.107287,0.257162,
2,1,0,1,0,60095.7,0.258986,0.25864,0.27687,31,0.0191356,10,7.16096e-05,-3.55772,-2.0503,-0.0287762,-0.310441,0.2586396,
2,1,0,1,0,60096,0.260485,0.260196,0.277116,31,0.0192219,10,7.21046e-05,-3.55734,-1.13194,-0.052123,-0.562062,0.260196,
2,1,0,1,0,60096.3,0.261983,0.261667,0.276052,31,0.0193078,10,7.22337e-05,-3.55901,-1.5826,-0.0372804,-0.401398,0.261667,
2,1,0,1,0,60096.6,0.263481,0.263133,0.276138,31,0.0193937,10,7.26609e-05,-3.55887,-2.08951,-0.0282363,-0.303194,0.263133,
2,1,0,1,0,60096.9,0.26498,0.264667,0.275825,31,0.0194796,10,7.3002e-05,-3.55937,-4.88968,-0.0120662,-0.129718,0.264667,
2,1,0,1,0,60097.2,0.266477,0.266125,0.27454,31,0.0195654,10,7.30619e-05,-3.56139,-2.75588,-0.0214088,-0.230224,0.2661249,
2,1,0,0,0,60097.5,0.267976,0.267642,0.273659,31,0.0196509,10,7.32426e-05,-3.56279,-23.5422,-0.00250614,-0.0268938,0.267642,
2,1,0,0,0,60097.8,0.269474,0.269075,0.274572,31,0.0197364,10,7.38805e-05,-3.56134,-6.56042,-0.00899333,-0.0963162,0.269075,
2,1,0,0,0,60098.1,0.270972,0.270632,0.275123,31,0.0198219,10,7.4457e-05,-3.56047,-2.51576,-0.0234521,-0.250584,0.270632,
2,1,0,1,0,60098.4,0.27247,0.272128,0.273951,31,0.0199074,10,7.45499e-05,-3.56233,-2.21979,-0.0265791,-0.282961,0.272128,
2,1,0,1,0,60098.7,0.273968,0.273639,0.27248,31,0.0199926,10,7.45611e-05,-3.56467,-3.89976,-0.0151291,-0.161616,0.2736392,
2,1,0,1,0,60099,0.275466,0.275136,0.272737,31,0.0200776,10,7.50399e-05,-3.56426,-1.56206,-0.0377707,-0.404103,0.275136,
2,1,0,1,0,60099.3,0.276965,0.276644,0.272589,31,0.0201627,10,7.54102e-05,-3.56449,-3.06265,-0.0192643,-0.205735,0.276644,
2,1,0,1,0,60099.6,0.278463,0.278149,0.272321,31,0.0202477,10,7.57458e-05,-3.56492,-1.40653,-0.0419471,-0.446088,0.2781491,
2,1,0,1,0,60099.9,0.279962,0.279653,0.272408,31,0.0203327,10,7.61797e-05,-3.56478,-24.0552,-0.00245269,-0.0261236,0.279653,
2,1,0,1,0,60100.2,0.281459,0.281133,0.272743,31,0.0204173,10,7.66771e-05,-3.56425,-1.47687,-0.0399493,-0.424331,0.281133,
2,1,0,1,0,60100.5,0.282957,0.282616,0.272254,31,0.020502,10,7.69433e-05,-3.56503,-2.46125,-0.0239716,-0.253846,0.282616,
2,1,0,0,0,60100.8,0.284456,0.284135,0.271292,31,0.0205865,10,7.70835e-05,-3.56656,-3.22243,-0.0183091,-0.193957,0.284135,
2,1,0,0,0,60101.1,0.285954,0.285614,0.271496,31,0.0206708,10,7.75433e-05,-3.56624,-1.23337,-0.0478366,-0.504671,0.285614,
2,1,0,0,0,60101.4,0.287452,0.287118,0.27057,31,0.020755,10,7.76856e-05,-3.56772,-1.53437,-0.0384524,-0.406085,0.287118,
2,1,0,1,0,60101.7,0.28895,0.288622,0.268915,31,0.0208391,10,7.76147e-05,-3.57039,-7.45248,-0.00791683,-0.083283,0.288622,
2,1,0,1,0,60102,0.290448,0.290106,0.269778,31,0.020923,10,7.82643e-05,-3.56899,-1.9982,-0.0295265,-0.310915,0.290106,
2,1,0,1,0,60102.3,0.291947,0.291631,0.268695,31,0.0210069,10,7.83597e-05,-3.57074,-1.83573,-0.0321398,-0.337341,0.291631,
2,1,0,1,0,60102.6,0.293445,0.293109,0.268156,31,0.0210906,10,7.85989e-05,-3.57161,-1.79929,-0.0327907,-0.344103,0.293109,
2,1,0,1,0,60102.9,0.294943,0.294591,0.26835,31,0.0211741,10,7.90533e-05,-3.5713,-29.4112,-0.00200604,-0.021009,0.294591,
2,1,0,1,0,60103.2,0.296442,0.296133,0.268827,31,0.0212578,10,7.96085e-05,-3.57053,-2.173,-0.0271514,-0.283791,0.296133,
2,1,0,1,0,60103.5,0.297939,0.297632,0.267893,31,0.0213414,10,7.97335e-05,-3.57204,-2.03104,-0.0290491,-0.303803,0.297632,
2,1,0,1,0,60103.8,0.299437,0.299108,0.267739,31,0.0214247,10,8.00828e-05,-3.57229,-0.0028995,-20.3484,-114.585,0.299108,
2,1,0,1,0,60104,0.299737,0.299396,0.139452,31,0.0214646,10,4.17515e-05,-3.85557,0.00106108,55.6039,203.264,0.299396,
2,1,0,1,0,60104.3,0.29824,0.297942,0.0265142,31,0.0214799,10,7.89969e-06,-4.57652,0.00103946,56.7603,75.7517,0.297942,
2,1,0,0,0,60104.6,0.296741,0.296442,0.00626234,31,0.0214813,10,1.85642e-06,-5.20326,0.00689828,8.55286,12.6861,0.296442,
2,1,0,0,0,60104.9,0.295243,0.294887,-0.00663202,31,0.0214778,10,-1.95569e-06,-5.17835,-0.0182354,-3.23547,7.34296,0.294887,
2,0,0,1,0,60105.2,0.293744,0.293407,-0.016323,31,0.0214713,10,-4.78928e-06,-4.7872,-0.00419504,-14.0642,5.76337,0.293407,
2,0,0,1,0,60105.5,0.292246,0.291923,-0.023766,31,0.0214624,10,-6.93784e-06,-4.62404,-0.00998069,-5.91141,4.85434,0.291923,
2,0,0,1,0,60105.8,0.290749,0.290379,-0.0304951,31,0.0214511,10,-8.85513e-06,-4.51577,-0.0147464,-4.00096,4.44114,0.290379,
2,0,0,1,0,60106.1,0.28925,0.288929,-0.0361987,31,0.021438,10,-1.04589e-05,-4.44131,-0.0214798,-2.74676,3.8451,0.288929,
2,0,0,1,0,60106.4,0.287752,0.287404,-0.0415755,31,0.0214231,10,-1.1949e-05,-4.38116,-0.027753,-2.1259,3.42686,0.2874043,
2,0,0,1,0,60106.7,0.286253,0.285928,-0.0463226,31,0.0214068,10,-1.32449e-05,-4.33421,-0.0302287,-1.95178,3.5528,0.285928,
2,0,0,1,0,60107,0.284755,0.284384,-0.051135,31,0.0213889,10,-1.4542e-05,-4.29128,-0.0357804,-1.64895,3.26994,0.284384,
2,0,0,1,0,60107.3,0.283257,0.282906,-0.0566378,31,0.0213695,10,-1.60232e-05,-4.24689,-0.0425835,-1.38551,3.00465,0.282906,
2,0,0,0,0,60107.6,0.281759,0.281388,-0.0593785,31,0.0213488,10,-1.67084e-05,-4.22637,-0.0485364,-1.21558,2.79517,0.281388,
2,0,0,0,0,60107.9,0.280261,0.279933,-0.0622892,31,0.0213269,10,-1.74368e-05,-4.20559,-0.0570694,-1.03383,2.54915,0.279933,
2,0,0,0,0,60108.2,0.278763,0.278433,-0.0673573,31,0.021304,10,-1.87545e-05,-4.17162,-0.0663461,-0.889276,2.33906,0.278433,
2,0,0,1,0,60108.5,0.277264,0.276944,-0.070608,31,0.02128,10,-1.95545e-05,-4.15115,-0.0719396,-0.820132,2.27007,0.276944,
2,0,0,1,0,60108.8,0.275766,0.275414,-0.0742811,31,0.0212548,10,-2.04581e-05,-4.12912,-0.0819944,-0.719561,2.06759,0.275414,
2,0,0,1,0,60109.1,0.274269,0.27391,-0.0774965,31,0.0212285,10,-2.1227e-05,-4.11072,-0.0863144,-0.683547,2.08065,0.27391,
2,0,0,1,0,60109.4,0.27277,0.272421,-0.0811906,31,0.0212016,10,-2.2118e-05,-4.09049,-0.0850791,-0.693472,2.22437,0.272421,
2,0,0,1,0,60109.7,0.271272,0.270913,-0.0841676,31,0.0211734,10,-2.28021e-05,-4.07486,-0.0821984,-0.717775,2.34811,0.270913,
2,0,0,1,0,60110,0.269773,0.269445,-0.0878269,31,0.0211442,10,-2.36645e-05,-4.05637,-0.108298,-0.544791,1.85443,0.269445,
2,0,0,1,0,60110.3,0.268275,0.267892,-0.0911875,31,0.0211142,10,-2.44284e-05,-4.04006,-0.109726,-0.537703,1.89327,0.267892,
2,0,0,1,0,60110.6,0.266778,0.266445,-0.0929749,31,0.0210836,10,-2.47727e-05,-4.03163,-0.108827,-0.542144,1.96126,0.266445,
2,0,0,0,0,60110.9,0.265279,0.264964,-0.0957501,31,0.021052,10,-2.53703e-05,-4.01886,-0.0991222,-0.595225,2.20656,0.264964,
2,0,0,0,0,60111.2,0.263781,0.263478,-0.0986078,31,0.0210196,10,-2.5981e-05,-4.00609,-0.129175,-0.456744,1.75966,0.263478,
2,0,0,1,0,60111.5,0.262282,0.261967,-0.100582,31,0.0209864,10,-2.63491e-05,-3.99748,-0.134173,-0.439732,1.73044,0.261967,
2,0,0,1,0,60111.8,0.260784,0.26046,-0.102628,31,0.0209526,10,-2.67305e-05,-3.98873,-0.151629,-0.389107,1.57248,0.26046,
2,0,0,1,0,60112.1,0.259286,0.258948,-0.106027,31,0.0209179,10,-2.74554e-05,-3.97458,-0.139065,-0.424262,1.75284,0.258948,
2,0,0,1,0,60112.4,0.257788,0.257464,-0.109334,31,0.0208825,10,-2.81494e-05,-3.96125,-0.167692,-0.351836,1.48232,0.257464,
2,0,0,1,0,60112.7,0.25629,0.255939,-0.111043,31,0.0208463,10,-2.84202e-05,-3.95451,-0.222422,-0.265261,1.13695,0.255939,
2,0,0,1,0,60113,0.254791,0.254456,-0.111501,31,0.0208096,10,-2.83722e-05,-3.95272,-0.191821,-0.307578,1.35225,0.254456,
2,0,0,1,0,60113.3,0.253293,0.252954,-0.114614,31,0.0207723,10,-2.89919e-05,-3.94076,-0.185163,-0.318638,1.42398,0.252954,
2,0,0,1,0,60113.6,0.251795,0.251433,-0.116492,31,0.0207342,10,-2.92901e-05,-3.9337,-0.200604,-0.294111,1.34044,0.2514334,
2,0,0,0,0,60113.9,0.250297,0.249945,-0.117824,31,0.0206956,10,-2.94496e-05,-3.92877,-0.211234,-0.279311,1.28947,0.249945,
2,0,0,0,0,60114.2,0.248799,0.248469,-0.121146,31,0.0206563,10,-3.0101e-05,-3.91669,-0.171443,-0.344138,1.62799,0.248469,
2,0,0,0,0,60114.5,0.247301,0.24695,-0.123043,31,0.0206165,10,-3.03854e-05,-3.90994,-0.187842,-0.314094,1.51088,0.24695,
2,0,0,1,0,60114.8,0.245802,0.245421,-0.125745,31,0.0205759,10,-3.08604e-05,-3.90051,-0.209455,-0.281684,1.3748,0.245421,
2,0,0,1,0,60115.1,0.244304,0.243968,-0.126394,31,0.0205347,10,-3.0836e-05,-3.89828,-0.236526,-0.249444,1.23036,0.243968,
2,0,0,1,0,60115.4,0.242806,0.242444,-0.12927,31,0.0204929,10,-3.13407e-05,-3.8885,-0.251393,-0.234693,1.18815,0.242444,
2,0,0,1,0,60115.7,0.241308,0.240975,-0.131134,31,0.0204506,10,-3.16e-05,-3.88229,-0.259412,-0.227437,1.16853,0.240975,
2,0,0,1,0,60116,0.23981,0.239496,-0.132351,31,0.0204077,10,-3.16977e-05,-3.87827,-0.21062,-0.280126,1.46006,0.2394962,
2,0,0,1,0,60116.3,0.238311,0.237942,-0.134872,31,0.0203642,10,-3.20918e-05,-3.87008,-0.254202,-0.232099,1.21973,0.237942,
2,0,0,1,0,60116.6,0.236813,0.236459,-0.136676,31,0.0203202,10,-3.23184e-05,-3.86431,-0.246227,-0.239616,1.27469,0.236459,
2,0,0,1,0,60116.9,0.235316,0.234972,-0.138011,31,0.0202758,10,-3.24287e-05,-3.86009,-0.258603,-0.228149,1.23082,0.2349719,
2,0,0,0,0,60117.2,0.233817,0.233507,-0.140449,31,0.0202309,10,-3.27958e-05,-3.85248,-0.251969,-0.234156,1.28005,0.233507,
2,0,0,0,0,60117.5,0.232319,0.231973,-0.142644,31,0.0201851,10,-3.30895e-05,-3.84575,-0.257606,-0.229032,1.26094,0.2319726,
2,0,0,1,0,60117.8,0.23082,0.230516,-0.143143,31,0.020139,10,-3.29969e-05,-3.84423,-0.364234,-0.161984,0.906742,0.230516,
2,0,0,1,0,60118.1,0.229322,0.228973,-0.145319,31,0.0200924,10,-3.32741e-05,-3.83768,-0.273668,-0.21559,1.22636,0.2289727,
2,0,0,1,0,60118.4,0.227825,0.227504,-0.145977,31,0.0200453,10,-3.32105e-05,-3.83571,-0.245475,-0.240351,1.37995,0.227504,
2,0,0,1,0,60118.7,0.226326,0.225945,-0.148239,31,0.0199976,10,-3.34939e-05,-3.82904,-0.299535,-0.196972,1.14764,0.225945,
2,0,0,1,0,60119,0.224828,0.224459,-0.149959,31,0.0199494,10,-3.36595e-05,-3.82403,-0.45215,-0.130488,0.762164,0.224459,
2,0,0,1,0,60119.3,0.223329,0.222987,-0.152591,31,0.0199006,10,-3.40257e-05,-3.81647,-0.286233,-0.206126,1.22135,0.222987,
2,0,0,1,0,60119.6,0.221831,0.221491,-0.153847,31,0.0198516,10,-3.40759e-05,-3.81291,-0.291142,-0.20265,1.21496,0.221491,
2,0,0,1,0,60119.9,0.220333,0.219985,-0.155183,31,0.019802,10,-3.4138e-05,-3.80916,-0.276814,-0.213139,1.2878,0.219985,
2,0,0,0,0,60120.2,0.218835,0.218492,-0.158093,31,0.0197516,10,-3.4542e-05,-3.80109,-0.368535,-0.160093,0.980444,0.218492,
2,0,0,0,0,60120.5,0.217337,0.216955,-0.159231,31,0.0197008,10,-3.4546e-05,-3.79797,-0.356084,-0.165691,1.02825,0.216955,
2,0,0,0,0,60120.8,0.215839,0.215502,-0.159874,31,0.0196497,10,-3.44533e-05,-3.79622,-0.263177,-0.224184,1.40649,0.215502,
2,0,0,1,0,60121.1,0.21434,0.214005,-0.162532,31,0.019598,10,-3.47827e-05,-3.78906,-0.236715,-0.249245,1.57609,0.214005,
2,0,0,1,0,60121.4,0.212842,0.212465,-0.163477,31,0.0195456,10,-3.47331e-05,-3.78654,-0.307157,-0.192084,1.23352,0.212465,
2,0,0,1,0,60121.7,0.211344,0.210991,-0.166735,31,0.0194928,10,-3.51797e-05,-3.77797,-0.52705,-0.111944,0.725601,0.2109914,
2,0,0,1,0,60122,0.209846,0.209505,-0.166495,31,0.0194395,10,-3.48816e-05,-3.7786,-0.45532,-0.129579,0.843207,0.209505,
2,0,0,1,0,60122.3,0.208348,0.207965,-0.168629,31,0.0193858,10,-3.50689e-05,-3.77307,-0.320578,-0.184043,1.21536,0.207965,
2,0,0,1,0,60122.6,0.206849,0.206514,-0.171975,31,0.0193314,10,-3.55153e-05,-3.76453,-0.377209,-0.156412,1.04072,0.206514,
2,0,0,1,0,60122.9,0.205351,0.204978,-0.172749,31,0.0192763,10,-3.54098e-05,-3.76258,-0.823062,-0.0716836,0.480666,0.204978,
2,0,0,1,0,60123.2,0.203854,0.203497,-0.173492,31,0.019221,10,-3.53052e-05,-3.76072,-0.390666,-0.151024,1.02888,0.203497,
2,0,0,0,0,60123.5,0.202355,0.201967,-0.175331,31,0.0191653,10,-3.54111e-05,-3.75614,-0.278026,-0.212211,1.45657,0.201967,
2,0,0,0,0,60123.8,0.200857,0.200486,-0.176841,31,0.0191089,10,-3.54542e-05,-3.75242,-0.283388,-0.208195,1.44101,0.200486,
2,0,0,1,0,60124.1,0.199358,0.199012,-0.178915,31,0.0190518,10,-3.56063e-05,-3.74735,-0.507511,-0.116254,0.810929,0.199012,
2,0,0,1,0,60124.4,0.19786,0.197511,-0.180762,31,0.0189943,10,-3.57024e-05,-3.74289,-0.308711,-0.191118,1.34899,0.197511,
2,0,0,1,0,60124.7,0.196363,0.196032,-0.183074,31,0.0189365,10,-3.58884e-05,-3.73737,-0.341972,-0.172529,1.23149,0.196032,
2,0,0,1,0,60125,0.194864,0.194476,-0.185464,31,0.0188779,10,-3.60683e-05,-3.73174,-0.266951,-0.221014,1.5918,0.194476,
2,0,0,1,0,60125.3,0.193366,0.193006,-0.186882,31,0.0188185,10,-3.60694e-05,-3.72843,-0.278294,-0.212006,1.54619,0.193006,
2,0,0,1,0,60125.6,0.191867,0.191509,-0.188584,31,0.0187587,10,-3.61155e-05,-3.7245,-0.36678,-0.160859,1.18885,0.191509,
2,0,0,1,0,60125.9,0.190369,0.190058,-0.190433,31,0.0186983,10,-3.61932e-05,-3.72026,-0.354983,-0.166205,1.24114,0.190058,
2,0,0,1,0,60126.2,0.188871,0.188521,-0.192773,31,0.0186373,10,-3.63417e-05,-3.71495,-0.25609,-0.230388,1.72861,0.188521,
2,0,0,0,0,60126.5,0.187373,0.187011,-0.19571,31,0.0185755,10,-3.66e-05,-3.70839,-0.38428,-0.153534,1.16901,0.187011,
2,0,0,0,0,60126.8,0.185875,0.185495,-0.197256,31,0.0185132,10,-3.659e-05,-3.70497,-0.362059,-0.162957,1.25271,0.185495,
2,0,0,0,0,60127.1,0.184377,0.184018,-0.198038,31,0.0184503,10,-3.64425e-05,-3.70325,-0.298475,-0.197672,1.53532,0.184018,
2,0,0,1,0,60127.4,0.182878,0.182555,-0.199948,31,0.0183867,10,-3.65016e-05,-3.69908,-0.372713,-0.158299,1.24133,0.182555,
2,0,0,1,0,60127.7,0.181381,0.181017,-0.203771,31,0.0183224,10,-3.6886e-05,-3.69086,-0.260481,-0.226504,1.7976,0.181017,
2,0,0,1,0,60128,0.179882,0.179523,-0.205504,31,0.0182573,10,-3.68926e-05,-3.68718,-0.41972,-0.14057,1.12755,0.1795228,
2,0,0,1,0,60128.3,0.178384,0.178,-0.207475,31,0.0181916,10,-3.69306e-05,-3.68303,-0.32604,-0.180959,1.47172,0.178,
2,0,0,1,0,60128.6,0.176886,0.176572,-0.210382,31,0.0181254,10,-3.71474e-05,-3.67699,-0.270076,-0.218457,1.79657,0.176572,
2,0,0,1,0,60128.8,0.175387,0.175033,-0.212621,31,0.0180582,10,-3.72157e-05,-3.67239,-0.240921,-0.244894,2.03527,0.175033,
2,0,0,1,0,60129.1,0.173889,0.173558,-0.217009,31,0.0179902,10,-3.76636e-05,-3.66352,-0.274008,-0.215322,1.81501,0.173558,
2,0,0,1,0,60129.4,0.172392,0.172055,-0.219406,31,0.0179214,10,-3.77498e-05,-3.65875,-0.232478,-0.253787,2.17069,0.172055,
2,0,0,0,0,60129.7,0.170893,0.170538,-0.221431,31,0.0178519,10,-3.77624e-05,-3.65476,-0.246502,-0.239349,2.07329,0.170538,
2,0,0,0,0,60130,0.169395,0.169059,-0.225294,31,0.0177812,10,-3.8088e-05,-3.64725,-0.215389,-0.273923,2.39909,0.1690587,
2,0,0,1,0,60130.3,0.167896,0.167542,-0.228331,31,0.0177096,10,-3.82551e-05,-3.64143,-0.230533,-0.255929,2.29011,0.167542,
2,0,0,1,0,60130.6,0.166398,0.166021,-0.231712,31,0.017637,10,-3.84689e-05,-3.63505,-0.272,-0.216912,1.96652,0.166021,
2,0,0,1,0,60130.9,0.164901,0.164522,-0.23445,31,0.0175635,10,-3.85721e-05,-3.62995,-0.231967,-0.254347,2.33318,0.164522,
2,0,0,1,0,60131.2,0.163402,0.163035,-0.239115,31,0.0174889,10,-3.8984e-05,-3.62139,-0.21434,-0.275264,2.56588,0.163035,
2,0,0,1,0,60131.5,0.161904,0.161544,-0.243002,31,0.0174132,10,-3.92554e-05,-3.61439,-0.211316,-0.279203,2.64191,0.161544,
2,0,0,1,0,60131.8,0.160405,0.160057,-0.246936,31,0.0173361,10,-3.95239e-05,-3.60742,-0.21144,-0.279039,2.67897,0.160057,
2,0,0,1,0,60132.1,0.158907,0.158522,-0.249223,31,0.017258,10,-3.95074e-05,-3.60341,-0.199755,-0.295362,2.89978,0.158522,
2,0,0,1,0,60132.4,0.157409,0.157073,-0.255633,31,0.0171787,10,-4.01531e-05,-3.59238,-0.166362,-0.354649,3.54621,0.157073,
2,0,0,0,0,60132.7,0.155911,0.155515,-0.26044,31,0.0170978,10,-4.05023e-05,-3.58429,-0.174377,-0.338347,3.44633,0.155515,
2,0,0,0,0,60133,0.154413,0.15406,-0.265116,31,0.0170151,10,-4.08438e-05,-3.57656,-0.176242,-0.334766,3.47111,0.15406,
2,0,0,0,0,60133.3,0.152915,0.152556,-0.272132,31,0.0169308,10,-4.15153e-05,-3.56522,-0.147823,-0.399127,4.24645,0.152556,
2,0,0,1,0,60133.6,0.151416,0.151072,-0.279178,31,0.0168448,10,-4.21759e-05,-3.55412,-0.138809,-0.425044,4.63996,0.151072,
2,0,0,1,0,60133.9,0.149919,0.14953,-0.287204,31,0.0167564,10,-4.29458e-05,-3.54181,-0.126474,-0.466498,5.20985,0.14953,
2,0,0,1,0,60134.2,0.14842,0.14812,-0.294535,31,0.0166656,10,-4.36265e-05,-3.53086,-0.124281,-0.474732,5.46888,0.14812,
2,0,0,1,0,60134.5,0.146922,0.146579,-0.303862,31,0.0165723,10,-4.45398e-05,-3.51732,-0.114217,-0.516558,6.13886,0.146579,
2,0,0,1,0,60134.8,0.145424,0.145056,-0.312646,31,0.0164763,10,-4.53513e-05,-3.50495,-0.100215,-0.588735,7.22566,0.145056,
2,0,0,1,0,60135.1,0.143925,0.143544,-0.32409,31,0.0163769,10,-4.65211e-05,-3.48933,-0.0883246,-0.667991,8.48111,0.143544,
2,0,0,1,0,60135.4,0.142427,0.142116,-0.338125,31,0.0162738,10,-4.8053e-05,-3.47092,-0.0857649,-0.687927,9.08847,0.142116,
2,0,0,1,0,60135.7,0.14093,0.140576,-0.350016,31,0.0161668,10,-4.92041e-05,-3.45591,-0.0887522,-0.664773,9.12282,0.140576,
2,0,0,0,0,60136,0.139431,0.139075,-0.363749,31,0.0160557,10,-5.05883e-05,-3.4392,-0.0853767,-0.691055,9.86985,0.139075,
2,0,0,0,0,60136.3,0.137933,0.137589,-0.381211,31,0.0159404,10,-5.24504e-05,-3.41883,-0.0859751,-0.686245,10.1774,0.137589,
2,0,0,1,0,60136.6,0.136434,0.136081,-0.396659,31,0.0158202,10,-5.39777e-05,-3.40158,-0.0844556,-0.698592,10.7892,0.136081,
2,0,0,1,0,60136.9,0.134936,0.134603,-0.413461,31,0.0156952,10,-5.5653e-05,-3.38357,-0.0896028,-0.658462,10.5933,0.134603,
2,0,0,1,0,60137.2,0.133439,0.133058,-0.429562,31,0.0155651,10,-5.71568e-05,-3.36697,-0.0847527,-0.696143,11.6623,0.133058,
2,0,0,1,0,60137.5,0.13194,0.131553,-0.446064,31,0.0154301,10,-5.86811e-05,-3.3506,-0.091347,-0.645889,11.2746,0.131553,
2,0,0,1,0,60137.8,0.130442,0.130077,-0.46334,31,0.0152898,10,-6.02699e-05,-3.3341,-0.0953574,-0.618725,11.1766,0.130077,
2,0,0,1,0,60138.1,0.128943,0.12864,-0.480411,31,0.0151442,10,-6.18e-05,-3.31839,-0.103095,-0.572288,10.6951,0.12864,
2,0,0,1,0,60138.4,0.127445,0.127054,-0.496503,31,0.0149939,10,-6.30827e-05,-3.30408,-0.114292,-0.51622,9.96962,0.127054,
2,0,0,1,0,60138.7,0.125947,0.125568,-0.51173,31,0.0148392,10,-6.42572e-05,-3.29096,-0.123562,-0.477495,9.49938,0.125568,
2,0,0,0,0,60139,0.124449,0.124094,-0.525048,31,0.0146799,10,-6.51555e-05,-3.2798,-0.13088,-0.450796,9.20754,0.124094,
2,0,0,0,0,60139.3,0.122951,0.122585,-0.537722,31,0.0145167,10,-6.59168e-05,-3.26944,-0.156789,-0.376302,7.87251,0.122585,
2,0,0,0,0,60139.6,0.121453,0.121119,-0.548694,31,0.01435,10,-6.64571e-05,-3.26067,-0.18946,-0.311412,6.65608,0.121119,
2,0,0,1,0,60139.9,0.119954,0.1196,-0.556632,31,0.0141805,10,-6.65733e-05,-3.25443,-0.217981,-0.270666,5.87564,0.1196,
2,0,0,1,0,60140.2,0.118456,0.118081,-0.56575,31,0.0140081,10,-6.68043e-05,-3.24738,-0.232391,-0.253883,5.5895,0.118081,
2,0,0,1,0,60140.5,0.116958,0.116559,-0.573279,31,0.0138334,10,-6.68209e-05,-3.24163,-0.343827,-0.171598,3.82574,0.116559,
2,0,0,1,0,60140.8,0.11546,0.115119,-0.577987,31,0.0136569,10,-6.65373e-05,-3.23808,-0.532388,-0.110821,2.48965,0.115119,
2,0,0,1,0,60141.1,0.113962,0.113613,-0.578619,31,0.0134794,10,-6.57388e-05,-3.23761,-0.755289,-0.0781158,1.76605,0.113613,
2,0,0,1,0,60141.4,0.112463,0.112123,-0.581959,31,0.0133013,10,-6.52511e-05,-3.23511,-1.60651,-0.0367256,0.834073,0.112123,
2,0,0,1,0,60141.7,0.110965,0.110605,-0.583725,31,0.0131225,10,-6.45628e-05,-3.23379,-3.12791,-0.0188624,0.429183,0.110605,
2,0,0,1,0,60142,0.109468,0.109107,-0.58492,31,0.0129434,10,-6.38189e-05,-3.2329,4.80847,0.01227,-0.279078,0.109107,
2,0,0,0,0,60142.3,0.107969,0.107628,-0.583373,31,0.0127642,10,-6.27875e-05,-3.23405,2.23589,0.0263877,-0.601407,0.107628,
2,0,0,0,0,60142.6,0.106471,0.106128,-0.582743,31,0.0125856,10,-6.18452e-05,-3.23452,3.40174,0.0173441,-0.39518,0.106128,
2,0,0,1,0,60142.9,0.104972,0.104632,-0.582699,31,0.0124069,10,-6.09691e-05,-3.23456,5.91173,0.00998015,-0.226576,0.104632,
2,0,0,1,0,60143.2,0.103474,0.103149,-0.58235,31,0.0122283,10,-6.00689e-05,-3.23482,0.910691,0.0647859,-1.46787,0.103149,
2,0,0,1,0,60143.5,0.101977,0.101636,-0.580303,31,0.0120503,10,-5.89798e-05,-3.23635,1.21801,0.0484397,-1.09423,0.101636,
2,0,0,1,0,60143.8,0.100478,0.100139,-0.576935,31,0.0118731,10,-5.77735e-05,-3.23887,1.14743,0.0514194,-1.15858,0.100139,
2,0,0,1,0,60144.1,0.0989798,0.098653,-0.576006,31,0.0116963,10,-5.68247e-05,-3.23957,2.11711,0.0278682,-0.625747,0.098653,
2,0,0,1,0,60144.4,0.0974812,0.0971744,-0.574065,31,0.0115198,10,-5.57844e-05,-3.24104,1.17671,0.0501399,-1.12289,0.0971744,
2,0,0,1,0,60144.7,0.0959834,0.0956414,-0.572624,31,0.0113439,10,-5.47666e-05,-3.24213,0.921115,0.0640528,-1.43188,0.0956414,
2,0,0,1,0,60145,0.0944855,0.0941815,-0.568874,31,0.0111689,10,-5.35773e-05,-3.24498,0.910579,0.064794,-1.44366,0.0941815,
2,0,0,0,0,60145.3,0.0929871,0.0926161,-0.567966,31,0.0109944,10,-5.26028e-05,-3.24568,1.11936,0.0527088,-1.16679,0.0926161,
2,0,0,0,0,60145.6,0.0914889,0.0911358,-0.568356,31,0.0108203,10,-5.17975e-05,-3.24538,0.805866,0.0732132,-1.61554,0.0911358,
2,0,0,0,0,60145.9,0.0899907,0.0896438,-0.563871,31,0.010647,10,-5.05476e-05,-3.24882,0.750929,0.0785694,-1.72535,0.0896438,
2,0,0,1,0,60146.2,0.0884923,0.0881622,-0.558847,31,0.0104748,10,-4.92692e-05,-3.25271,0.6195,0.095238,-2.08116,0.0881622,
2,0,0,1,0,60146.5,0.0869946,0.086643,-0.557673,31,0.0103036,10,-4.83185e-05,-3.25362,0.679341,0.0868489,-1.89153,0.08664304,
2,0,0,1,0,60146.8,0.0854961,0.0851498,-0.553829,31,0.0101331,10,-4.71584e-05,-3.25662,0.612132,0.0963845,-2.08524,0.0851498,
2,0,0,1,0,60147.1,0.083998,0.0836578,-0.550545,31,0.00996341,10,-4.60574e-05,-3.25921,0.452407,0.130414,-2.80249,0.0836578,
2,0,0,1,0,60147.4,0.0824998,0.0821711,-0.548044,31,0.00979484,10,-4.50334e-05,-3.26118,0.51761,0.113986,-2.43849,0.08217112,
2,0,0,1,0,60147.7,0.0810014,0.0806556,-0.543492,31,0.00962758,10,-4.38357e-05,-3.26481,0.62666,0.0941499,-2.00146,0.0806556,
2,0,0,1,0,60148,0.0795035,0.0791532,-0.541893,31,0.00946104,10,-4.28926e-05,-3.26609,0.642607,0.0918135,-1.93881,0.07915318,
2,0,0,1,0,60148.3,0.0780056,0.0776448,-0.539272,31,0.0092953,10,-4.18717e-05,-3.26819,0.520884,0.113269,-2.37615,0.0776448,
2,0,0,0,0,60148.6,0.076507,0.0761067,-0.535498,31,0.00913054,10,-4.0755e-05,-3.27124,0.490327,0.120328,-2.51309,0.07610666,
2,0,0,0,0,60148.9,0.0750088,0.0746836,-0.531192,31,0.00896725,10,-3.96713e-05,-3.27475,0.663369,0.0889399,-1.84586,0.0746836,
2,0,0,1,0,60149.2,0.0735103,0.0731457,-0.528254,31,0.00880458,10,-3.86396e-05,-3.27716,0.739539,0.0797795,-1.6415,0.07314574,
2,0,0,1,0,60149.5,0.0720124,0.0716519,-0.526214,31,0.00864282,10,-3.77042e-05,-3.27884,0.606582,0.0972664,-1.99532,0.0716519,
2,0,0,1,0,60149.8,0.0705146,0.0701348,-0.52193,31,0.00848213,10,-3.66055e-05,-3.28239,0.567532,0.103959,-2.11859,0.0701348,
2,0,0,1,0,60150.1,0.069016,0.0687103,-0.5178,31,0.00832248,10,-3.55782e-05,-3.28584,0.554569,0.106389,-2.15624,0.0687103,
2,0,0,1,0,60150.4,0.0675179,0.0671398,-0.515957,31,0.00816382,10,-3.46413e-05,-3.28739,0.682923,0.0863933,-1.7379,0.0671398,
2,0,0,1,0,60150.7,0.0660192,0.0656515,-0.515089,31,0.00800591,10,-3.38164e-05,-3.28812,0.666782,0.0884847,-1.77101,0.0656515,
2,0,0,1,0,60151,0.0645214,0.0641939,-0.510321,31,0.00784886,10,-3.27595e-05,-3.29216,0.485191,0.121602,-2.4164,0.0641939,
2,0,0,1,0,60151.3,0.0630235,0.0627023,-0.505165,31,0.00769282,10,-3.1675e-05,-3.29657,0.544238,0.108408,-2.14418,0.0627023,
2,0,0,0,0,60151.6,0.0615251,0.0611867,-0.503551,31,0.00753796,10,-3.08106e-05,-3.29796,0.485975,0.121405,-2.38853,0.0611867,
2,0,0,0,0,60151.9,0.0600269,0.0596958,-0.500244,31,0.00738398,10,-2.98625e-05,-3.30082,0.563296,0.104741,-2.04674,0.0596958,
2,0,0,0,0,60152.2,0.0585287,0.0581561,-0.497946,31,0.0072307,10,-2.89586e-05,-3.30282,0.425537,0.138648,-2.68077,0.0581561,
2,0,0,1,0,60152.5,0.0570303,0.0566851,-0.494718,31,0.00707833,10,-2.80432e-05,-3.30564,0.446326,0.13219,-2.54771,0.05668515,
2,0,0,1,0,60152.8,0.0555325,0.0552188,-0.49072,31,0.00692733,10,-2.7097e-05,-3.30917,0.626319,0.0942012,-1.80839,0.0552188,
2,0,0,1,0,60153.1,0.0540342,0.053713,-0.488015,31,0.00677701,10,-2.62128e-05,-3.31157,0.540901,0.109077,-2.0728,0.05371299,
2,0,0,1,0,60153.4,0.052536,0.0521712,-0.484975,31,0.0066274,10,-2.53017e-05,-3.31428,0.462564,0.12755,-2.41116,0.05217116,
2,0,0,1,0,60153.7,0.0510378,0.0507089,-0.4808,31,0.00647897,10,-2.43808e-05,-3.31804,0.413387,0.142723,-2.67715,0.0507089,
2,0,0,1,0,60154,0.0495394,0.0491826,-0.47594,31,0.00633188,10,-2.34079e-05,-3.32245,0.48809,0.120879,-2.25346,0.0491826,
2,0,0,1,0,60154.3,0.0480415,0.0477271,-0.47359,31,0.00618562,10,-2.26031e-05,-3.3246,0.733959,0.080386,-1.4843,0.0477271,
2,0,0,1,0,60154.6,0.0465436,0.0461358,-0.469817,31,0.00604023,10,-2.16754e-05,-3.32807,0.498803,0.118283,-2.17493,0.0461358,
2,0,0,0,0,60154.9,0.045045,0.044707,-0.467146,31,0.00589585,10,-2.08847e-05,-3.33055,0.442889,0.133216,-2.43025,0.044707,
2,0,0,0,0,60155.2,0.0435468,0.0431715,-0.461277,31,0.00575274,10,-1.9914e-05,-3.33604,0.410779,0.14363,-2.5987,0.0431715,
2,0,0,1,0,60155.5,0.0420483,0.041693,-0.460965,31,0.00561055,10,-1.9219e-05,-3.33633,0.543142,0.108627,-1.94975,0.041693,
2,0,0,1,0,60155.8,0.0405504,0.0401822,-0.459087,31,0.00546924,10,-1.84471e-05,-3.3381,0.480293,0.122842,-2.18973,0.0401822,
2,0,0,1,0,60156.1,0.0390526,0.0387596,-0.453412,31,0.00532881,10,-1.75741e-05,-3.34351,0.425439,0.13868,-2.45299,0.0387596,
2,0,0,1,0,60156.4,0.0375541,0.0372078,-0.450718,31,0.00518943,10,-1.67702e-05,-3.3461,0.432344,0.136465,-2.39966,0.0372078,
2,0,0,1,0,60156.7,0.0360559,0.0356935,-0.447296,31,0.00505135,10,-1.59656e-05,-3.3494,0.474806,0.124261,-2.17428,0.0356935,
2,0,0,1,0,60157,0.0345572,0.0341831,-0.443756,31,0.00491405,10,-1.51689e-05,-3.35286,0.587899,0.100357,-1.74031,0.0341831,
2,0,0,1,0,60157.3,0.0330594,0.0326447,-0.441448,31,0.00477757,10,-1.44109e-05,-3.35512,0.441571,0.133614,-2.29649,0.0326447,
2,0,0,1,0,60157.6,0.0315615,0.0311701,-0.43882,31,0.00464208,10,-1.36781e-05,-3.35771,0.448898,0.131433,-2.25119,0.0311701,
2,0,0,0,0,60157.9,0.0300631,0.0297149,-0.435185,31,0.00450782,10,-1.29315e-05,-3.36133,0.574488,0.1027,-1.74374,0.0297149,
2,0,0,0,0,60158.2,0.0285649,0.0282219,-0.432701,31,0.00437419,10,-1.22116e-05,-3.36381,0.73667,0.0800901,-1.34907,0.0282219,
2,0,0,0,0,60158.5,0.0270667,0.0266843,-0.430327,31,0.00424131,10,-1.1483e-05,-3.3662,0.610691,0.0966119,-1.61835,0.0266843,
2,0,0,1,0,60158.8,0.0255683,0.0252374,-0.426232,31,0.00410929,10,-1.0757e-05,-3.37035,0.505025,0.116826,-1.94563,0.0252374,
2,0,0,1,0,60159.1,0.0240706,0.0237101,-0.423346,31,0.00397833,10,-1.00376e-05,-3.3733,0.573611,0.102857,-1.70601,0.0237101,
2,0,0,1,0,60159.4,0.0225722,0.0222221,-0.421644,31,0.00384793,10,-9.36982e-06,-3.37505,0.861231,0.0685066,-1.12728,0.0222221,
2,0,0,1,0,60159.7,0.021074,0.0206845,-0.419398,31,0.0037181,10,-8.67503e-06,-3.37737,0.963553,0.0612317,-1.00361,0.02068451,
2,0,0,1,0,60160,0.0195758,0.0192275,-0.417276,31,0.00358898,10,-8.02318e-06,-3.37958,0.675921,0.0872883,-1.42209,0.01922751,
2,0,0,1,0,60160.3,0.0180774,0.017732,-0.412569,31,0.00346056,10,-7.31569e-06,-3.3845,1.04292,0.056572,-0.917805,0.017732,
2,0,0,1,0,60160.6,0.0165795,0.0162118,-0.413379,31,0.00333277,10,-6.7016e-06,-3.38365,1.21565,0.0485335,-0.784468,0.0162118,
2,0,0,1,0,60160.9,0.0150817,0.0147616,-0.413848,31,0.00320517,10,-6.10906e-06,-3.38316,1.1726,0.0503154,-0.80927,0.0147616,
2,0,0,0,0,60161.2,0.013583,0.0132097,-0.410776,31,0.00307788,10,-5.42623e-06,-3.3864,0.766615,0.0769617,-1.23339,0.0132097,
2,0,0,0,0,60161.5,0.0120848,0.0116891,-0.410486,31,0.0029511,10,-4.7982e-06,-3.3867,0.966038,0.0610742,-0.980654,0.0116891,
2,0,0,1,0,60161.8,0.0105863,0.0102105,-0.409307,31,0.00282482,10,-4.17925e-06,-3.38795,3.31717,0.0177862,-0.284566,0.0102105,
2,0,0,1,0,60162.1,0.00908846,0.0087051,-0.409095,31,0.00269859,10,-3.56121e-06,-3.38818,8.02316,0.00735371,-0.117271,0.0087051,
2,0,0,1,0,60162.4,0.0075906,0.0072676,-0.409586,31,0.0025724,10,-2.97671e-06,-3.38765,16.0615,0.00367338,-0.0585851,0.0072676,
2,0,0,1,0,60162.7,0.00609207,0.00573172,-0.409697,31,0.00244624,10,-2.34827e-06,-3.38754,-11.9285,-0.00494615,0.0789556,0.00573172,
2,0,0,1,0,60163,0.00459389,0.00425775,-0.408891,31,0.00232028,10,-1.74096e-06,-3.38839,-2.83259,-0.020829,0.33242,0.004257753,
2,0,0,1,0,60163.3,0.00309525,0.00269338,-0.409847,31,0.002194,10,-1.10388e-06,-3.38738,-0.887192,-0.0665019,1.0644,0.00269338,
2,0,0,1,0,60163.6,0.00159739,0.00118345,-0.415183,31,0.00206608,10,-4.91347e-07,-3.38176, , , ,0.001183446,
2,0,0,0,0,60163.9,0.000199195,-0.000189804,-0.411339,31,0.00194738,10,7.80735e-08,-3.3858, , , ,-0.000189804,