File: Figure_codes/Fig_3-5/rawdata_trumpetplot_data/after 10th/20221101_1-115_003_TrumpetPlot_ParaChange_from10_every3_02_CV_C01_10.csv
mode,ox/red,error,control changes,counter inc.,time/s,control/V,Ewe/V,<I>/mA,cycle number,(Q-Qo)/C,I Range,P/W,log(|I|),Tafel slope mV/dec,alpha_eff,dI/d(E-IR),E-IR/V,
2,0,0,1,0,20041.3,2.44065e-05,-0.000382585,-0.373524,11,0.0000000E+000,10,1.42905e-07,-3.42768, , , ,-0.000382585,
2,0,0,1,0,20042.6,0.00129791,0.000893139,-0.177027,11,-0.000258249,10,-1.5811e-07,-3.75196, , , ,0.000893139,
2,0,0,1,0,20044.1,0.00279612,0.0024753,-0.141423,11,-0.000474105,10,-3.50064e-07,-3.84948,-0.01735,-3.40057,20.2653,0.0024753,
2,0,0,1,0,20045.6,0.00429431,0.00396829,-0.121594,11,-0.000651922,10,-4.82522e-07,-3.91509,-0.0247085,-2.38784,11.4689,0.00396829,
2,0,0,1,0,20047.1,0.00579242,0.00544433,-0.106343,11,-0.000803655,10,-5.78966e-07,-3.97329,-0.0273209,-2.15952,9.098,0.00544433,
2,0,0,1,0,20048.6,0.00729061,0.00697452,-0.0943953,11,-0.000935464,10,-6.58362e-07,-4.02505,-0.0298989,-1.97331,7.34586,0.00697452,
2,0,0,1,0,20050.1,0.00878882,0.00851527,-0.0842123,11,-0.00105107,10,-7.17091e-07,-4.07462,-0.0324941,-1.81571,6.06743,0.00851527,
2,0,0,1,0,20051.6,0.010287,0.00995852,-0.0759173,11,-0.00115335,10,-7.56024e-07,-4.11966,-0.0348637,-1.6923,5.07943,0.00995852,
2,0,0,1,0,20053.1,0.0117852,0.0114792,-0.0697586,11,-0.00124502,10,-8.0077e-07,-4.1564,-0.0373965,-1.57769,4.28687,0.0114792,
2,0,0,1,0,20054.6,0.0132834,0.0129479,-0.0635164,11,-0.00132698,10,-8.22401e-07,-4.19711,-0.0367356,-1.60607,3.95983,0.0129479,
2,0,0,1,0,20056.1,0.0147815,0.0144789,-0.0579045,11,-0.00139996,10,-8.38396e-07,-4.23729,-0.0384029,-1.53634,3.48135,0.0144789,
2,0,0,1,0,20057.6,0.0162797,0.0159317,-0.0533057,11,-0.00146553,10,-8.4925e-07,-4.27323,-0.0445785,-1.32351,2.75547,0.0159317,
2,0,0,1,0,20059.1,0.0177779,0.0174555,-0.0491211,11,-0.00152465,10,-8.57435e-07,-4.30873,-0.0408924,-1.44281,2.72821,0.0174555,
2,0,0,1,0,20060.6,0.0192761,0.0189253,-0.0446061,11,-0.00157783,10,-8.44182e-07,-4.35061,-0.0381301,-1.54734,2.69575,0.0189253,
2,0,0,1,0,20062.1,0.0207743,0.0204045,-0.0408603,11,-0.0016246,10,-8.33735e-07,-4.3887,-0.0394351,-1.49613,2.38332,0.0204045,
2,0,0,1,0,20063.6,0.0222725,0.0219549,-0.0370199,11,-0.00166552,10,-8.12767e-07,-4.43157,-0.0360768,-1.6354,2.37953,0.0219549,
2,0,0,1,0,20065.1,0.0237707,0.0234617,-0.0339214,11,-0.00170129,10,-7.95854e-07,-4.46953,-0.0354671,-1.66351,2.19586,0.0234617,
2,0,0,1,0,20066.6,0.0252689,0.024924,-0.0304848,11,-0.00173234,10,-7.59804e-07,-4.51592,-0.03379,-1.74608,2.08341,0.024924,
2,0,0,1,0,20068.1,0.0267671,0.0264574,-0.0277401,11,-0.0017584,10,-7.33931e-07,-4.55689,-0.0313015,-1.8849,2.02939,0.0264574,
2,0,0,1,0,20069.6,0.0282653,0.0279483,-0.0243634,11,-0.00177983,10,-6.80916e-07,-4.61326,-0.0288522,-2.04491,1.93548,0.0279483,
2,0,0,1,0,20071.1,0.0297635,0.0294318,-0.0216882,11,-0.00179663,10,-6.38323e-07,-4.66378,-0.0273513,-2.15712,1.79773,0.0294318,
2,0,0,1,0,20072.6,0.0312617,0.0309238,-0.0197393,11,-0.00180937,10,-6.10416e-07,-4.70467,-0.0243688,-2.42113,1.74213,0.0309238,
2,0,0,1,0,20074.1,0.0327599,0.0324519,-0.0163941,11,-0.00181815,10,-5.3202e-07,-4.78531,-0.0197242,-2.99125,1.86333,0.0324519,
2,0,0,1,0,20075.6,0.0342581,0.0339205,-0.013315,11,-0.0018225,10,-4.51653e-07,-4.87566,-0.0190739,-3.09323,1.60798,0.0339205,
2,0,0,1,0,20077.1,0.0357563,0.0354253,-0.0109547,11,-0.00182281,10,-3.88073e-07,-4.9604,-0.016717,-3.52933,1.52202,0.0354253,
2,0,0,1,0,20078.6,0.0372544,0.0369013,-0.00873842,11,-0.00181961,10,-3.22459e-07,-5.05857,-0.0105479,-5.59354,1.69108,0.0369013,
2,0,0,1,0,20080.1,0.0387526,0.0384283,-0.00645204,11,-0.0018129,10,-2.47941e-07,-5.1903,-0.00697247,-8.46185,1.65415,0.0384283,
2,0,0,1,0,20081.6,0.0402508,0.0399128,-0.00343653,11,-0.00180188,10,-1.37162e-07,-5.46388,-0.00396356,-14.8856,1.45716,0.0399128,
2,0,0,1,0,20083.1,0.041749,0.0414091,-0.00147694,11,-0.00178705,10,-6.1159e-08,-5.83064,-0.00822303,-7.17497,1.31998,0.0414091,
2,0,0,1,0,20084.6,0.0432472,0.0429223,0.0011488,11,-0.00176903,10,4.93093e-08,-5.93975,0.0221807,2.65996,1.58214,0.0429223,
2,0,0,1,0,20086.1,0.0447454,0.0444047,0.00330372,11,-0.00174791,10,1.46701e-07,-5.481,0.00330712,17.8403,1.32193,0.0444047,
2,1,0,1,0,20087.6,0.0462435,0.0459073,0.00553408,11,-0.00172313,10,2.54055e-07,-5.25695,0.00756261,7.80154,1.39307,0.0459073,
2,0,0,1,0,20089.1,0.0477417,0.0473685,0.00718126,11,-0.00169541,10,3.40165e-07,-5.1438,0.0119036,4.95648,1.3123,0.0473685,
2,1,0,1,0,20090.5,0.0492399,0.0488977,0.00940776,11,-0.00166454,10,4.60017e-07,-5.02651,0.0167636,3.51954,1.24272,0.0488977,
2,1,0,1,0,20092,0.0507381,0.0504024,0.0112867,11,-0.00163098,10,5.68878e-07,-4.94743,0.0183721,3.21139,1.39028,0.0504024,
2,0,0,1,0,20093.5,0.0522363,0.0518975,0.013059,11,-0.001594,10,6.77732e-07,-4.88409,0.0192275,3.06852,1.55153,0.05189753,
2,1,0,1,0,20095,0.0537345,0.0534055,0.0154242,11,-0.00155366,10,8.23735e-07,-4.8118,0.0266521,2.21371,1.33356,0.0534055,
2,1,0,1,0,20096.5,0.0552327,0.0549345,0.0180379,11,-0.00151037,10,9.90906e-07,-4.74381,0.0294655,2.00234,1.31164,0.0549345,
2,1,0,1,0,20098,0.0567309,0.0564022,0.0185588,11,-0.00146417,10,1.04675e-06,-4.73145,0.032554,1.81237,1.37743,0.0564022,
2,1,0,1,0,20099.5,0.0582291,0.0579291,0.0211186,11,-0.00141519,10,1.22338e-06,-4.67534,0.0416041,1.41813,1.16571,0.0579291,
2,1,0,1,0,20101,0.0597273,0.059401,0.0233825,11,-0.00136273,10,1.38895e-06,-4.63111,0.0454852,1.29713,1.17358,0.059401,
2,1,0,1,0,20102.5,0.0612255,0.0608983,0.0246653,11,-0.00130798,10,1.50207e-06,-4.60791,0.0659322,0.894858,0.86407,0.0608983,
2,1,0,1,0,20104,0.0627237,0.0624402,0.0265085,11,-0.00125077,10,1.6552e-06,-4.57661,0.0595712,0.990412,1.02685,0.0624402,
2,1,0,1,0,20105.5,0.0642219,0.0639067,0.0276339,11,-0.00119163,10,1.76599e-06,-4.55856,0.0526961,1.11963,1.23962,0.0639067,
2,1,0,1,0,20107,0.0657201,0.0654475,0.030117,11,-0.00112961,10,1.97108e-06,-4.52119,0.0684913,0.861423,1.0019,0.0654475,
2,1,0,1,0,20108.5,0.0672183,0.0669077,0.0316596,11,-0.00106466,10,2.11827e-06,-4.4995,0.067653,0.872098,1.06029,0.0669077,
2,1,0,1,0,20110,0.0687164,0.068371,0.0329676,11,-0.0009978,10,2.25402e-06,-4.48191,0.0693909,0.850256,1.09285,0.068371,
2,1,0,1,0,20111.5,0.0702146,0.0698821,0.034633,11,-0.000928571,10,2.42023e-06,-4.46051,0.0643797,0.916437,1.2149,0.0698821,
2,1,0,1,0,20113,0.0717128,0.0713953,0.0360104,11,-0.000856698,10,2.57098e-06,-4.44357,0.082765,0.712861,1.00518,0.0713953,
2,1,0,1,0,20114.5,0.073211,0.0728788,0.0375207,11,-0.000782582,10,2.73447e-06,-4.42573,0.0814572,0.724306,1.06277,0.0728788,
2,1,0,1,0,20116,0.0747092,0.0743856,0.0390766,11,-0.000706172,10,2.90674e-06,-4.40808,0.0950995,0.620403,0.953833,0.0743856,
2,1,0,1,0,20117.5,0.0762074,0.0758755,0.0398161,11,-0.000628351,10,3.02106e-06,-4.39994,0.0938341,0.62877,1.00407,0.0758755,
2,1,0,1,0,20119,0.0777055,0.077343,0.0419599,11,-0.00054772,10,3.24531e-06,-4.37717,0.0817272,0.721914,1.16778,0.077343,
2,1,0,1,0,20120.5,0.0792037,0.0788594,0.0436799,11,-0.000464971,10,3.44457e-06,-4.35972,0.117519,0.502047,0.842853,0.0788594,
2,1,0,1,0,20122,0.0807019,0.0803588,0.0445895,11,-0.000380064,10,3.58316e-06,-4.35077,0.102205,0.577271,1.00565,0.0803588,
2,1,0,1,0,20123.5,0.0822001,0.0818752,0.0454311,11,-0.000293365,10,3.71968e-06,-4.34265,0.0980263,0.601879,1.0815,0.0818752,
2,1,0,1,0,20125,0.0836983,0.0833693,0.0477002,11,-0.000204183,10,3.97673e-06,-4.32148,0.100597,0.5865,1.10372,0.0833693,
2,1,0,1,0,20126.5,0.0851965,0.0848635,0.0494919,11,-0.00011224,10,4.20005e-06,-4.30547,0.101012,0.584091,1.13296,0.0848635,
2,1,0,1,0,20128,0.0866947,0.0863502,0.0514096,11,-1.76849e-05,10,4.43923e-06,-4.28896,0.116431,0.506737,1.01453,0.0863502,
2,1,0,1,0,20129.5,0.0881929,0.0878644,0.0531798,11,7.98875e-05,10,4.67262e-06,-4.27425,0.0912466,0.646599,1.33599,0.0878644,
2,1,0,1,0,20131,0.0896911,0.0893458,0.05505,11,0.00017992,10,4.91848e-06,-4.25924,0.107243,0.550152,1.18546,0.08934582,
2,1,0,1,0,20132.5,0.0911893,0.0908261,0.0572407,11,0.000282833,10,5.19895e-06,-4.2423,0.107854,0.547037,1.21769,0.0908261,
2,1,0,1,0,20134,0.0926875,0.0923733,0.0592187,11,0.000389199,10,5.47023e-06,-4.22754,0.100825,0.585174,1.34684,0.0923733,
2,1,0,1,0,20135.5,0.0941857,0.0938643,0.0609728,11,0.000498393,10,5.72316e-06,-4.21486,0.0962809,0.61279,1.45763,0.0938643,
2,1,0,1,0,20137,0.0956839,0.095386,0.0630036,11,0.000609943,10,6.00966e-06,-4.20063,0.0970476,0.607949,1.50397,0.095386,
2,1,0,1,0,20138.5,0.0971821,0.0968567,0.0653308,11,0.000725399,10,6.32773e-06,-4.18488,0.0886082,0.665852,1.68666,0.0968567,
2,1,0,1,0,20140,0.0986803,0.0983403,0.0674473,11,0.000844389,10,6.63278e-06,-4.17104,0.0951442,0.620112,1.64045,0.0983403,
2,1,0,1,0,20141.5,0.100178,0.0998385,0.069688,11,0.000966911,10,6.95755e-06,-4.15684,0.112208,0.525807,1.43144,0.0998385,
2,1,0,1,0,20143,0.101677,0.101349,0.0716039,11,0.0010925,10,7.25695e-06,-4.14506,0.117887,0.50048,1.41222,0.101349,
2,1,0,1,0,20144.5,0.103175,0.102859,0.0745393,11,0.00122144,10,7.66701e-06,-4.12761,0.106987,0.551467,1.58713,0.102859,
2,1,0,1,0,20146,0.104673,0.104329,0.0772772,11,0.00135428,10,8.06229e-06,-4.11195,0.123966,0.475937,1.41632,0.104329,
2,1,0,1,0,20147.5,0.106171,0.105832,0.0787784,11,0.00149008,10,8.33727e-06,-4.10359,0.131411,0.448972,1.37686,0.105832,
2,1,0,1,0,20149,0.107669,0.10734,0.079772,11,0.00162865,10,8.56272e-06,-4.09815,0.141399,0.417258,1.31071,0.10734,
2,1,0,1,0,20150.5,0.109167,0.108884,0.0827366,11,0.00177033,10,9.00867e-06,-4.0823,0.138774,0.425151,1.37708,0.108884,
2,1,0,1,0,20152,0.110666,0.110365,0.0843696,11,0.00191497,10,9.31146e-06,-4.07381,0.187691,0.314347,1.03849,0.110365,
2,1,0,1,0,20153.5,0.112164,0.111853,0.0873393,11,0.00206298,10,9.76915e-06,-4.05879,0.185552,0.317971,1.06747,0.111853,
2,1,0,1,0,20155,0.113662,0.113384,0.0883381,11,0.00221361,10,1.00161e-05,-4.05385,0.135451,0.435583,1.50424,0.113384,
2,1,0,1,0,20156.5,0.11516,0.114818,0.0908882,11,0.00236619,10,1.04356e-05,-4.04149,0.194474,0.303383,1.06581,0.114818,
2,1,0,1,0,20158,0.116658,0.116353,0.09201,11,0.00252253,10,1.07057e-05,-4.03617,0.15553,0.379347,1.36016,0.116353,
2,1,0,1,0,20159.5,0.118157,0.117847,0.0946452,11,0.00268176,10,1.11537e-05,-4.0239,0.198827,0.296741,1.08397,0.117847,
2,1,0,1,0,20161,0.119655,0.11933,0.09595,11,0.00284367,10,1.14497e-05,-4.01796,0.224515,0.262789,0.978794,0.11933,
2,1,0,1,0,20162.5,0.121153,0.120855,0.096718,11,0.00300723,10,1.16888e-05,-4.01449,0.217815,0.270872,1.02752,0.120855,
2,1,0,1,0,20164,0.122651,0.122366,0.0990616,11,0.00317378,10,1.21218e-05,-4.00409,0.13335,0.442443,1.70811,0.122366,
2,1,0,1,0,20165.5,0.124149,0.123803,0.100862,11,0.00334313,10,1.2487e-05,-3.99627,0.20799,0.283667,1.1156,0.123803,
2,1,0,1,0,20167,0.125648,0.125297,0.102614,11,0.0035154,10,1.28572e-05,-3.98879,0.240407,0.245418,0.979501,0.125297,
2,1,0,1,0,20168.5,0.127146,0.126799,0.103225,11,0.0036895,10,1.30889e-05,-3.98621,0.239879,0.245957,0.992548,0.126799,
2,1,0,1,0,20170,0.128644,0.128313,0.104484,11,0.00386532,10,1.34066e-05,-3.98095,0.309881,0.190396,0.777223,0.128313,
2,1,0,1,0,20171.5,0.130142,0.129796,0.106981,11,0.0040433,10,1.38857e-05,-3.97069,0.43643,0.135188,0.555084,0.129796,
2,1,0,1,0,20172.9,0.13164,0.131266,0.106132,11,0.00422255,10,1.39315e-05,-3.97415,-1.02251,-0.0577009,-0.23676,0.131266,
2,1,0,1,0,20174.4,0.133139,0.132863,0.10538,11,0.00440106,10,1.40011e-05,-3.97724,-0.442524,-0.133326,-0.547831,0.132863,
2,1,0,1,0,20175.9,0.134637,0.134316,0.105039,11,0.00457802,10,1.41083e-05,-3.97865,-0.338988,-0.174048,-0.709104,0.1343156,
2,1,0,1,0,20177.4,0.136135,0.135822,0.102594,11,0.00475327,10,1.39346e-05,-3.98888,-0.162141,-0.36388,-1.45322,0.1358224,
2,1,0,1,0,20178.9,0.137633,0.137312,0.100307,11,0.00492527,10,1.37734e-05,-3.99867,-0.103252,-0.57142,-2.21106,0.137312,
2,1,0,1,0,20180.4,0.139131,0.13881,0.0970941,11,0.00509238,10,1.34776e-05,-4.01281,-0.0946348,-0.623449,-2.34725,0.13881,
2,1,0,1,0,20181.9,0.14063,0.140265,0.0932026,11,0.00525316,10,1.30731e-05,-4.03057,-0.0773105,-0.763156,-2.76007,0.140265,
2,1,0,1,0,20183.4,0.142128,0.14179,0.088412,11,0.00540828,10,1.2536e-05,-4.05349,-0.0753761,-0.782741,-2.69215,0.14179,
2,1,0,1,0,20184.9,0.143626,0.143346,0.0843337,11,0.00555739,10,1.20889e-05,-4.074,-0.067442,-0.874826,-2.8754,0.143346,
2,1,0,1,0,20186.4,0.145124,0.144818,0.0796957,11,0.00569927,10,1.15414e-05,-4.09856,-0.0597489,-0.987467,-3.10523,0.144818,
2,1,0,1,0,20187.9,0.146622,0.146302,0.0756027,11,0.00583462,10,1.10609e-05,-4.12146,-0.068536,-0.860861,-2.55462,0.146302,
2,1,0,1,0,20189.4,0.14812,0.147804,0.0723949,11,0.00596436,10,1.07002e-05,-4.14029,-0.0741321,-0.795876,-2.25098,0.147804,
2,1,0,1,0,20190.9,0.149619,0.1493,0.0689822,11,0.00608881,10,1.02991e-05,-4.16126,-0.0713335,-0.827101,-2.23724,0.1493,
2,1,0,1,0,20192.4,0.151117,0.150779,0.0661574,11,0.00620824,10,9.97518e-06,-4.17942,-0.0770612,-0.765625,-1.98464,0.150779,
2,1,0,1,0,20193.9,0.152615,0.152292,0.0631852,11,0.00632307,10,9.62258e-06,-4.19938,-0.10806,-0.545995,-1.35585,0.1522916,
2,1,0,1,0,20195.4,0.154113,0.153872,0.061389,11,0.00643466,10,9.44603e-06,-4.21191,-0.100068,-0.589602,-1.41391,0.153872,
2,1,0,1,0,20196.9,0.155611,0.155301,0.0597683,11,0.00654344,10,9.28208e-06,-4.22353,-0.117315,-0.502917,-1.16878,0.155301,
2,1,0,1,0,20198.4,0.15711,0.156766,0.0582909,11,0.00664945,10,9.13806e-06,-4.2344,-0.120982,-0.487675,-1.10624,0.156766,
2,1,0,1,0,20199.9,0.158608,0.158299,0.0563126,11,0.00675309,10,8.91422e-06,-4.24939,-0.188448,-0.313083,-0.694891,0.158299,
2,1,0,1,0,20201.4,0.160106,0.15981,0.055496,11,0.00685432,10,8.86881e-06,-4.25574,-0.232124,-0.254174,-0.554143,0.15981,
2,1,0,1,0,20202.9,0.161604,0.161293,0.0547762,11,0.0069549,10,8.83503e-06,-4.26141,-0.260357,-0.226612,-0.481368,0.161293,
2,1,0,1,0,20204.4,0.163102,0.162779,0.0540109,11,0.00705409,10,8.79185e-06,-4.26752,-0.198597,-0.297084,-0.625572,0.162779,
2,1,0,1,0,20205.9,0.164601,0.164321,0.0530217,11,0.00715194,10,8.71256e-06,-4.27555,-0.232047,-0.254259,-0.527412,0.164321,
2,1,0,1,0,20207.4,0.166099,0.16581,0.0529155,11,0.00724854,10,8.77389e-06,-4.27642,-0.299814,-0.196789,-0.40315,0.16581,
2,1,0,1,0,20208.9,0.167597,0.167261,0.0522918,11,0.00734446,10,8.74639e-06,-4.28157,-0.562397,-0.104908,-0.212946,0.1672613,
2,1,0,1,0,20210.4,0.169095,0.168787,0.0512062,11,0.00743966,10,8.64295e-06,-4.29068,-0.500619,-0.117854,-0.238996,0.168787,
2,1,0,1,0,20211.9,0.170593,0.170276,0.0509608,11,0.00753408,10,8.67741e-06,-4.29276,-0.419691,-0.14058,-0.280924,0.170276,
2,1,0,1,0,20213.4,0.172091,0.171796,0.0509021,11,0.00762778,10,8.74475e-06,-4.29326,-0.680751,-0.086669,-0.172539,0.171796,
2,1,0,1,0,20214.9,0.17359,0.173271,0.0503289,11,0.00772112,10,8.72052e-06,-4.29818,0.85111,0.0693213,0.137377,0.173271,
2,1,0,1,0,20216.4,0.175088,0.174765,0.050477,11,0.00781408,10,8.82159e-06,-4.29691,9.76525,0.00604183,0.0119526,0.174765,
2,1,0,1,0,20217.9,0.176586,0.176263,0.0504144,11,0.00790748,10,8.8862e-06,-4.29745,16.8759,0.00349611,0.00687715,0.176263,
2,1,0,1,0,20219.4,0.178084,0.177772,0.0502923,11,0.00800056,10,8.94056e-06,-4.2985,-0.632519,-0.0932779,-0.184015,0.177772,
2,1,0,1,0,20220.9,0.179582,0.179229,0.0504179,11,0.00809329,10,9.03636e-06,-4.29742,-0.731065,-0.0807041,-0.157923,0.179229,
2,1,0,1,0,20222.4,0.181081,0.180812,0.050595,11,0.00818613,10,9.14819e-06,-4.29589,-0.767834,-0.0768396,-0.150998,0.180812,
2,1,0,1,0,20223.9,0.182579,0.182287,0.0498968,11,0.00827835,10,9.09555e-06,-4.30193,-1.08742,-0.054257,-0.105924,0.182287,
2,1,0,1,0,20225.4,0.184077,0.183777,0.0501804,11,0.0083705,10,9.222e-06,-4.29947,-4.5979,-0.012832,-0.0250506,0.183777,
2,1,0,1,0,20226.9,0.185575,0.185252,0.0497593,11,0.00846243,10,9.21801e-06,-4.30313,2.55887,0.023057,0.0453549,0.185252,
2,1,0,1,0,20228.4,0.187073,0.186738,0.0503669,11,0.00855458,10,9.4054e-06,-4.29786,2.39352,0.0246499,0.0482095,0.186738,
2,1,0,1,0,20229.9,0.188572,0.188252,0.0499794,11,0.00864686,10,9.40872e-06,-4.30121,1.09394,0.0539337,0.106218,0.188252,
2,1,0,1,0,20231.4,0.19007,0.189728,0.0505279,11,0.00873927,10,9.58656e-06,-4.29647,0.611804,0.0964361,0.189839,0.189728,
2,1,0,1,0,20232.9,0.191568,0.191235,0.050702,11,0.00883197,10,9.69599e-06,-4.29498,1.29008,0.0457337,0.0896068,0.191235,
2,1,0,1,0,20234.4,0.193066,0.192727,0.0507909,11,0.00892475,10,9.78877e-06,-4.29421,1.06589,0.0553526,0.109489,0.192727,
2,1,0,1,0,20235.9,0.194564,0.194205,0.0503058,11,0.00901761,10,9.76965e-06,-4.29838,1.81906,0.0324343,0.0641488,0.194205,
2,1,0,1,0,20237.4,0.196063,0.195754,0.0506218,11,0.00911044,10,9.90943e-06,-4.29566,1.94126,0.0303927,0.0602178,0.195754,
2,1,0,1,0,20238.9,0.197561,0.19725,0.0505886,11,0.00920308,10,9.97857e-06,-4.29595,-11.7184,-0.0050348,-0.0100111,0.19725,
2,1,0,1,0,20240.4,0.199059,0.198738,0.0507268,11,0.0092959,10,1.00814e-05,-4.29476,26.1007,0.00226047,0.00448208,0.198738,
2,1,0,1,0,20241.9,0.200557,0.200225,0.0510201,11,0.00938882,10,1.02155e-05,-4.29226,-6.21809,-0.00948845,-0.0187436,0.2002251,
2,1,0,1,0,20243.4,0.202055,0.201716,0.0507473,11,0.00948194,10,1.02365e-05,-4.29459,0.982145,0.0600726,0.119266,0.201716,
2,1,0,1,0,20244.9,0.203554,0.203212,0.0506169,11,0.00957492,10,1.0286e-05,-4.2957,0.654969,0.0900805,0.180476,0.203212,
2,1,0,1,0,20246.4,0.205052,0.204733,0.0511899,11,0.00966811,10,1.04803e-05,-4.29082,0.433426,0.136125,0.275981,0.204733,
2,1,0,1,0,20247.9,0.20655,0.206225,0.0515871,11,0.00976207,10,1.06385e-05,-4.28746,1.26086,0.0467936,0.093539,0.206225,
2,1,0,1,0,20249.4,0.208048,0.207739,0.0517433,11,0.00985665,10,1.07491e-05,-4.28615,-1.33998,-0.0440304,-0.0886672,0.207739,
2,1,0,1,0,20250.9,0.209546,0.209215,0.0516002,11,0.00995082,10,1.07956e-05,-4.28735,1.02754,0.0574187,0.116156,0.209215,
2,1,0,1,0,20252.4,0.211044,0.210754,0.0521884,11,0.0100449,10,1.09989e-05,-4.28243,1.27783,0.046172,0.0934473,0.210754,
2,1,0,1,0,20253.9,0.212543,0.212228,0.0519459,11,0.0101395,10,1.10244e-05,-4.28445,1.21988,0.0483652,0.0982103,0.212228,
2,1,0,1,0,20255.4,0.214041,0.213697,0.0522772,11,0.0102342,10,1.11715e-05,-4.28169,0.452837,0.13029,0.264849,0.213697,
2,1,0,1,0,20256.8,0.215539,0.215178,0.052467,11,0.0103294,10,1.12897e-05,-4.28011,1.72314,0.0342398,0.0701044,0.215178,
2,1,0,1,0,20258.3,0.217037,0.216699,0.0524328,11,0.0104243,10,1.13621e-05,-4.2804,0.860474,0.0685669,0.14093,0.216699,
2,1,0,1,0,20259.8,0.218535,0.218216,0.052283,11,0.0105195,10,1.1409e-05,-4.28164,0.337724,0.174699,0.357891,0.218216,
2,1,0,1,0,20261.3,0.220034,0.219734,0.0531196,11,0.0106152,10,1.16722e-05,-4.27475,0.715269,0.0824865,0.170484,0.219734,
2,1,0,1,0,20262.8,0.221532,0.221214,0.053219,11,0.0107115,10,1.17728e-05,-4.27393,0.706801,0.0834746,0.173326,0.221214,
2,1,0,1,0,20264.3,0.22303,0.222732,0.0533635,11,0.0108081,10,1.18858e-05,-4.27276,0.472062,0.124984,0.262348,0.222732,
2,1,0,1,0,20265.8,0.224528,0.224211,0.0538661,11,0.010905,10,1.20774e-05,-4.26868,0.937568,0.0629287,0.132579,0.224211,
2,1,0,1,0,20267.3,0.226026,0.225719,0.0540977,11,0.0110025,10,1.22109e-05,-4.26682,3.8773,0.0152168,0.0321502,0.225719,
2,1,0,1,0,20268.8,0.227525,0.227231,0.0542145,11,0.0111001,10,1.23192e-05,-4.26588,3.16468,0.0186433,0.0394088,0.227231,
2,1,0,1,0,20270.3,0.229023,0.22869,0.0540447,11,0.0111977,10,1.23595e-05,-4.26725,1.62295,0.0363535,0.0767656,0.22869,
2,1,0,1,0,20271.8,0.230521,0.230214,0.0542524,11,0.0112954,10,1.24897e-05,-4.26558,1.05303,0.056029,0.118604,0.230214,
2,1,0,1,0,20273.3,0.232019,0.231686,0.0542244,11,0.0113934,10,1.2563e-05,-4.26581,1.59774,0.0369271,0.0784233,0.231686,
2,1,0,1,0,20274.8,0.233517,0.233197,0.0545355,11,0.0114915,10,1.27175e-05,-4.26332,1.10729,0.0532834,0.1142,0.233197,
2,1,0,1,0,20276.3,0.235016,0.2347,0.0551805,11,0.01159,10,1.29509e-05,-4.25821,0.577126,0.102231,0.218274,0.2347,
2,1,0,1,0,20277.8,0.236514,0.236195,0.0556583,11,0.011689,10,1.31462e-05,-4.25447,1.89355,0.0311584,0.0667865,0.236195,
2,1,0,1,0,20279.3,0.238012,0.237715,0.0550347,11,0.0117882,10,1.30826e-05,-4.25936,1.24772,0.0472864,0.102345,0.237715,
2,1,0,1,0,20280.8,0.23951,0.239163,0.0557451,11,0.0118874,10,1.33322e-05,-4.25379,1.71987,0.0343049,0.0746011,0.239163,
2,1,0,1,0,20282.3,0.241008,0.240678,0.0553905,11,0.0119871,10,1.33313e-05,-4.25656,0.493025,0.119669,0.259459,0.2406785,
2,1,0,1,0,20283.8,0.242506,0.242166,0.0560889,11,0.0120867,10,1.35828e-05,-4.25112,1.63406,0.0361064,0.0789656,0.242166,
2,1,0,1,0,20285.3,0.244005,0.243668,0.0556214,11,0.0121866,10,1.35531e-05,-4.25476,1.72707,0.0341619,0.0745512,0.243668,
2,1,0,1,0,20286.8,0.245503,0.24523,0.0562853,11,0.0122871,10,1.38028e-05,-4.2496,1.53999,0.0383119,0.0842613,0.24523,
2,1,0,1,0,20288.3,0.247001,0.246694,0.0563988,11,0.0123876,10,1.39133e-05,-4.24873,0.597006,0.0988264,0.216847,0.246694,
2,1,0,1,0,20289.8,0.248499,0.248221,0.0564264,11,0.0124884,10,1.40062e-05,-4.24852,0.618209,0.095437,0.210615,0.248221,
2,1,0,1,0,20291.3,0.249997,0.249691,0.0569341,11,0.0125897,10,1.42159e-05,-4.24463,0.799944,0.0737551,0.164034,0.249691,
2,1,0,1,0,20292.8,0.251496,0.251204,0.0576944,11,0.0126916,10,1.44931e-05,-4.23887,0.65165,0.0905394,0.201649,0.251204,
2,1,0,1,0,20294.3,0.252994,0.252711,0.0571181,11,0.0127936,10,1.44344e-05,-4.24323,1.02576,0.0575184,0.128946,0.252711,
2,1,0,1,0,20295.8,0.254492,0.254177,0.0572349,11,0.0128957,10,1.45478e-05,-4.24234,1.41341,0.041743,0.0936737,0.2541765,
2,1,0,1,0,20297.3,0.25599,0.25561,0.0575743,11,0.012998,10,1.47166e-05,-4.23977,-2.66558,-0.022134,-0.0498395,0.25561,
2,1,0,1,0,20298.8,0.257488,0.257188,0.0578971,11,0.0131007,10,1.48904e-05,-4.23734,3.97379,0.0148473,0.0335217,0.257188,
2,1,0,1,0,20300.3,0.258987,0.258691,0.0579749,11,0.0132034,10,1.49976e-05,-4.23676,1.07147,0.0550648,0.124386,0.258691,
2,1,0,1,0,20301.8,0.260485,0.260236,0.0582888,11,0.0133065,10,1.51688e-05,-4.23442,1.44011,0.040969,0.092702,0.260236,
2,1,0,1,0,20303.3,0.261983,0.26168,0.0577031,11,0.0134092,10,1.50997e-05,-4.2388,2.28251,0.0258487,0.0585013,0.26168,
2,1,0,1,0,20304.8,0.263481,0.263174,0.0583688,11,0.0135122,10,1.53611e-05,-4.23382,0.660407,0.0893388,0.203333,0.263174,
2,1,0,1,0,20306.3,0.264979,0.264641,0.0585136,11,0.0136157,10,1.54851e-05,-4.23274,0.541357,0.108985,0.249889,0.264641,
2,1,0,1,0,20307.8,0.266477,0.26618,0.0595184,11,0.0137198,10,1.58426e-05,-4.22535,0.615299,0.0958883,0.220354,0.26618,
2,1,0,1,0,20309.3,0.267976,0.267661,0.0587243,11,0.0138239,10,1.57182e-05,-4.23118,1.15026,0.0512926,0.118605,0.267661,
2,1,0,1,0,20310.8,0.269474,0.26917,0.0596956,11,0.0139284,10,1.60682e-05,-4.22406,1.10424,0.0534306,0.123076,0.2691696,
2,1,0,1,0,20312.3,0.270972,0.270685,0.0592067,11,0.0140332,10,1.60264e-05,-4.22763,-2.6826,-0.0219936,-0.0507464,0.270685,
2,1,0,1,0,20313.8,0.27247,0.272133,0.0591967,11,0.0141379,10,1.61094e-05,-4.2277,1.24141,0.0475267,0.110606,0.272133,
2,1,0,1,0,20315.3,0.273968,0.273656,0.0593337,11,0.0142426,10,1.6237e-05,-4.2267,1.10901,0.0532006,0.123395,0.2736561,
2,1,0,1,0,20316.8,0.275467,0.275224,0.0600757,11,0.0143478,10,1.65343e-05,-4.2213,0.525399,0.112296,0.261127,0.275224,
2,1,0,1,0,20318.3,0.276965,0.276669,0.0598193,11,0.0144531,10,1.65501e-05,-4.22316,1.89369,0.0311562,0.072785,0.276669,
2,1,0,1,0,20319.8,0.278463,0.278178,0.0600775,11,0.0145586,10,1.67122e-05,-4.22129,0.790393,0.0746464,0.174402,0.278178,
2,1,0,1,0,20321.3,0.279961,0.279655,0.0601424,11,0.0146646,10,1.68191e-05,-4.22082,0.443084,0.133158,0.312791,0.279655,
2,1,0,1,0,20322.8,0.281459,0.281139,0.0606455,11,0.0147707,10,1.70498e-05,-4.2172,-927.078,-6.36408e-05,-0.00015065,0.281139,
2,1,0,1,0,20324.3,0.282958,0.282656,0.0610822,11,0.0148772,10,1.72652e-05,-4.21409,1.82057,0.0324074,0.0766666,0.282656,
2,1,0,1,0,20325.8,0.284456,0.284173,0.0606711,11,0.0149839,10,1.72411e-05,-4.21702,0.878249,0.0671791,0.159451,0.284173,
2,1,0,1,0,20327.3,0.285954,0.285626,0.0613265,11,0.0150908,10,1.75165e-05,-4.21235,1.46615,0.0402415,0.0956684,0.285626,
2,1,0,1,0,20328.8,0.287452,0.287133,0.0612018,11,0.0151976,10,1.7573e-05,-4.21324,-2.26805,-0.0260135,-0.0621645,0.287133,
2,1,0,1,0,20330.3,0.28895,0.288681,0.0612958,11,0.0153049,10,1.76949e-05,-4.21257,0.554637,0.106376,0.25424,0.288681,
2,1,0,1,0,20331.8,0.290448,0.290141,0.0614967,11,0.0154123,10,1.78427e-05,-4.21115,1.32636,0.0444827,0.107207,0.2901412,
2,1,0,1,0,20333.3,0.291947,0.291635,0.0617968,11,0.0155202,10,1.80221e-05,-4.20903,1.26911,0.0464893,0.11216,0.291635,
2,1,0,1,0,20334.8,0.293445,0.293152,0.06212,11,0.0156281,10,1.82106e-05,-4.20677,0.749383,0.0787315,0.190351,0.293152,
2,1,0,1,0,20336.3,0.294943,0.29465,0.061648,11,0.0157361,10,1.81646e-05,-4.21008,1.08529,0.0543635,0.131382,0.29465,
2,1,0,1,0,20337.8,0.296441,0.296122,0.0624176,11,0.0158447,10,1.84832e-05,-4.20469,1.10986,0.05316,0.128778,0.296122,
2,1,0,1,0,20339.2,0.297939,0.297679,0.0625714,11,0.0159536,10,1.86262e-05,-4.20362,-1.62677,-0.0362682,-0.0882926,0.297679,
2,1,0,1,0,20340.7,0.299438,0.299117,0.0621351,11,0.0160622,10,1.85857e-05,-4.20666,-0.00467582,-12.6181,-20.4482,0.299117,
2,1,0,1,0,20341.6,0.299737,0.299457,0.0327455,11,0.0161107,10,9.80588e-06,-4.48485,0.00242103,24.3698,34.2371,0.299457,
2,1,0,1,0,20343.1,0.298239,0.297936,0.020854,11,0.0161328,10,6.21316e-06,-4.68081,0.00585609,10.075,13.2622,0.297936,
2,1,0,1,0,20344.6,0.296741,0.296473,0.016192,11,0.0161447,10,4.8005e-06,-4.7907,0.014576,4.04775,2.64556,0.296473,
2,1,0,1,0,20346.1,0.295243,0.294895,0.013311,11,0.0161512,10,3.92534e-06,-4.87579,0.0171565,3.43893,1.82412,0.294895,
2,1,0,1,0,20347.6,0.293745,0.293423,0.0105565,11,0.0161538,10,3.09753e-06,-4.97648,0.0162355,3.63401,1.54749,0.293423,
2,1,0,1,0,20349.1,0.292246,0.291913,0.0082065,11,0.0161531,10,2.39559e-06,-5.08584,0.014519,4.06363,1.40499,0.291913,
2,1,0,1,0,20350.6,0.290748,0.290404,0.00681843,11,0.0161492,10,1.9801e-06,-5.16632,0.0147752,3.99317,1.05401,0.290404,
2,1,0,1,0,20352.1,0.28925,0.288934,0.00513656,11,0.0161427,10,1.48413e-06,-5.28933,0.0107819,5.47214,1.06485,0.2889345,
2,1,0,1,0,20353.6,0.287752,0.287419,0.0038585,11,0.0161342,10,1.10901e-06,-5.41358,0.00767548,7.68682,1.01005,0.287419,
2,1,0,1,0,20355.1,0.286254,0.285936,0.00265435,11,0.0161235,10,7.58973e-07,-5.57604,0.00492116,11.989,0.878396,0.285936,
2,1,0,1,0,20356.6,0.284755,0.284471,0.000902631,11,0.0161108,10,2.56773e-07,-6.04449,0.00568614,10.3761,0.796886,0.284471,
2,1,0,1,0,20358.1,0.283257,0.282932,-3.76081e-05,11,0.0160962,10,-1.06406e-08,-7.42472,0.39584,0.14905,0.812431,0.282932,
2,0,0,1,0,20359.6,0.281759,0.28142,-0.00102288,11,0.0160802,10,-2.8786e-07,-5.99017,-0.00221369,-26.6523,0.491921,0.28142,
2,0,0,1,0,20361.1,0.280261,0.279961,-0.00177103,11,0.0160627,10,-4.9582e-07,-5.75177,-0.00340364,-17.3344,0.920333,0.279961,
2,0,0,1,0,20362.6,0.278763,0.278451,-0.00329988,11,0.0160435,10,-9.18857e-07,-5.4815,-0.00752813,-7.83727,0.796443,0.278451,
2,0,0,1,0,20364.1,0.277264,0.276961,-0.00389345,11,0.0160223,10,-1.07833e-06,-5.40967,-0.013203,-4.46868,0.656191,0.276961,
2,0,0,1,0,20365.6,0.275766,0.275474,-0.00503619,11,0.016,10,-1.38734e-06,-5.2979,-0.0225156,-2.62041,0.534477,0.275474,
2,0,0,1,0,20367.1,0.274268,0.27394,-0.00651478,11,0.0159761,10,-1.78466e-06,-5.1861,-0.0233391,-2.52795,0.591213,0.27394,
2,0,0,1,0,20368.6,0.27277,0.272432,-0.00722502,11,0.0159509,10,-1.96833e-06,-5.14116,-0.030772,-1.91733,0.537048,0.272432,
2,0,0,1,0,20370.1,0.271272,0.270937,-0.00819813,11,0.0159242,10,-2.22118e-06,-5.08629,-0.0341792,-1.7262,0.519054,0.270937,
2,0,0,1,0,20371.6,0.269774,0.269462,-0.00857554,11,0.0158962,10,-2.31078e-06,-5.06674,-0.0339864,-1.73599,0.580803,0.269462,
2,1,0,1,0,20373.1,0.268275,0.267969,-0.00921151,11,0.0158673,10,-2.4684e-06,-5.03567,-0.0423381,-1.39354,0.514782,0.267969,
2,0,0,1,0,20374.6,0.266777,0.266457,-0.0100692,11,0.0158371,10,-2.68301e-06,-4.997,-0.0384552,-1.53425,0.608413,0.266457,
2,0,0,1,0,20376.1,0.265279,0.264992,-0.011084,11,0.0158055,10,-2.93716e-06,-4.95531,-0.0424144,-1.39104,0.600605,0.264992,
2,0,0,1,0,20377.6,0.263781,0.263469,-0.0119793,11,0.0157726,10,-3.15618e-06,-4.92157,-0.056699,-1.04058,0.485616,0.263469,
2,0,0,1,0,20379.1,0.262283,0.261948,-0.012763,11,0.0157387,10,-3.34324e-06,-4.89405,-0.0632376,-0.93299,0.458201,0.261948,
2,0,0,1,0,20380.5,0.260784,0.260477,-0.0131776,11,0.0157039,10,-3.43247e-06,-4.88016,-0.0802579,-0.735131,0.373404,0.260477,
2,0,0,1,0,20382,0.259286,0.258978,-0.014021,11,0.0156679,10,-3.63112e-06,-4.85322,-0.0582615,-1.01268,0.552783,0.258978,
2,1,0,1,0,20383.5,0.257788,0.257494,-0.01491,11,0.0156308,10,-3.83925e-06,-4.82652,-0.0605952,-0.973675,0.559715,0.257494,
2,0,0,1,0,20385,0.25629,0.255996,-0.0155044,11,0.0155923,10,-3.96908e-06,-4.80954,-0.0827433,-0.713049,0.424642,0.255996,
2,0,0,1,0,20386.5,0.254792,0.254499,-0.0157718,11,0.015553,10,-4.0139e-06,-4.80212,-0.120656,-0.488995,0.306003,0.254499,
2,0,0,1,0,20388,0.253293,0.252965,-0.0165938,11,0.0155128,10,-4.19766e-06,-4.78005,-0.0744739,-0.792224,0.513767,0.252965,
2,0,0,1,0,20389.5,0.251795,0.251478,-0.017125,11,0.0154716,10,-4.30655e-06,-4.76637,-0.0952988,-0.619105,0.419289,0.251478,
2,0,0,1,0,20391,0.250297,0.250012,-0.0179742,11,0.0154295,10,-4.49376e-06,-4.74535,-0.119364,-0.494285,0.339918,0.250012,
2,0,0,1,0,20392.5,0.248799,0.248494,-0.0181714,11,0.0153864,10,-4.51548e-06,-4.74061,-0.0764357,-0.771891,0.551931,0.248494,
2,0,0,1,0,20394,0.247301,0.246998,-0.0189072,11,0.0153426,10,-4.67003e-06,-4.72337,-0.0932007,-0.633043,0.474102,0.246998,
2,0,0,1,0,20395.5,0.245802,0.245474,-0.019755,11,0.0152974,10,-4.84934e-06,-4.70432,-0.0990649,-0.595569,0.461996,0.245474,
2,0,0,1,0,20397,0.244304,0.24397,-0.0206173,11,0.015251,10,-5.03001e-06,-4.68577,-0.0898985,-0.656296,0.526447,0.24397,
2,0,0,1,0,20398.5,0.242806,0.242505,-0.0211886,11,0.0152039,10,-5.13834e-06,-4.6739,-0.155752,-0.378808,0.311756,0.242505,
2,0,0,1,0,20400,0.241308,0.24103,-0.0215504,11,0.015156,10,-5.19429e-06,-4.66654,-0.12522,-0.471171,0.396437,0.24103,
2,0,0,1,0,20401.5,0.23981,0.239546,-0.0216194,11,0.0151073,10,-5.17883e-06,-4.66516,-0.144769,-0.407547,0.355885,0.239546,
2,0,0,1,0,20403,0.238312,0.23802,-0.0229888,11,0.0150577,10,-5.4718e-06,-4.63848,-0.167297,-0.352666,0.314285,0.23802,
2,0,0,1,0,20404.5,0.236813,0.236466,-0.0232951,11,0.0150072,10,-5.5085e-06,-4.63273,-0.125669,-0.469486,0.425391,0.236466,
2,0,0,1,0,20406,0.235315,0.234983,-0.0238123,11,0.014956,10,-5.59548e-06,-4.6232,-0.120769,-0.488537,0.453226,0.2349831,
2,0,0,1,0,20407.5,0.233817,0.233532,-0.0243267,11,0.0149037,10,-5.68108e-06,-4.61392,-0.102981,-0.572921,0.539873,0.233532,
2,0,0,1,0,20409,0.232319,0.23196,-0.0251756,11,0.0148507,10,-5.83974e-06,-4.59902,-0.203338,-0.290158,0.283429,0.23196,
2,0,0,1,0,20410.5,0.230821,0.23052,-0.0253681,11,0.0147968,10,-5.84784e-06,-4.59571,-0.132838,-0.44415,0.438121,0.23052,
2,0,0,1,0,20412,0.229322,0.228989,-0.0258097,11,0.0147423,10,-5.91012e-06,-4.58822,-0.13416,-0.439774,0.446076,0.228989,
2,0,0,1,0,20413.5,0.227824,0.227491,-0.0263352,11,0.0146871,10,-5.99103e-06,-4.57946,-0.154066,-0.382953,0.393721,0.2274913,
2,0,0,1,0,20415,0.226326,0.226013,-0.0273001,11,0.0146307,10,-6.17019e-06,-4.56384,-0.151936,-0.388322,0.412276,0.226013,
2,0,0,1,0,20416.5,0.224828,0.224558,-0.0275811,11,0.0145732,10,-6.19356e-06,-4.55939,-0.227431,-0.25942,0.278861,0.224558,
2,0,0,1,0,20418,0.22333,0.223022,-0.0286911,11,0.0145147,10,-6.39873e-06,-4.54225,-0.181378,-0.325287,0.361917,0.223022,
2,0,0,1,0,20419.5,0.221831,0.221575,-0.0289558,11,0.0144555,10,-6.41588e-06,-4.53827,-0.175616,-0.33596,0.37908,0.221575,
2,0,0,1,0,20421,0.220333,0.22003,-0.0295299,11,0.0143954,10,-6.49748e-06,-4.52974,-0.161877,-0.364473,0.418222,0.22003,
2,0,0,1,0,20422.5,0.218835,0.218532,-0.0298297,11,0.0143344,10,-6.51875e-06,-4.52535,-0.312387,-0.188868,0.220522,0.218532,
2,0,0,1,0,20424,0.217337,0.217031,-0.0303716,11,0.0142728,10,-6.59159e-06,-4.51753,-0.153338,-0.384772,0.459186,0.217031,
2,0,0,1,0,20425.5,0.215839,0.215564,-0.0312893,11,0.0142101,10,-6.74484e-06,-4.5046,-0.122867,-0.480193,0.581758,0.215564,
2,0,0,1,0,20427,0.21434,0.21405,-0.0316827,11,0.0141464,10,-6.78168e-06,-4.49918,-0.168195,-0.350782,0.432661,0.21405,
2,0,0,1,0,20428.5,0.212842,0.212526,-0.0324244,11,0.014082,10,-6.89101e-06,-4.48913,-0.20502,-0.287777,0.361359,0.212526,
2,0,0,1,0,20430,0.211344,0.210986,-0.0329755,11,0.0140165,10,-6.95737e-06,-4.48181,-0.209366,-0.281804,0.361788,0.210986,
2,0,0,1,0,20431.5,0.209846,0.209546,-0.0333338,11,0.0139502,10,-6.98496e-06,-4.47712,-0.196706,-0.299941,0.391185,0.209546,
2,0,0,1,0,20433,0.208348,0.208015,-0.0342926,11,0.013883,10,-7.13337e-06,-4.4648,-0.31415,-0.187808,0.249241,0.208015,
2,0,0,1,0,20434.5,0.20685,0.206525,-0.035087,11,0.0138144,10,-7.24636e-06,-4.45485,-0.28876,-0.204322,0.276165,0.206525,
2,0,0,1,0,20436,0.205351,0.205049,-0.0350175,11,0.013745,10,-7.18031e-06,-4.45571,-0.618718,-0.0953585,0.130017,0.205049,
2,0,0,1,0,20437.5,0.203853,0.203509,-0.0351539,11,0.0136753,10,-7.15414e-06,-4.45403,-0.265751,-0.222013,0.306979,0.203509,
2,0,0,1,0,20439,0.202355,0.202089,-0.0358482,11,0.0136053,10,-7.24454e-06,-4.44553,-0.271607,-0.217226,0.307325,0.202089,
2,0,0,1,0,20440.5,0.200857,0.200557,-0.03635,11,0.0135342,10,-7.29025e-06,-4.4395,-0.201641,-0.292599,0.415675,0.200557,
2,0,0,1,0,20442,0.199359,0.199064,-0.0370296,11,0.0134621,10,-7.37126e-06,-4.43145,-0.263634,-0.223795,0.324643,0.199064,
2,0,0,1,0,20443.5,0.19786,0.197557,-0.0376943,11,0.013389,10,-7.44678e-06,-4.42372,-0.182012,-0.324155,0.478448,0.197557,
2,0,0,1,0,20445,0.196362,0.196033,-0.0389208,11,0.0133149,10,-7.62977e-06,-4.40982,-0.209451,-0.281689,0.425536,0.196033,
2,0,0,1,0,20446.5,0.194864,0.194536,-0.039133,11,0.0132395,10,-7.61278e-06,-4.40746,-0.222925,-0.264663,0.403115,0.194536,
2,0,0,1,0,20448,0.193366,0.193035,-0.039732,11,0.0131632,10,-7.66969e-06,-4.40086,-0.233458,-0.252722,0.391853,0.193035,
2,0,0,1,0,20449.5,0.191868,0.191538,-0.0403359,11,0.0130862,10,-7.72586e-06,-4.39431,-0.272198,-0.216754,0.341703,0.191538,
2,0,0,1,0,20451,0.190369,0.189998,-0.0409964,11,0.0130084,10,-7.78925e-06,-4.38725,-0.2067,-0.285438,0.454239,0.189998,
2,0,0,1,0,20452.5,0.188871,0.188603,-0.0413315,11,0.0129295,10,-7.79524e-06,-4.38372,-0.232539,-0.25372,0.411178,0.188603,
2,0,0,1,0,20454,0.187373,0.187087,-0.0417968,11,0.0128498,10,-7.81962e-06,-4.37886,-0.15404,-0.383017,0.629326,0.187087,
2,0,0,1,0,20455.5,0.185875,0.185588,-0.0428035,11,0.012769,10,-7.94384e-06,-4.36852,-0.213216,-0.276715,0.462484,0.185588,
2,0,0,1,0,20457,0.184377,0.184069,-0.0436884,11,0.012687,10,-8.04167e-06,-4.35963,-0.176912,-0.333498,0.567419,0.184069,
2,0,0,1,0,20458.5,0.182878,0.182544,-0.0447411,11,0.0126037,10,-8.16722e-06,-4.34929,-0.160009,-0.368729,0.642,0.182544,
2,0,0,1,0,20460,0.18138,0.181077,-0.0459404,11,0.0125185,10,-8.31876e-06,-4.33781,-0.232003,-0.254307,0.448715,0.181077,
2,0,0,1,0,20461.5,0.179882,0.179576,-0.0461287,11,0.0124319,10,-8.28359e-06,-4.33603,-0.273144,-0.216003,0.390445,0.1795758,
2,0,0,1,0,20463,0.178384,0.178094,-0.0472044,11,0.0123446,10,-8.40684e-06,-4.32602,-0.237481,-0.248441,0.456377,0.178094,
2,0,0,1,0,20464.4,0.176886,0.176582,-0.0476328,11,0.0122563,10,-8.41111e-06,-4.32209,-0.183803,-0.320996,0.598759,0.176582,
2,0,0,1,0,20465.9,0.175388,0.17508,-0.0485451,11,0.0121665,10,-8.49927e-06,-4.31385,-0.213306,-0.276598,0.525586,0.17508,
2,0,0,1,0,20467.4,0.173889,0.173552,-0.0493456,11,0.0120751,10,-8.56402e-06,-4.30675,-0.162007,-0.364183,0.707616,0.173552,
2,0,0,1,0,20468.9,0.172391,0.172095,-0.0511795,11,0.0119821,10,-8.80772e-06,-4.2909,-0.132324,-0.445875,0.884654,0.172095,
2,0,0,1,0,20470.4,0.170893,0.170562,-0.052255,11,0.0118873,10,-8.91273e-06,-4.28187,-0.142622,-0.413682,0.843053,0.170562,
2,0,0,1,0,20471.9,0.169395,0.169104,-0.053528,11,0.0117905,10,-9.05181e-06,-4.27142,-0.162996,-0.361973,0.750174,0.169104,
2,0,0,1,0,20473.4,0.167897,0.167595,-0.0539662,11,0.0116918,10,-9.04448e-06,-4.26788,-0.141153,-0.417986,0.891374,0.167595,
2,0,0,1,0,20474.9,0.166398,0.166055,-0.0556666,11,0.0115914,10,-9.24369e-06,-4.25441,-0.143944,-0.409883,0.893024,0.166055,
2,0,0,1,0,20476.4,0.1649,0.164605,-0.0565794,11,0.0114891,10,-9.31326e-06,-4.24734,-0.13031,-0.452765,1.01273,0.164605,
2,0,0,1,0,20477.9,0.163402,0.163071,-0.0582904,11,0.0113845,10,-9.50546e-06,-4.2344,-0.119719,-0.492819,1.12043,0.163071,
2,0,0,1,0,20479.4,0.161904,0.161598,-0.0598809,11,0.0112773,10,-9.67661e-06,-4.22271,-0.12365,-0.477155,1.11402,0.161598,
2,0,0,1,0,20480.9,0.160406,0.16011,-0.061818,11,0.0111678,10,-9.89767e-06,-4.20888,-0.135781,-0.434524,1.04788,0.16011,
2,0,0,1,0,20482.4,0.158907,0.158632,-0.062769,11,0.0110559,10,-9.95716e-06,-4.20225,-0.114713,-0.514327,1.27196,0.1586317,
2,0,0,1,0,20483.9,0.157409,0.157113,-0.0653143,11,0.0109413,10,-1.02617e-05,-4.18499,-0.117231,-0.503278,1.28268,0.157113,
2,0,0,1,0,20485.4,0.155911,0.155612,-0.0674522,11,0.0108234,10,-1.04964e-05,-4.171,-0.111854,-0.527475,1.39047,0.155612,
2,0,0,1,0,20486.9,0.154413,0.154059,-0.0693065,11,0.0107022,10,-1.06773e-05,-4.15923,-0.108607,-0.543243,1.47117,0.154059,
2,0,0,1,0,20488.4,0.152915,0.152604,-0.0719288,11,0.0105772,10,-1.09766e-05,-4.1431,-0.0892961,-0.660723,1.86438,0.152604,
2,0,0,1,0,20489.9,0.151417,0.151092,-0.0745298,11,0.0104486,10,-1.12609e-05,-4.12767,-0.0955954,-0.617185,1.8079,0.151092,
2,0,0,1,0,20491.4,0.149918,0.14955,-0.0785708,11,0.0103148,10,-1.17503e-05,-4.10474,-0.0852096,-0.69241,2.10046,0.14955,
2,0,0,1,0,20492.9,0.14842,0.148126,-0.0819603,11,0.0101763,10,-1.21405e-05,-4.0864,-0.085183,-0.692627,2.1955,0.148126,
2,0,0,1,0,20494.4,0.146922,0.146606,-0.0848344,11,0.0100326,10,-1.24372e-05,-4.07143,-0.0763848,-0.772405,2.55794,0.1466057,
2,0,0,1,0,20495.9,0.145424,0.145162,-0.0884951,11,0.00988358,10,-1.28462e-05,-4.05308,-0.0744092,-0.792913,2.74948,0.145162,
2,0,0,1,0,20497.4,0.143926,0.143643,-0.0928201,11,0.00972794,10,-1.3333e-05,-4.03236,-0.0654372,-0.901628,3.26137,0.143643,
2,0,0,1,0,20498.9,0.142427,0.142118,-0.0975448,11,0.00956502,10,-1.38629e-05,-4.0108,-0.0686037,-0.860012,3.27486,0.142118,
2,0,0,1,0,20500.4,0.140929,0.140632,-0.102355,11,0.00939495,10,-1.43945e-05,-3.98989,-0.0719961,-0.819489,3.31265,0.140632,
2,0,0,1,0,20501.9,0.139431,0.139094,-0.107299,11,0.0092176,10,-1.49246e-05,-3.9694,-0.0700477,-0.842283,3.54923,0.139094,
2,0,0,1,0,20503.4,0.137933,0.13762,-0.113161,11,0.00903188,10,-1.55732e-05,-3.9463,-0.0741526,-0.795657,3.51319,0.13762,
2,0,0,1,0,20504.9,0.136435,0.136072,-0.119128,11,0.00883772,10,-1.62099e-05,-3.92399,-0.0735402,-0.802283,3.70388,0.136072,
2,0,0,1,0,20506.4,0.134936,0.134608,-0.124195,11,0.00863548,10,-1.67176e-05,-3.9059,-0.0851823,-0.692632,3.33861,0.134608,
2,0,0,1,0,20507.9,0.133438,0.133128,-0.128682,11,0.0084257,10,-1.71312e-05,-3.89048,-0.0976571,-0.604155,3.02526,0.133128,
2,0,0,1,0,20509.4,0.13194,0.131593,-0.133541,11,0.00820931,10,-1.75732e-05,-3.87438,-0.105165,-0.561021,2.91761,0.131593,
2,0,0,1,0,20510.9,0.130442,0.130141,-0.13742,11,0.00798649,10,-1.78839e-05,-3.86195,-0.122787,-0.480508,2.57036,0.130141,
2,0,0,1,0,20512.4,0.128944,0.128632,-0.140266,11,0.00775767,10,-1.80427e-05,-3.85305,-0.169134,-0.348836,1.90316,0.128632,
2,0,0,1,0,20513.9,0.127445,0.127135,-0.142969,11,0.00752439,10,-1.81765e-05,-3.84476,-0.204363,-0.288701,1.61112,0.127135,
2,0,0,1,0,20515.4,0.125947,0.1256,-0.145618,11,0.00728822,10,-1.82897e-05,-3.83678,-0.287365,-0.205314,1.15938,0.1256,
2,0,0,1,0,20516.9,0.124449,0.124116,-0.147446,11,0.00704873,10,-1.83004e-05,-3.83137,-0.418803,-0.140878,0.803556,0.124116,
2,0,0,1,0,20518.4,0.122951,0.122657,-0.148353,11,0.00680745,10,-1.81966e-05,-3.8287,-0.416563,-0.141635,0.816561,0.122657,
2,0,0,1,0,20519.9,0.121453,0.121112,-0.148474,11,0.00656483,10,-1.79821e-05,-3.82835,-1.00024,-0.0589859,0.342523,0.121112,
2,0,0,1,0,20521.4,0.119955,0.119668,-0.148426,11,0.00632211,10,-1.77618e-05,-3.82849,13.0915,0.00450673,-0.0261763,0.119668,
2,0,0,1,0,20522.9,0.118456,0.118179,-0.149078,11,0.00607875,10,-1.7618e-05,-3.82659,-2.9304,-0.0201338,0.116364,0.118179,
2,0,0,1,0,20524.4,0.116958,0.116606,-0.147978,11,0.00583564,10,-1.72551e-05,-3.8298,2.03166,0.0290403,-0.168283,0.116606,
2,0,0,1,0,20525.9,0.11546,0.115121,-0.147914,11,0.00559351,10,-1.70281e-05,-3.82999,1.18306,0.0498705,-0.28875,0.115121,
2,0,0,1,0,20527.4,0.113962,0.113644,-0.146718,11,0.00535199,10,-1.66737e-05,-3.83352,1.80651,0.0326597,-0.188137,0.113644,
2,0,0,1,0,20528.9,0.112464,0.112119,-0.147134,11,0.00511128,10,-1.64965e-05,-3.83229,0.924239,0.0638363,-0.366005,0.112119,
2,0,0,1,0,20530.4,0.110965,0.11062,-0.146867,11,0.00487079,10,-1.62463e-05,-3.83308,1.0291,0.0573318,-0.327214,0.11062,
2,0,0,1,0,20531.9,0.109467,0.109126,-0.146406,11,0.00463089,10,-1.59766e-05,-3.83444,0.735759,0.0801893,-0.456247,0.1091256,
2,0,0,1,0,20533.4,0.107969,0.10765,-0.145279,11,0.00439193,10,-1.56392e-05,-3.8378,0.784688,0.0751891,-0.429445,0.10765,
2,0,0,1,0,20534.9,0.106471,0.10611,-0.145124,11,0.00415412,10,-1.53991e-05,-3.83826,1.00201,0.0588814,-0.334941,0.10611,
2,0,0,1,0,20536.4,0.104973,0.104666,-0.14459,11,0.00391669,10,-1.51336e-05,-3.83986,0.596483,0.0989131,-0.557758,0.104666,
2,0,0,1,0,20537.9,0.103474,0.103162,-0.144029,11,0.00368007,10,-1.48583e-05,-3.84155,0.537388,0.10979,-0.614543,0.103162,
2,0,0,1,0,20539.4,0.101976,0.101648,-0.143235,11,0.0034447,10,-1.45595e-05,-3.84395,0.515591,0.114432,-0.637862,0.101648,
2,0,0,1,0,20540.9,0.100478,0.100153,-0.142318,11,0.00321141,10,-1.42537e-05,-3.84674,0.429156,0.137479,-0.762297,0.100153,
2,0,0,1,0,20542.4,0.0989798,0.0986805,-0.140659,11,0.0029794,10,-1.38803e-05,-3.85183,0.483868,0.121934,-0.671502,0.0986805,
2,0,0,1,0,20543.9,0.0974816,0.0971885,-0.14053,11,0.00274854,10,-1.36579e-05,-3.85223,0.42519,0.138761,-0.756969,0.09718851,
2,0,0,1,0,20545.4,0.0959834,0.0956732,-0.139094,11,0.0025193,10,-1.33075e-05,-3.85669,0.412371,0.143075,-0.777801,0.0956732,
2,0,0,1,0,20546.8,0.0944852,0.0942226,-0.137528,11,0.00229254,10,-1.29583e-05,-3.86161,0.43159,0.136704,-0.736425,0.09422259,
2,0,0,1,0,20548.3,0.0929871,0.0926787,-0.136774,11,0.00206684,10,-1.26761e-05,-3.864,0.633125,0.0931885,-0.496392,0.0926787,
2,0,0,1,0,20549.8,0.0914889,0.0911984,-0.136171,11,0.00184257,10,-1.24186e-05,-3.86592,0.395532,0.149166,-0.78991,0.09119837,
2,0,0,1,0,20551.3,0.0899907,0.0897063,-0.134426,11,0.00162059,10,-1.20589e-05,-3.87152,0.358355,0.164641,-0.861075,0.0897063,
2,0,0,1,0,20552.8,0.0884925,0.0881666,-0.132193,11,0.001401,10,-1.1655e-05,-3.87879,0.337332,0.174902,-0.908757,0.0881666,
2,0,0,1,0,20554.3,0.0869943,0.0866524,-0.131664,11,0.00118305,10,-1.1409e-05,-3.88053,0.489876,0.120439,-0.619709,0.0866524,
2,0,0,1,0,20555.8,0.0854961,0.0851572,-0.130887,11,0.000966626,10,-1.1146e-05,-3.8831,0.366491,0.160986,-0.819873,0.0851572,
2,0,0,1,0,20557.3,0.083998,0.0836823,-0.12972,11,0.000752051,10,-1.08552e-05,-3.88699,0.306812,0.1923,-0.970541,0.0836823,
2,0,0,1,0,20558.8,0.0824998,0.0821977,-0.128361,11,0.000538991,10,-1.0551e-05,-3.89157,0.461334,0.12789,-0.642197,0.0821977,
2,0,0,1,0,20560.3,0.0810016,0.0807269,-0.127663,11,0.000328045,10,-1.03058e-05,-3.89394,0.494078,0.119414,-0.59624,0.0807269,
2,0,0,1,0,20561.8,0.0795034,0.0791999,-0.126347,11,0.000118163,10,-1.00066e-05,-3.89844,0.496252,0.118891,-0.588863,0.0791999,
2,0,0,1,0,20563.3,0.0780052,0.0776602,-0.126254,11,-9.06123e-05,10,-9.80488e-06,-3.89876,0.805414,0.0732542,-0.359024,0.0776602,
2,0,0,1,0,20564.8,0.076507,0.0761501,-0.125879,11,-0.000298357,10,-9.5857e-06,-3.90005,0.656534,0.0898659,-0.439053,0.0761501,
2,0,0,1,0,20566.3,0.0750088,0.0746634,-0.124637,11,-0.000504898,10,-9.30582e-06,-3.90435,1.05928,0.0556982,-0.270686,0.07466343,
2,0,0,1,0,20567.8,0.0735106,0.0731439,-0.123662,11,-0.000710423,10,-9.04513e-06,-3.90776,0.476686,0.123771,-0.597791,0.0731439,
2,0,0,1,0,20569.3,0.0720124,0.0716985,-0.122622,11,-0.000914904,10,-8.79183e-06,-3.91143,0.486137,0.121365,-0.581811,0.0716985,
2,0,0,1,0,20570.8,0.0705142,0.0701598,-0.12145,11,-0.00111782,10,-8.52092e-06,-3.9156,0.552497,0.106788,-0.510666,0.0701598,
2,0,0,1,0,20572.3,0.069016,0.0686806,-0.121166,11,-0.0013193,10,-8.32174e-06,-3.91662,0.711993,0.082866,-0.393357,0.0686806,
2,0,0,1,0,20573.8,0.0675178,0.0671971,-0.120702,11,-0.00152015,10,-8.11084e-06,-3.91828,1.70197,0.0346656,-0.163555,0.0671971,
2,0,0,1,0,20575.3,0.0660196,0.0657337,-0.120712,11,-0.0017203,10,-7.93483e-06,-3.91825,2.05856,0.0286608,-0.13478,0.0657337,
2,0,0,1,0,20576.8,0.0645214,0.0641929,-0.120045,11,-0.0019197,10,-7.70603e-06,-3.92066,0.669077,0.0881812,-0.411897,0.0641929,
2,0,0,1,0,20578.3,0.0630233,0.0627021,-0.11891,11,-0.00211823,10,-7.45593e-06,-3.92478,1.5711,0.0375533,-0.175008,0.0627021,
2,0,0,1,0,20579.8,0.0615251,0.0612185,-0.119012,11,-0.00231572,10,-7.28576e-06,-3.92441,0.928324,0.0635554,-0.294527,0.0612185,
2,0,0,1,0,20581.3,0.0600269,0.0597159,-0.117862,11,-0.00251298,10,-7.03826e-06,-3.92862,1.06715,0.0552874,-0.255113,0.0597159,
2,0,0,1,0,20582.8,0.0585287,0.058224,-0.117253,11,-0.00270904,10,-6.82693e-06,-3.93088,0.451135,0.130781,-0.599604,0.05822397,
2,0,0,1,0,20584.3,0.0570305,0.0567457,-0.116641,11,-0.00290411,10,-6.61888e-06,-3.93315,0.80794,0.0730252,-0.335398,0.0567457,
2,0,0,1,0,20585.8,0.0555323,0.0552262,-0.11681,11,-0.00309784,10,-6.45095e-06,-3.93252,0.981843,0.0600911,-0.27429,0.0552262,
2,0,0,1,0,20587.3,0.0540342,0.0536802,-0.116219,11,-0.0032915,10,-6.23864e-06,-3.93472,1.08709,0.0542732,-0.245527,0.05368017,
2,0,0,1,0,20588.8,0.052536,0.0522009,-0.116227,11,-0.00348462,10,-6.06716e-06,-3.93469,0.630382,0.0935941,-0.421893,0.0522009,
2,0,0,1,0,20590.3,0.0510378,0.0506973,-0.114901,11,-0.00367692,10,-5.82518e-06,-3.93968,0.576106,0.102412,-0.458721,0.0506973,
2,0,0,1,0,20591.8,0.0495396,0.0491968,-0.114695,11,-0.00386757,10,-5.64265e-06,-3.94045,0.652187,0.0904649,-0.403615,0.0491968,
2,0,0,1,0,20593.3,0.0480414,0.047726,-0.113776,11,-0.00405761,10,-5.43007e-06,-3.94395,0.95213,0.0619664,-0.274794,0.047726,
2,0,0,1,0,20594.8,0.0465432,0.0461979,-0.113399,11,-0.00424666,10,-5.23881e-06,-3.94539,0.973365,0.0606144,-0.268259,0.0461979,
2,0,0,1,0,20596.3,0.045045,0.0447409,-0.112505,11,-0.00443518,10,-5.03359e-06,-3.94883,0.656352,0.0898908,-0.393564,0.0447409,
2,0,0,1,0,20597.8,0.0435468,0.0432192,-0.111409,11,-0.00462223,10,-4.81499e-06,-3.95308,0.47125,0.125199,-0.54744,0.0432192,
2,0,0,1,0,20599.3,0.0420486,0.0417399,-0.111239,11,-0.00480826,10,-4.64311e-06,-3.95374,0.988891,0.0596628,-0.258725,0.0417399,
2,0,0,1,0,20600.8,0.0405504,0.0401959,-0.11173,11,-0.00499413,10,-4.49111e-06,-3.95183,0.721544,0.0817691,-0.353408,0.0401959,
2,0,0,1,0,20602.3,0.0390522,0.0387273,-0.110423,11,-0.00517893,10,-4.27637e-06,-3.95694,0.707192,0.0834285,-0.359824,0.0387273,
2,0,0,1,0,20603.8,0.037554,0.0371791,-0.109501,11,-0.00536304,10,-4.07114e-06,-3.96058,0.817389,0.0721811,-0.309624,0.0371791,
2,0,0,1,0,20605.3,0.0360558,0.0357358,-0.109359,11,-0.00554611,10,-3.90803e-06,-3.96115,0.671133,0.0879111,-0.376445,0.0357358,
2,0,0,1,0,20606.8,0.0345576,0.0342385,-0.108823,11,-0.00572889,10,-3.72593e-06,-3.96328,0.843258,0.0699667,-0.297776,0.0342385,
2,0,0,1,0,20608.3,0.0330594,0.0327466,-0.108153,11,-0.00591093,10,-3.54165e-06,-3.96596,0.477944,0.123445,-0.522607,0.0327466,
2,0,0,1,0,20609.8,0.0315613,0.0312239,-0.107467,11,-0.00609202,10,-3.35554e-06,-3.96873,0.625195,0.0943705,-0.397472,0.0312239,
2,0,0,1,0,20611.3,0.0300631,0.0297394,-0.107318,11,-0.0062719,10,-3.19156e-06,-3.96933,1.41351,0.0417399,-0.174978,0.0297394,
2,0,0,1,0,20612.8,0.0285649,0.0282495,-0.107105,11,-0.00645142,10,-3.02567e-06,-3.97019,0.843603,0.0699381,-0.292232,0.0282495,
2,0,0,1,0,20614.3,0.0270667,0.0267331,-0.107008,11,-0.00663068,10,-2.86066e-06,-3.97058,0.778789,0.0757587,-0.315275,0.0267331,
2,0,0,1,0,20615.8,0.0255685,0.0252866,-0.106379,11,-0.00680904,10,-2.68997e-06,-3.97314,0.850382,0.0693806,-0.288066,0.02528663,
2,0,0,1,0,20617.3,0.0240703,0.0237246,-0.10563,11,-0.00698632,10,-2.50604e-06,-3.97621,1.14207,0.0516605,-0.21346,0.02372464,
2,0,0,1,0,20618.8,0.0225722,0.0223059,-0.104994,11,-0.00716301,10,-2.342e-06,-3.97883,1.887,0.0312665,-0.128504,0.0223059,
2,0,0,1,0,20620.3,0.021074,0.0207122,-0.105309,11,-0.0073396,10,-2.18119e-06,-3.97753,5.99635,0.00983932,-0.0404732,0.02071218,
2,0,0,1,0,20621.8,0.0195758,0.0192806,-0.104931,11,-0.00751575,10,-2.02313e-06,-3.9791,0.815146,0.0723797,-0.296516,0.0192806,
2,0,0,1,0,20623.3,0.0180776,0.0177462,-0.104067,11,-0.00769145,10,-1.84679e-06,-3.98269,4.22084,0.0139783,-0.0572156,0.0177462,
2,0,0,1,0,20624.8,0.0165794,0.0162616,-0.104694,11,-0.00786652,10,-1.70248e-06,-3.98008,1.57706,0.0374115,-0.152841,0.0162616,
2,0,0,1,0,20626.3,0.0150812,0.0147579,-0.105482,11,-0.0080424,10,-1.5567e-06,-3.97682,-3.40231,-0.0173412,0.0708893,0.0147579,
2,0,0,1,0,20627.8,0.013583,0.0132564,-0.105606,11,-0.00821823,10,-1.39996e-06,-3.97631,3.23711,0.0182261,-0.0747131,0.0132564,
2,0,0,1,0,20629.2,0.0120848,0.0117707,-0.10513,11,-0.00839413,10,-1.23746e-06,-3.97827,-1.64617,-0.0358408,0.147472,0.0117707,
2,0,0,1,0,20630.7,0.0105866,0.0103074,-0.105284,11,-0.00856999,10,-1.0852e-06,-3.97764,-1.4744,-0.0400164,0.164883,0.0103074,
2,0,0,1,0,20632.2,0.00908843,0.00878035,-0.106164,11,-0.00874678,10,-9.32154e-07,-3.97402,-0.715113,-0.0825044,0.341519,0.00878035,
2,0,0,1,0,20633.7,0.00759024,0.00725022,-0.106655,11,-0.00892429,10,-7.73275e-07,-3.97202,-1.69016,-0.0349079,0.145021,0.00725022,
2,0,0,1,0,20635.2,0.00609203,0.00573057,-0.106873,11,-0.00910233,10,-6.12444e-07,-3.97113,-0.847024,-0.0696557,0.290543,0.00573057,
2,0,0,1,0,20636.7,0.00459384,0.00427467,-0.107618,11,-0.00928098,10,-4.60033e-07,-3.96811,-0.832095,-0.0709054,0.297285,0.00427467,
2,0,0,1,0,20638.2,0.00309563,0.00277418,-0.10815,11,-0.00946053,10,-3.00028e-07,-3.96597,-0.633479,-0.0931365,0.392634,0.00277418,
2,0,0,1,0,20639.7,0.00159744,0.00121005,-0.109304,11,-0.00964324,10,-1.32264e-07,-3.96136, , , ,0.00121005,
2,0,0,1,0,20641.1,0.000199235,-0.00021841,-0.108957,11,-0.0098127,10,2.37974e-08,-3.96274, , , ,-0.00021841,