File: Figure_codes/Fig_3-5/rawdata_trumpetplot_data/after 10th/20221101_1-115_003_TrumpetPlot_ParaChange_from10_every3_03_CV_C01_29.csv
mode,ox/red,error,control changes,counter inc.,time/s,control/V,Ewe/V,<I>/mA,cycle number,(Q-Qo)/C,I Range,P/W,log(|I|),Tafel slope mV/dec,alpha_eff,dI/d(E-IR),E-IR/V,
2,0,0,1,0,58073.8,2.44065e-05,-0.000306236,-0.110207,30,0.0000000E+000,10,3.37492e-08,-3.95779, , , ,-0.000306236,
2,1,0,0,0,58074.1,0.00129787,0.000917473,0.122949,30,1.87321e-05,10,1.12803e-07,-3.91027, , , ,0.000917473,
2,1,0,0,0,58074.4,0.00279606,0.0024487,0.167292,30,6.78441e-05,10,4.09647e-07,-3.77653,0.0126246,4.6734,23.8875,0.0024487,
2,1,0,1,0,58074.7,0.00429469,0.00395272,0.179323,30,0.000123756,10,7.08815e-07,-3.74636,0.0545198,1.08218,7.51029,0.00395272,
2,1,0,1,0,58075,0.00579255,0.00540538,0.188941,30,0.000183101,10,1.0213e-06,-3.72367,0.062914,0.937789,6.90214,0.00540538,
2,1,0,1,0,58075.2,0.00729041,0.0069455,0.199404,30,0.000245324,10,1.38496e-06,-3.70027,0.0856167,0.689118,5.31091,0.0069455,
2,1,0,1,0,58075.5,0.00878882,0.00846651,0.207618,30,0.000310219,10,1.7578e-06,-3.68274,0.102158,0.577536,4.63711,0.00846651,
2,1,0,1,0,58075.8,0.010287,0.00998077,0.21361,30,0.000377102,10,2.13199e-06,-3.67038,0.13056,0.451899,3.74294,0.00998077,
2,1,0,1,0,58076.1,0.0117852,0.0114558,0.219187,30,0.000445801,10,2.51096e-06,-3.65918,0.127221,0.463759,3.9585,0.0114558,
2,1,0,1,0,58076.4,0.0132836,0.0129248,0.225393,30,0.000516126,10,2.91316e-06,-3.64706,0.128163,0.460351,4.0552,0.0129248,
2,1,0,1,0,58076.7,0.0147815,0.0144027,0.23005,30,0.00058831,10,3.31335e-06,-3.63818,0.150948,0.390863,3.52083,0.0144027,
2,1,0,1,0,58077,0.0162793,0.0158856,0.235966,30,0.000662311,10,3.74847e-06,-3.62715,0.17709,0.333163,3.06412,0.0158856,
2,1,0,0,0,58077.3,0.017778,0.0174312,0.241463,30,0.000737704,10,4.20899e-06,-3.61715,0.154973,0.380711,3.58803,0.0174312,
2,1,0,0,0,58077.6,0.0192761,0.0189062,0.246439,30,0.000814352,10,4.65924e-06,-3.60829,0.158333,0.372633,3.56773,0.01890621,
2,1,0,1,0,58077.9,0.0207747,0.020422,0.25198,30,0.000892846,10,5.14594e-06,-3.59863,0.155734,0.378852,3.70962,0.020422,
2,1,0,1,0,58078.2,0.0222725,0.0218668,0.257346,30,0.000972933,10,5.62734e-06,-3.58948,0.178797,0.329983,3.29948,0.0218668,
2,1,0,1,0,58078.5,0.0237704,0.0234339,0.26074,30,0.00105448,10,6.11017e-06,-3.58379,0.188119,0.313631,3.20139,0.0234339,
2,1,0,1,0,58078.8,0.0252689,0.0249314,0.265925,30,0.0011373,10,6.6299e-06,-3.57524,0.179153,0.329328,3.42232,0.0249314,
2,1,0,1,0,58079.1,0.0267671,0.0264118,0.271486,30,0.00122177,10,7.17043e-06,-3.56625,0.16132,0.365732,3.86666,0.0264118,
2,1,0,1,0,58079.4,0.0282657,0.0279169,0.277422,30,0.00130781,10,7.74475e-06,-3.55686,0.192929,0.305812,3.30178,0.0279169,
2,1,0,1,0,58079.7,0.0297635,0.0294128,0.281973,30,0.00139542,10,8.29359e-06,-3.54979,0.200247,0.294636,3.23256,0.0294128,
2,1,0,1,0,58080,0.0312613,0.0309203,0.284995,30,0.00148435,10,8.81212e-06,-3.54516,0.181271,0.325479,3.64412,0.0309203,
2,1,0,0,0,58080.3,0.0327599,0.0323872,0.291966,30,0.00157476,10,9.45594e-06,-3.53467,0.172284,0.342458,3.90886,0.0323872,
2,1,0,0,0,58080.6,0.034258,0.0339247,0.297416,30,0.00166691,10,1.00898e-05,-3.52664,0.201285,0.293117,3.39664,0.0339247,
2,1,0,1,0,58080.9,0.0357567,0.0353844,0.302787,30,0.00176075,10,1.07139e-05,-3.51886,0.225226,0.261959,3.07403,0.0353844,
2,1,0,1,0,58081.2,0.0372545,0.0369142,0.307001,30,0.00185595,10,1.13327e-05,-3.51286,0.224512,0.262792,3.15094,0.0369142,
2,1,0,1,0,58081.5,0.0387524,0.0384102,0.312028,30,0.00195239,10,1.19851e-05,-3.50581,0.199904,0.295142,3.61203,0.0384102,
2,1,0,1,0,58081.8,0.0402508,0.0399001,0.317818,30,0.00205058,10,1.2681e-05,-3.49782,0.211793,0.278574,3.44954,0.0399001,
2,1,0,1,0,58082.1,0.041749,0.041425,0.32308,30,0.0021505,10,1.33836e-05,-3.49069,0.222165,0.265568,3.34132,0.041425,
2,1,0,1,0,58082.4,0.0432472,0.0429159,0.327517,30,0.00225167,10,1.40557e-05,-3.48477,0.244086,0.241718,3.08873,0.0429159,
2,1,0,1,0,58082.7,0.0447456,0.0443903,0.332572,30,0.00235419,10,1.4763e-05,-3.47811,0.241263,0.244546,3.16774,0.0443903,
2,1,0,1,0,58083,0.0462435,0.0459082,0.337085,30,0.0024582,10,1.5475e-05,-3.47226,0.219214,0.269143,3.5366,0.0459082,
2,1,0,1,0,58083.3,0.0477413,0.047398,0.341043,30,0.00256366,10,1.61648e-05,-3.46719,0.255601,0.230829,3.07838,0.047398,
2,1,0,0,0,58083.6,0.0492399,0.0488871,0.345716,30,0.00267053,10,1.69011e-05,-3.46128,0.270152,0.218396,2.95329,0.0488871,
2,1,0,0,0,58083.9,0.0507381,0.0503897,0.349322,30,0.00277851,10,1.76022e-05,-3.45677,0.259979,0.226941,3.10005,0.05038967,
2,1,0,1,0,58084.2,0.0522367,0.0518546,0.353989,30,0.00288795,10,1.8356e-05,-3.45101,0.235247,0.2508,3.46756,0.0518546,
2,1,0,1,0,58084.5,0.0537345,0.0533654,0.359734,30,0.00299884,10,1.91974e-05,-3.44402,0.272419,0.216578,3.03954,0.0533654,
2,1,0,1,0,58084.8,0.0552323,0.0548643,0.363388,30,0.00311102,10,1.9937e-05,-3.43963,0.318145,0.18545,2.62312,0.0548643,
2,1,0,1,0,58085.1,0.0567309,0.0563555,0.364644,30,0.00322433,10,2.05497e-05,-3.43813,0.382538,0.154233,2.20704,0.0563555,
2,1,0,1,0,58085.4,0.0582291,0.057891,0.370545,30,0.00333864,10,2.14512e-05,-3.43116,0.318947,0.184984,2.6767,0.057891,
2,1,0,1,0,58085.7,0.0597277,0.059355,0.375992,30,0.00345436,10,2.2317e-05,-3.42482,0.297972,0.198005,2.89874,0.059355,
2,1,0,1,0,58086,0.0612255,0.0608877,0.378646,30,0.00357137,10,2.30549e-05,-3.42177,0.423413,0.139344,2.05611,0.0608877,
2,1,0,1,0,58086.3,0.0627233,0.062355,0.381817,30,0.00368949,10,2.38082e-05,-3.41814,0.360162,0.163815,2.4498,0.062355,
2,1,0,0,0,58086.6,0.0642218,0.0638621,0.386308,30,0.00380838,10,2.46704e-05,-3.41307,0.34155,0.172742,2.60743,0.0638621,
2,1,0,0,0,58086.9,0.06572,0.065404,0.389152,30,0.00392869,10,2.54521e-05,-3.40988,0.343766,0.171628,2.60475,0.065404,
2,1,0,1,0,58087.2,0.0672187,0.0668783,0.393623,30,0.00405004,10,2.63248e-05,-3.40492,0.456241,0.129318,1.98021,0.0668783,
2,1,0,1,0,58087.5,0.0687165,0.068368,0.396705,30,0.00417232,10,2.71219e-05,-3.40153,0.465768,0.126673,1.95749,0.068368,
2,1,0,1,0,58087.8,0.0702144,0.0698734,0.398891,30,0.00429532,10,2.78719e-05,-3.39915,0.455895,0.129416,2.01588,0.0698734,
2,1,0,1,0,58088.1,0.0717128,0.0713603,0.401879,30,0.00441937,10,2.86782e-05,-3.39591,0.38689,0.152498,2.38944,0.0713603,
2,1,0,1,0,58088.4,0.073211,0.0728703,0.405231,30,0.00454434,10,2.95293e-05,-3.3923,0.420329,0.140366,2.22195,0.0728703,
2,1,0,1,0,58088.7,0.0747092,0.0744142,0.407732,30,0.0046701,10,3.03411e-05,-3.38962,0.504389,0.116973,1.86097,0.0744142,
2,1,0,1,0,58089,0.0762076,0.0758639,0.409508,30,0.0047966,10,3.10669e-05,-3.38774,0.423626,0.139274,2.233,0.0758639,
2,1,0,1,0,58089.3,0.0777054,0.0773304,0.413999,30,0.00492398,10,3.20147e-05,-3.383,0.430809,0.136952,2.20835,0.07733041,
2,1,0,1,0,58089.6,0.0792033,0.0788282,0.41718,30,0.00505244,10,3.28856e-05,-3.37968,0.469808,0.125583,2.04117,0.0788282,
2,1,0,0,0,58089.9,0.0807019,0.0803069,0.419821,30,0.00518179,10,3.37146e-05,-3.37694,0.657923,0.0896762,1.46526,0.0803069,
2,1,0,0,0,58090.2,0.0822001,0.0818541,0.421485,30,0.00531188,10,3.45003e-05,-3.37522,0.496069,0.118935,1.95889,0.08185406,
2,1,0,1,0,58090.5,0.0836986,0.0833293,0.425382,30,0.00544276,10,3.54468e-05,-3.37122,0.454754,0.129741,2.15921,0.0833293,
2,1,0,1,0,58090.8,0.0851965,0.0848178,0.429045,30,0.00557485,10,3.63906e-05,-3.3675,0.399883,0.147543,2.47527,0.0848178,
2,1,0,1,0,58091.1,0.0866944,0.086318,0.433174,30,0.00570814,10,3.73908e-05,-3.36334,0.49092,0.120182,2.02956,0.086318,
2,1,0,1,0,58091.4,0.0881929,0.0878825,0.436878,30,0.00584261,10,3.83939e-05,-3.35964,0.362906,0.162576,2.77771,0.0878825,
2,1,0,1,0,58091.7,0.0896911,0.0893596,0.441358,30,0.00597794,10,3.94396e-05,-3.35521,0.293015,0.201355,3.47905,0.0893596,
2,1,0,1,0,58092,0.0911897,0.0907747,0.447233,30,0.00611509,10,4.05974e-05,-3.34947,0.266384,0.221485,3.85953,0.0907747,
2,1,0,1,0,58092.3,0.0926875,0.0923254,0.452874,30,0.00625403,10,4.18118e-05,-3.34402,0.274694,0.214785,3.79022,0.0923254,
2,1,0,1,0,58092.6,0.0941853,0.0938861,0.45863,30,0.00639458,10,4.3059e-05,-3.33854,0.296401,0.199055,3.56409,0.0938861,
2,1,0,0,0,58092.9,0.0956838,0.0953149,0.463878,30,0.00653665,10,4.42145e-05,-3.3336,0.249232,0.236727,4.29972,0.0953149,
2,1,0,0,0,58093.2,0.097182,0.0968143,0.471,30,0.00668085,10,4.55995e-05,-3.32698,0.18984,0.310787,5.71472,0.0968143,
2,1,0,1,0,58093.5,0.0986807,0.0982961,0.479585,30,0.00682744,10,4.71413e-05,-3.31913,0.217786,0.270908,5.06679,0.0982961,
2,1,0,1,0,58093.8,0.100179,0.0998281,0.486677,30,0.00697631,10,4.8584e-05,-3.31276,0.215473,0.273817,5.19886,0.0998281,
2,1,0,1,0,58094.1,0.101676,0.101352,0.49262,30,0.00712726,10,4.99278e-05,-3.30749,0.203778,0.28953,5.59251,0.101352,
2,1,0,1,0,58094.4,0.103175,0.102802,0.503156,30,0.00728054,10,5.17257e-05,-3.2983,0.212206,0.278032,5.45698,0.102802,
2,1,0,1,0,58094.7,0.104673,0.104329,0.511398,30,0.00743651,10,5.33539e-05,-3.29124,0.218337,0.270224,5.37719,0.104329,
2,1,0,1,0,58095,0.106171,0.105854,0.518439,30,0.00759497,10,5.4879e-05,-3.2853,0.241811,0.243992,4.92203,0.105854,
2,1,0,1,0,58095.3,0.10767,0.107341,0.526284,30,0.00775572,10,5.64919e-05,-3.27878,0.246361,0.239486,4.9177,0.107341,
2,1,0,1,0,58095.6,0.109167,0.108802,0.533258,30,0.00791828,10,5.80195e-05,-3.27306,0.262096,0.225109,4.69262,0.108802,
2,1,0,1,0,58095.9,0.110665,0.110322,0.540247,30,0.00808321,10,5.96012e-05,-3.26741,0.281012,0.209955,4.42442,0.110322,
2,1,0,0,0,58096.2,0.112164,0.111832,0.547374,30,0.00825028,10,6.12138e-05,-3.26172,0.361864,0.163045,3.46931,0.111832,
2,1,0,0,0,58096.5,0.113662,0.113328,0.553091,30,0.00841904,10,6.26806e-05,-3.2572,0.363193,0.162448,3.49709,0.113328,
2,1,0,1,0,58096.8,0.115161,0.11478,0.558913,30,0.00858908,10,6.4152e-05,-3.25266,0.394434,0.149581,3.25089,0.11478,
2,1,0,1,0,58097.1,0.116658,0.116293,0.563332,30,0.00876091,10,6.55115e-05,-3.24924,0.353716,0.166801,3.65497,0.116293,
2,1,0,1,0,58097.4,0.118156,0.117805,0.567223,30,0.00893431,10,6.68215e-05,-3.24625,0.487844,0.12094,2.67377,0.117805,
2,1,0,1,0,58097.7,0.119655,0.119313,0.570642,30,0.00910896,10,6.80849e-05,-3.24364,0.848472,0.0695368,1.55081,0.119313,
2,1,0,1,0,58098,0.121153,0.120814,0.572372,30,0.00928421,10,6.91508e-05,-3.24232,0.646116,0.0913149,2.04751,0.120814,
2,1,0,1,0,58098.3,0.122652,0.122306,0.577235,30,0.00946052,10,7.05991e-05,-3.23865,0.485282,0.121579,2.73537,0.1223057,
2,1,0,1,0,58098.6,0.124149,0.123776,0.580388,30,0.00963798,10,7.18381e-05,-3.23628,0.727065,0.0811481,1.83632,0.123776,
2,1,0,1,0,58098.9,0.125647,0.125278,0.583289,30,0.00981629,10,7.30735e-05,-3.23412,1.48738,0.0396671,0.901526,0.125278,
2,1,0,0,0,58099.2,0.127146,0.126761,0.582086,30,0.00999504,10,7.37859e-05,-3.23501,1.30342,0.0452657,1.03091,0.126761,
2,1,0,0,0,58099.5,0.128644,0.128331,0.585465,30,0.0101742,10,7.51331e-05,-3.2325,2.4899,0.0236957,0.540959,0.1283306,
2,1,0,1,0,58099.8,0.130143,0.129767,0.587136,30,0.0103537,10,7.61908e-05,-3.23126,-1.81205,-0.0325598,-0.74328,0.129767,
2,1,0,1,0,58100.1,0.131641,0.1313,0.584634,30,0.0105333,10,7.67625e-05,-3.23312,-0.54609,-0.108041,-2.45456,0.1313,
2,1,0,1,0,58100.4,0.133138,0.132801,0.581513,30,0.010712,10,7.72255e-05,-3.23544,-0.43299,-0.136262,-3.08605,0.132801,
2,1,0,1,0,58100.7,0.134637,0.134253,0.575736,30,0.0108892,10,7.72943e-05,-3.23978,-0.306841,-0.192282,-4.31555,0.134253,
2,1,0,1,0,58101,0.136135,0.135771,0.569053,30,0.0110648,10,7.72612e-05,-3.24485,-0.231196,-0.255194,-5.64212,0.135771,
2,1,0,1,0,58101.3,0.137633,0.137273,0.559276,30,0.0112377,10,7.67735e-05,-3.25237,-0.160106,-0.368506,-7.99242,0.137273,
2,1,0,1,0,58101.6,0.139132,0.138755,0.546408,30,0.0114072,10,7.58168e-05,-3.26248,-0.13252,-0.445215,-9.44572,0.138755,
2,1,0,1,0,58101.9,0.140629,0.140292,0.53133,30,0.0115721,10,7.45412e-05,-3.27464,-0.111169,-0.530723,-10.9533,0.140292,
2,1,0,1,0,58102.2,0.142127,0.141795,0.513568,30,0.0117324,10,7.28214e-05,-3.2894,-0.0976274,-0.604338,-12.0315,0.141795,
2,1,0,0,0,58102.5,0.143626,0.143317,0.494368,30,0.0118874,10,7.08515e-05,-3.30595,-0.0854024,-0.690847,-13.2722,0.143317,
2,1,0,0,0,58102.8,0.145124,0.14482,0.472658,30,0.0120362,10,6.84503e-05,-3.32545,-0.0788504,-0.748252,-13.8199,0.14482,
2,1,0,1,0,58103.1,0.146623,0.146252,0.450828,30,0.0121785,10,6.59345e-05,-3.34599,-0.0778777,-0.757598,-13.4026,0.146252,
2,1,0,1,0,58103.4,0.14812,0.147796,0.432771,30,0.0123149,10,6.39616e-05,-3.36374,-0.0787648,-0.749066,-12.6491,0.147796,
2,1,0,1,0,58103.7,0.149618,0.14928,0.41419,30,0.0124455,10,6.18301e-05,-3.3828,-0.0805589,-0.732384,-11.8644,0.14928,
2,1,0,1,0,58104,0.151117,0.150808,0.397117,30,0.0125708,10,5.98885e-05,-3.40108,-0.0841129,-0.701438,-10.8752,0.150808,
2,1,0,1,0,58104.3,0.152615,0.152256,0.381434,30,0.0126912,10,5.80755e-05,-3.41858,-0.0929559,-0.63471,-9.50095,0.152256,
2,1,0,1,0,58104.6,0.154114,0.153755,0.369918,30,0.0128075,10,5.68769e-05,-3.43189,-0.11559,-0.510423,-7.39111,0.153755,
2,1,0,1,0,58104.9,0.155612,0.155279,0.359395,30,0.0129203,10,5.58063e-05,-3.44443,-0.128703,-0.458419,-6.43715,0.155279,
2,1,0,1,0,58105.2,0.157109,0.15674,0.349574,30,0.0130303,10,5.47921e-05,-3.45646,-0.131596,-0.448343,-6.12013,0.15674,
2,1,0,0,0,58105.5,0.158608,0.15824,0.341638,30,0.0131376,10,5.4061e-05,-3.46643,-0.15803,-0.373347,-5.00693,0.15824,
2,1,0,0,0,58105.8,0.160106,0.159726,0.335242,30,0.0132425,10,5.3547e-05,-3.47464,-0.192423,-0.306616,-4.03049,0.159726,
2,1,0,1,0,58106.1,0.161605,0.161192,0.331145,30,0.013346,10,5.33779e-05,-3.47998,-0.238958,-0.246905,-3.1813,0.1611919,
2,1,0,1,0,58106.4,0.163102,0.162749,0.325621,30,0.0134479,10,5.29946e-05,-3.48729,-0.244119,-0.241685,-3.0699,0.162749,
2,1,0,1,0,58106.7,0.1646,0.164273,0.321371,30,0.0135484,10,5.27927e-05,-3.49299,-0.308285,-0.191382,-2.40218,0.164273,
2,1,0,1,0,58107,0.166099,0.165723,0.317335,30,0.0136477,10,5.25896e-05,-3.49848,-0.354437,-0.166461,-2.06583,0.165723,
2,1,0,1,0,58107.3,0.167597,0.16722,0.315079,30,0.0137461,10,5.26875e-05,-3.50158,-0.443619,-0.132997,-1.63286,0.16722,
2,1,0,1,0,58107.6,0.169095,0.168776,0.311711,30,0.0138439,10,5.26091e-05,-3.50625,-0.510942,-0.115473,-1.40918,0.168776,
2,1,0,1,0,58107.9,0.170594,0.170242,0.309364,30,0.0139407,10,5.2667e-05,-3.50953,-0.368818,-0.15997,-1.93737,0.170242,
2,1,0,1,0,58108.2,0.172091,0.171763,0.306476,30,0.0140367,10,5.26412e-05,-3.5136,-0.530548,-0.111206,-1.33506,0.171763,
2,1,0,1,0,58108.5,0.173589,0.173248,0.305402,30,0.0141322,10,5.29102e-05,-3.51513,-0.683664,-0.0862997,-1.02684,0.173248,
2,1,0,0,0,58108.8,0.175088,0.174747,0.30415,30,0.0142272,10,5.31493e-05,-3.51691,-0.84892,-0.0695001,-0.824791,0.174747,
2,1,0,0,0,58109.1,0.176586,0.176266,0.302805,30,0.0143218,10,5.33743e-05,-3.51884,-0.6626,-0.0890432,-1.04986,0.176266,
2,1,0,1,0,58109.4,0.178085,0.177715,0.300636,30,0.014416,10,5.34275e-05,-3.52196,-0.809758,-0.0728613,-0.856981,0.177715,
2,1,0,1,0,58109.7,0.179582,0.179266,0.299704,30,0.0145097,10,5.37268e-05,-3.52331,-1.55946,-0.0378337,-0.443573,0.179266,
2,1,0,1,0,58110,0.18108,0.18074,0.298071,30,0.014603,10,5.38734e-05,-3.52568,-1.02638,-0.0574837,-0.671758,0.18074,
2,1,0,1,0,58110.3,0.182579,0.182261,0.297428,30,0.0146962,10,5.42095e-05,-3.52662,-0.562608,-0.104869,-1.21699,0.182261,
2,1,0,1,0,58110.6,0.184077,0.183751,0.297494,30,0.014789,10,5.46648e-05,-3.52652,-1.03876,-0.0567984,-0.657567,0.183751,
2,1,0,1,0,58110.9,0.185576,0.185252,0.296812,30,0.0148813,10,5.49849e-05,-3.52752,-10.9967,-0.00536522,-0.0619003,0.185252,
2,1,0,1,0,58111.2,0.187074,0.186723,0.296193,30,0.0149736,10,5.53061e-05,-3.52842,-1.80955,-0.0326049,-0.374975,0.186723,
2,1,0,1,0,58111.5,0.188571,0.188179,0.295944,30,0.0150658,10,5.56904e-05,-3.52879,-1.50315,-0.0392509,-0.451702,0.1881787,
2,1,0,0,0,58111.8,0.19007,0.189693,0.294952,30,0.0151578,10,5.59503e-05,-3.53025,-2.05275,-0.0287419,-0.330341,0.189693,
2,1,0,0,0,58112.1,0.191568,0.191224,0.293918,30,0.0152494,10,5.62043e-05,-3.53177,-1.24355,-0.0474447,-0.544621,0.191224,
2,1,0,1,0,58112.4,0.193067,0.192699,0.29285,30,0.0153409,10,5.64317e-05,-3.53336,-2.36008,-0.0249991,-0.285416,0.192699,
2,1,0,1,0,58112.7,0.194564,0.19421,0.293081,30,0.0154324,10,5.69191e-05,-3.53301,-7.09183,-0.00831943,-0.0950444,0.19421,
2,1,0,1,0,58113,0.196062,0.195741,0.292057,30,0.0155236,10,5.71674e-05,-3.53453,-1.37234,-0.0429923,-0.490974,0.195741,
2,1,0,1,0,58113.3,0.197561,0.197194,0.289653,30,0.0156145,10,5.71179e-05,-3.53812,-5.66945,-0.0104067,-0.118475,0.197194,
2,1,0,1,0,58113.6,0.199059,0.198717,0.291349,30,0.0157052,10,5.7896e-05,-3.53559,4.71699,0.012508,0.14211,0.198717,
2,1,0,1,0,58113.9,0.200557,0.200212,0.291129,30,0.015796,10,5.82876e-05,-3.53591,-1.66619,-0.0354101,-0.400481,0.200212,
2,1,0,1,0,58114.2,0.202056,0.201713,0.29023,30,0.0158866,10,5.85432e-05,-3.53726,-1.35046,-0.0436889,-0.493328,0.2017131,
2,1,0,1,0,58114.5,0.203553,0.203198,0.287841,30,0.0159769,10,5.84888e-05,-3.54085,-2.03905,-0.0289351,-0.326816,0.2031984,
2,1,0,1,0,58114.8,0.205051,0.204686,0.288443,30,0.0160669,10,5.90402e-05,-3.53994,2.31486,0.0254875,0.288642,0.204686,
2,1,0,0,0,58115.1,0.20655,0.20619,0.289062,30,0.016157,10,5.96017e-05,-3.53901,-6.31487,-0.00934303,-0.105297,0.2061899,
2,1,0,0,0,58115.4,0.208048,0.207716,0.287341,30,0.0162473,10,5.96853e-05,-3.5416,-1.39438,-0.0423127,-0.476034,0.207716,
2,1,0,1,0,58115.7,0.209547,0.209233,0.288141,30,0.0163371,10,6.02887e-05,-3.5404,-1.80949,-0.0326059,-0.366903,0.209233,
2,1,0,1,0,58116,0.211044,0.210734,0.287229,30,0.0164268,10,6.05287e-05,-3.54177,-2.0744,-0.028442,-0.317995,0.210734,
2,1,0,1,0,58116.3,0.212542,0.2122,0.286914,30,0.0165163,10,6.0883e-05,-3.54225,-6.36643,-0.00926736,-0.103464,0.2122,
2,1,0,1,0,58116.6,0.214041,0.213695,0.286087,30,0.0166058,10,6.11355e-05,-3.5435,-1.45568,-0.0405308,-0.452705,0.213695,
2,1,0,1,0,58116.9,0.215539,0.215192,0.28561,30,0.0166951,10,6.14609e-05,-3.54423,-1.26727,-0.0465566,-0.519471,0.215192,
2,1,0,1,0,58117.2,0.217038,0.216719,0.284335,30,0.0167842,10,6.16209e-05,-3.54617,-2.37446,-0.0248478,-0.27709,0.216719,
2,1,0,1,0,58117.5,0.218535,0.218187,0.28436,30,0.0168731,10,6.20438e-05,-3.54613,12.2897,0.00480076,0.0533075,0.2181873,
2,1,0,1,0,58117.8,0.220033,0.219711,0.284841,30,0.0169621,10,6.25827e-05,-3.5454,-4.87898,-0.0120927,-0.134269,0.2197108,
2,1,0,0,0,58118.1,0.221532,0.221196,0.284525,30,0.017051,10,6.29357e-05,-3.54588,-1.9228,-0.0306844,-0.340432,0.2211957,
2,1,0,0,0,58118.4,0.22303,0.222705,0.282492,30,0.0171396,10,6.29122e-05,-3.54899,4.53761,0.0130024,0.143883,0.222705,
2,1,0,1,0,58118.7,0.224529,0.224179,0.284186,30,0.0172281,10,6.37086e-05,-3.5464,-15.425,-0.00382495,-0.0422621,0.224179,
2,1,0,1,0,58119,0.226026,0.225704,0.2831,30,0.0173166,10,6.38967e-05,-3.54806,-4.65677,-0.0126697,-0.139871,0.225704,
2,1,0,1,0,58119.3,0.227524,0.227171,0.283301,30,0.017405,10,6.43578e-05,-3.54775,-1.69507,-0.0348068,-0.384031,0.227171,
2,1,0,1,0,58119.6,0.229023,0.228683,0.28216,30,0.0174933,10,6.45253e-05,-3.5495,-2.49252,-0.0236708,-0.261112,0.228683,
2,1,0,1,0,58119.9,0.230521,0.230167,0.282718,30,0.0175815,10,6.50723e-05,-3.54865,-13.6662,-0.00431721,-0.0477536,0.230167,
2,1,0,1,0,58120.2,0.232019,0.231635,0.2825,30,0.0176696,10,6.54369e-05,-3.54898,-2.17064,-0.0271809,-0.299787,0.231635,
2,1,0,1,0,58120.5,0.233518,0.233169,0.281653,30,0.0177578,10,6.56728e-05,-3.55028,-1.42941,-0.0412758,-0.453522,0.233169,
2,1,0,1,0,58120.8,0.235015,0.234689,0.282558,30,0.0178457,10,6.63133e-05,-3.54889,-1.80182,-0.0327447,-0.359697,0.2346893,
2,1,0,1,0,58121.1,0.236513,0.236199,0.281138,30,0.0179334,10,6.64046e-05,-3.55108,-4.12233,-0.0143123,-0.156898,0.236199,
2,1,0,0,0,58121.4,0.238012,0.237645,0.280189,30,0.0180212,10,6.65854e-05,-3.55255,11.0992,0.00531569,0.0581679,0.237645,
2,1,0,0,0,58121.7,0.23951,0.239164,0.279753,30,0.0181088,10,6.69069e-05,-3.55323,-3.35883,-0.0175657,-0.192548,0.239164,
2,1,0,1,0,58122,0.241009,0.240666,0.280036,30,0.0181964,10,6.73952e-05,-3.55279,-1.66296,-0.0354789,-0.388611,0.240666,
2,1,0,1,0,58122.3,0.242506,0.242146,0.279038,30,0.0182836,10,6.75679e-05,-3.55434,-2.55534,-0.0230889,-0.252605,0.242146,
2,1,0,1,0,58122.6,0.244004,0.243612,0.279389,30,0.0183709,10,6.80625e-05,-3.55379,1.95927,0.0301132,0.3283,0.243612,
2,1,0,1,0,58122.9,0.245503,0.245158,0.279986,30,0.0184582,10,6.86406e-05,-3.55286,-39.5311,-0.0014925,-0.0162593,0.245158,
2,1,0,1,0,58123.2,0.247001,0.246661,0.279523,30,0.0185454,10,6.89476e-05,-3.55358,-1.14112,-0.0517034,-0.562807,0.246661,
2,1,0,1,0,58123.5,0.2485,0.248147,0.27754,30,0.0186325,10,6.88706e-05,-3.55668,-1.62852,-0.0362293,-0.393674,0.2481471,
2,1,0,1,0,58123.8,0.249997,0.249594,0.278756,30,0.0187193,10,6.9576e-05,-3.55478,-2.74572,-0.021488,-0.233304,0.249594,
2,1,0,1,0,58124.1,0.251495,0.251132,0.278432,30,0.0188062,10,6.99231e-05,-3.55528,-2.51453,-0.0234637,-0.254719,0.251132,
2,1,0,0,0,58124.4,0.252994,0.252666,0.277667,30,0.018893,10,7.01571e-05,-3.55648,-1.2747,-0.0462853,-0.502011,0.252666,
2,1,0,0,0,58124.7,0.254492,0.254141,0.277019,30,0.0189797,10,7.0402e-05,-3.55749,-1.70448,-0.0346147,-0.37523,0.254141,
2,1,0,1,0,58125,0.255991,0.255637,0.276313,30,0.0190661,10,7.0636e-05,-3.5586,-79.6294,-0.000740932,-0.00802193,0.255637,
2,1,0,1,0,58125.3,0.257488,0.257138,0.276219,30,0.0191525,10,7.10263e-05,-3.55875,-8.99826,-0.00655682,-0.070734,0.257138,
2,1,0,1,0,58125.6,0.258986,0.258634,0.276587,30,0.019239,10,7.15349e-05,-3.55817,-1.43456,-0.0411277,-0.443284,0.2586343,
2,1,0,1,0,58125.9,0.260485,0.260152,0.276041,30,0.0193254,10,7.18127e-05,-3.55903,-1.53874,-0.0383431,-0.414143,0.260152,
2,1,0,1,0,58126.2,0.261983,0.261629,0.276666,30,0.0194114,10,7.23838e-05,-3.55804,-3.64546,-0.0161845,-0.17426,0.261629,
2,1,0,1,0,58126.5,0.263481,0.263146,0.274992,30,0.0194976,10,7.2363e-05,-3.56068,1.64875,0.0357846,0.383533,0.263146,
2,1,0,1,0,58126.8,0.26498,0.264659,0.275752,30,0.0195837,10,7.29802e-05,-3.55948,-7.25571,-0.00813153,-0.0875564,0.264659,
2,1,0,1,0,58127.1,0.266477,0.26614,0.274664,30,0.0196696,10,7.3099e-05,-3.5612,-1.39424,-0.0423169,-0.454412,0.26614,
2,1,0,0,0,58127.4,0.267976,0.267686,0.273709,30,0.0197554,10,7.32682e-05,-3.56271,49.3003,0.00119675,0.0128361,0.267686,
2,1,0,0,0,58127.7,0.269474,0.269155,0.275304,30,0.0198411,10,7.40993e-05,-3.56019,-23.7496,-0.00248426,-0.0265996,0.2691547,
2,1,0,0,0,58128,0.270972,0.270666,0.275882,30,0.0199269,10,7.46719e-05,-3.55928,-2.3945,-0.0246398,-0.263286,0.270666,
2,1,0,1,0,58128.3,0.27247,0.272119,0.274049,30,0.0200125,10,7.4574e-05,-3.56217,-5.02348,-0.0117449,-0.125346,0.272119,
2,1,0,1,0,58128.6,0.273968,0.273598,0.272992,30,0.0200978,10,7.46899e-05,-3.56385,-7.02475,-0.00839888,-0.0896554,0.273598,
2,1,0,1,0,58128.9,0.275466,0.275133,0.273258,30,0.0201829,10,7.51823e-05,-3.56343,-1.80878,-0.0326187,-0.347884,0.275133,
2,1,0,1,0,58129.2,0.276965,0.27663,0.273334,30,0.0202681,10,7.56122e-05,-3.56331,-2.00838,-0.0293769,-0.312721,0.27663,
2,1,0,1,0,58129.5,0.278463,0.278138,0.272262,30,0.0203532,10,7.57265e-05,-3.56501,-1.2225,-0.0482617,-0.51229,0.278138,
2,1,0,1,0,58129.8,0.279962,0.279583,0.272336,30,0.0204383,10,7.61406e-05,-3.5649,-2.03882,-0.0289382,-0.307654,0.279583,
2,1,0,1,0,58130.1,0.281459,0.281099,0.271953,30,0.0205229,10,7.64459e-05,-3.56551,-1.98208,-0.0297668,-0.316141,0.2810992,
2,1,0,1,0,58130.4,0.282957,0.28257,0.272125,30,0.0206077,10,7.68942e-05,-3.56523,-2.39899,-0.0245937,-0.259868,0.28257,
2,1,0,0,0,58130.7,0.284456,0.284118,0.271741,30,0.0206925,10,7.72065e-05,-3.56585,-1.51531,-0.0389359,-0.410608,0.284118,
2,1,0,0,0,58131,0.285954,0.285604,0.270021,30,0.020777,10,7.71191e-05,-3.5686,-1.32741,-0.0444476,-0.468536,0.285604,
2,1,0,0,0,58131.3,0.287452,0.28712,0.270053,30,0.0208612,10,7.75378e-05,-3.56855,-1.82199,-0.0323822,-0.340734,0.28712,
2,1,0,1,0,58131.6,0.28895,0.288631,0.268971,30,0.0209454,10,7.76335e-05,-3.57029,2.98635,0.0197566,0.207525,0.288631,
2,1,0,1,0,58131.9,0.290448,0.290058,0.269045,30,0.0210295,10,7.80387e-05,-3.57018,-3.91214,-0.0150813,-0.158716,0.290058,
2,1,0,1,0,58132.2,0.291947,0.29158,0.268942,30,0.0211137,10,7.84182e-05,-3.57034,-1.35096,-0.0436726,-0.459063,0.2915802,
2,1,0,1,0,58132.5,0.293445,0.293088,0.268132,30,0.0211975,10,7.85864e-05,-3.57165,-3.52108,-0.0167562,-0.175454,0.293088,
2,1,0,1,0,58132.8,0.294943,0.294593,0.268434,30,0.0212812,10,7.90788e-05,-3.57116,-9.43878,-0.00625081,-0.0653743,0.2945928,
2,1,0,1,0,58133.1,0.296442,0.296108,0.269633,30,0.021365,10,7.98405e-05,-3.56923,-4.55906,-0.0129413,-0.135125,0.296108,
2,1,0,1,0,58133.4,0.297939,0.29759,0.268019,30,0.0214487,10,7.976e-05,-3.57183,-2.07885,-0.0283811,-0.296365,0.29759,
2,1,0,1,0,58133.7,0.299437,0.29911,0.267267,30,0.0215323,10,7.9942e-05,-3.57306,-0.0028639,-20.6013,-114.158,0.29911,
2,1,0,1,0,58133.8,0.299737,0.299392,0.135466,30,0.021572,10,4.05575e-05,-3.86817,0.0010502,56.1796,206.723,0.299392,
2,1,0,1,0,58134.1,0.29824,0.297899,0.0271515,30,0.0215866,10,8.08839e-06,-4.56621,0.00116203,50.7732,69.3428,0.297899,
2,1,0,0,0,58134.4,0.296741,0.2964,0.00604002,30,0.0215879,10,1.79026e-06,-5.21896,0.00652853,9.03726,12.2674,0.2964,
2,0,0,0,0,58134.7,0.295243,0.294908,-0.00684404,30,0.0215843,10,-2.01836e-06,-5.16469,-0.0216695,-2.72272,7.67693,0.294908,
2,0,0,1,0,58135,0.293744,0.29336,-0.0168622,30,0.0215775,10,-4.9467e-06,-4.77309,-0.004113,-14.3448,5.80737,0.29336,
2,0,0,1,0,58135.3,0.292246,0.291874,-0.0238921,30,0.0215684,10,-6.9735e-06,-4.62174,-0.00984082,-5.99544,4.87306,0.291874,
2,0,0,1,0,58135.6,0.290749,0.290425,-0.0305966,30,0.0215569,10,-8.88602e-06,-4.51433,-0.0149545,-3.9453,4.39569,0.290425,
2,0,0,1,0,58135.9,0.28925,0.288884,-0.0369304,30,0.0215436,10,-1.06686e-05,-4.43262,-0.0213888,-2.75845,3.85,0.288884,
2,0,0,1,0,58136.2,0.287752,0.287421,-0.0418008,30,0.0215284,10,-1.20144e-05,-4.37882,-0.0287941,-2.04903,3.34014,0.287421,
2,0,0,1,0,58136.5,0.286253,0.285873,-0.0469108,30,0.0215119,10,-1.34105e-05,-4.32873,-0.0334316,-1.7648,3.15309,0.285873,
2,0,0,1,0,58136.8,0.284755,0.284438,-0.0514278,30,0.0214938,10,-1.4628e-05,-4.2888,-0.0354205,-1.6657,3.27808,0.284438,
2,0,0,1,0,58137.1,0.283257,0.282877,-0.0570467,30,0.0214742,10,-1.61372e-05,-4.24377,-0.0458058,-1.28805,2.78412,0.282877,
2,0,0,0,0,58137.4,0.281759,0.281429,-0.0602722,30,0.0214534,10,-1.69623e-05,-4.21988,-0.0477898,-1.23457,2.85335,0.2814289,
2,0,0,0,0,58137.7,0.280261,0.27992,-0.063258,30,0.0214314,10,-1.77072e-05,-4.19888,-0.0584168,-1.00998,2.48706,0.27992,
2,0,0,0,0,58138,0.278763,0.278396,-0.0681278,30,0.0214083,10,-1.89665e-05,-4.16668,-0.0749039,-0.787676,2.07633,0.278396,
2,0,0,1,0,58138.3,0.277264,0.276921,-0.0707931,30,0.0213841,10,-1.96041e-05,-4.15001,-0.0765185,-0.771055,2.12924,0.276921,
2,0,0,1,0,58138.6,0.275766,0.275414,-0.0741547,30,0.0213588,10,-2.04233e-05,-4.12986,-0.0967365,-0.609904,1.74944,0.275414,
2,0,0,1,0,58138.9,0.274269,0.273897,-0.0774888,30,0.0213325,10,-2.1224e-05,-4.11076,-0.0771844,-0.764404,2.31042,0.273897,
2,0,0,1,0,58139.2,0.27277,0.272429,-0.0799318,30,0.0213053,10,-2.17757e-05,-4.09728,-0.0927604,-0.636047,2.02133,0.272429,
2,0,0,1,0,58139.5,0.271272,0.27092,-0.0846402,30,0.0212771,10,-2.29307e-05,-4.07242,-0.102474,-0.575757,1.88779,0.27092,
2,0,0,1,0,58139.8,0.269773,0.269464,-0.0875307,30,0.0212478,10,-2.35864e-05,-4.05784,-0.100753,-0.585588,1.96779,0.269464,
2,0,0,1,0,58140.1,0.268275,0.267877,-0.0901129,30,0.0212177,10,-2.41392e-05,-4.04521,-0.114498,-0.515291,1.80556,0.267877,
2,0,0,1,0,58140.4,0.266778,0.266442,-0.0925437,30,0.021187,10,-2.46576e-05,-4.03365,-0.105624,-0.558583,2.01573,0.266442,
2,0,0,0,0,58140.7,0.265279,0.264949,-0.0946297,30,0.0211553,10,-2.50721e-05,-4.02397,-0.106417,-0.554423,2.0523,0.264949,
2,0,0,0,0,58141,0.263781,0.263421,-0.0984694,30,0.0211228,10,-2.59389e-05,-4.0067,-0.146035,-0.404013,1.54781,0.263421,
2,0,0,1,0,58141.3,0.262282,0.261945,-0.100512,30,0.0210895,10,-2.63285e-05,-3.99778,-0.127773,-0.461756,1.81751,0.261945,
2,0,0,1,0,58141.6,0.260784,0.260445,-0.102352,30,0.0210557,10,-2.66569e-05,-3.9899,-0.149321,-0.395121,1.59269,0.260445,
2,0,0,1,0,58141.9,0.259286,0.258952,-0.105348,30,0.0210209,10,-2.72799e-05,-3.97738,-0.128771,-0.458178,1.87109,0.2589519,
2,0,0,1,0,58142.2,0.257788,0.257457,-0.108621,30,0.0209854,10,-2.79653e-05,-3.96409,-0.165026,-0.357519,1.50461,0.257457,
2,0,0,1,0,58142.5,0.25629,0.255975,-0.109924,30,0.0209493,10,-2.81378e-05,-3.95891,-0.19202,-0.307259,1.31405,0.255975,
2,0,0,1,0,58142.8,0.254791,0.254456,-0.111358,30,0.0209125,10,-2.83356e-05,-3.95328,-0.188091,-0.313678,1.36902,0.2544558,
2,0,0,1,0,58143.1,0.253293,0.25297,-0.114064,30,0.0208751,10,-2.88546e-05,-3.94285,-0.217982,-0.270665,1.20393,0.25297,
2,0,0,1,0,58143.4,0.251795,0.251416,-0.116788,30,0.020837,10,-2.93625e-05,-3.9326,-0.19749,-0.29875,1.36075,0.2514165,
2,0,0,0,0,58143.7,0.250297,0.24996,-0.118415,30,0.0207981,10,-2.9599e-05,-3.92659,-0.25935,-0.227492,1.04981,0.2499603,
2,0,0,0,0,58144,0.248799,0.24849,-0.120271,30,0.0207588,10,-2.98861e-05,-3.91984,-0.242908,-0.24289,1.14649,0.24849,
2,0,0,0,0,58144.3,0.247301,0.24693,-0.12191,30,0.020719,10,-3.01033e-05,-3.91396,-0.172342,-0.342343,1.63839,0.24693,
2,0,0,1,0,58144.6,0.245802,0.245471,-0.125628,30,0.0206783,10,-3.0838e-05,-3.90092,-0.167606,-0.352017,1.71093,0.2454713,
2,0,0,1,0,58144.9,0.244304,0.243955,-0.127764,30,0.020637,10,-3.11687e-05,-3.89359,-0.229995,-0.256527,1.27222,0.243955,
2,0,0,1,0,58145.2,0.242806,0.242423,-0.128806,30,0.0205951,10,-3.12256e-05,-3.89006,-0.191235,-0.30852,1.55465,0.242423,
2,0,0,1,0,58145.5,0.241308,0.240957,-0.130153,30,0.0205528,10,-3.13614e-05,-3.88554,-0.236021,-0.249977,1.27719,0.240957,
2,0,0,1,0,58145.8,0.23981,0.239491,-0.132285,30,0.0205098,10,-3.16811e-05,-3.87849,-0.184498,-0.319787,1.64873,0.239491,
2,0,0,1,0,58146.1,0.238311,0.237978,-0.134245,30,0.0204663,10,-3.19474e-05,-3.8721,-0.261384,-0.225722,1.18514,0.237978,
2,0,0,1,0,58146.4,0.236813,0.236447,-0.136385,30,0.0204222,10,-3.22478e-05,-3.86523,-0.196402,-0.300404,1.60211,0.236447,
2,0,0,1,0,58146.7,0.235316,0.23499,-0.137445,30,0.0203777,10,-3.22982e-05,-3.86187,-0.245034,-0.240783,1.29787,0.23499,
2,0,0,0,0,58147,0.233817,0.233464,-0.140028,30,0.0203325,10,-3.26914e-05,-3.85379,-0.255603,-0.230827,1.25891,0.233464,
2,0,0,0,0,58147.3,0.232319,0.231958,-0.142319,30,0.0202868,10,-3.3012e-05,-3.84674,-0.23413,-0.251996,1.3964,0.231958,
2,0,0,1,0,58147.6,0.23082,0.230434,-0.143827,30,0.0202404,10,-3.31425e-05,-3.84216,-0.45982,-0.128311,0.715399,0.230434,
2,0,0,1,0,58147.9,0.229322,0.228982,-0.144596,30,0.0201937,10,-3.31099e-05,-3.83984,-0.325958,-0.181005,1.023,0.228982,
2,0,0,1,0,58148.2,0.227825,0.227514,-0.146423,30,0.0201466,10,-3.33132e-05,-3.83439,-0.278204,-0.212075,1.21572,0.227514,
2,0,0,1,0,58148.5,0.226326,0.226012,-0.148613,30,0.0200988,10,-3.35883e-05,-3.82794,-0.348249,-0.169419,0.979223,0.226012,
2,0,0,1,0,58148.8,0.224828,0.224472,-0.149702,30,0.0200504,10,-3.36041e-05,-3.82477,-0.37525,-0.157229,0.919254,0.224472,
2,0,0,1,0,58149.1,0.223329,0.222971,-0.151538,30,0.0200016,10,-3.37886e-05,-3.81948,-0.286871,-0.205667,1.21742,0.222971,
2,0,0,1,0,58149.4,0.221831,0.221492,-0.152839,30,0.0199525,10,-3.38526e-05,-3.81577,-0.286189,-0.206158,1.23288,0.221492,
2,0,0,1,0,58149.7,0.220333,0.219979,-0.155379,30,0.0199027,10,-3.41802e-05,-3.80861,-0.253815,-0.232452,1.40396,0.2199786,
2,0,0,0,0,58150,0.218835,0.218479,-0.157411,30,0.0198523,10,-3.43911e-05,-3.80296,-0.261841,-0.225328,1.37964,0.218479,
2,0,0,0,0,58150.3,0.217337,0.217,-0.159075,30,0.0198014,10,-3.45192e-05,-3.7984,-0.416405,-0.141689,0.87971,0.217,
2,0,0,0,0,58150.6,0.215839,0.215513,-0.159732,30,0.0197501,10,-3.44244e-05,-3.79661,-0.367054,-0.160739,1.00549,0.215513,
2,0,0,1,0,58150.9,0.21434,0.213989,-0.162108,30,0.0196982,10,-3.46894e-05,-3.7902,-0.256787,-0.229763,1.45121,0.213989,
2,0,0,1,0,58151.2,0.212842,0.212475,-0.163996,30,0.0196458,10,-3.4845e-05,-3.78517,-0.310561,-0.189979,1.21798,0.212475,
2,0,0,1,0,58151.5,0.211344,0.211014,-0.165085,30,0.0195928,10,-3.48352e-05,-3.78229,-0.395401,-0.149215,0.963595,0.211014,
2,0,0,1,0,58151.8,0.209846,0.209476,-0.16641,30,0.0195394,10,-3.48589e-05,-3.77882,-0.376073,-0.156884,1.02268,0.209476,
2,0,0,1,0,58152.1,0.208348,0.207996,-0.169148,30,0.0194855,10,-3.51822e-05,-3.77173,-0.351534,-0.167836,1.10953,0.207996,
2,0,0,1,0,58152.4,0.206849,0.206519,-0.172797,30,0.019431,10,-3.56859e-05,-3.76246,-0.386541,-0.152636,1.0152,0.206519,
2,0,0,1,0,58152.7,0.205351,0.205016,-0.172122,30,0.0193757,10,-3.52877e-05,-3.76416,-0.432626,-0.136376,0.915609,0.205016,
2,0,0,1,0,58153,0.203854,0.203475,-0.173497,30,0.0193202,10,-3.53021e-05,-3.76071,-0.388717,-0.151781,1.02946,0.203475,
2,0,0,0,0,58153.3,0.202355,0.202027,-0.175069,30,0.0192642,10,-3.53685e-05,-3.75679,-0.299058,-0.197286,1.35088,0.202027,
2,0,0,0,0,58153.6,0.200857,0.200476,-0.177195,30,0.0192076,10,-3.55233e-05,-3.75155,-0.261836,-0.225332,1.5631,0.200476,
2,0,0,1,0,58153.9,0.199358,0.199041,-0.178918,30,0.0191504,10,-3.56122e-05,-3.74734,-0.391595,-0.150666,1.04994,0.199041,
2,0,0,1,0,58154.2,0.19786,0.197525,-0.181126,30,0.0190926,10,-3.5777e-05,-3.74202,-0.314,-0.187898,1.32964,0.1975254,
2,0,0,1,0,58154.5,0.196363,0.195988,-0.182895,30,0.0190345,10,-3.58452e-05,-3.7378,-0.288611,-0.204428,1.45828,0.195988,
2,0,0,1,0,58154.8,0.194864,0.194538,-0.185185,30,0.0189755,10,-3.60255e-05,-3.73239,-0.315641,-0.186921,1.34324,0.194538,
2,0,0,1,0,58155.1,0.193366,0.193022,-0.187751,30,0.0189158,10,-3.624e-05,-3.72642,-0.312625,-0.188724,1.37554,0.193022,
2,0,0,1,0,58155.4,0.191867,0.191498,-0.189199,30,0.0188558,10,-3.62314e-05,-3.72308,-0.451382,-0.13071,0.968029,0.191498,
2,0,0,1,0,58155.7,0.190369,0.189976,-0.18944,30,0.0187952,10,-3.59891e-05,-3.72253,-0.283486,-0.208124,1.54939,0.189976,
2,0,0,1,0,58156,0.188871,0.188503,-0.192673,30,0.0187341,10,-3.63193e-05,-3.71518,-0.277265,-0.212793,1.60231,0.188503,
2,0,0,0,0,58156.3,0.187373,0.187044,-0.194765,30,0.0186721,10,-3.64297e-05,-3.71049,-0.294733,-0.200181,1.52442,0.187044,
2,0,0,0,0,58156.6,0.185875,0.18553,-0.197555,30,0.0186096,10,-3.66524e-05,-3.70431,-0.305871,-0.192892,1.48227,0.18553,
2,0,0,0,0,58156.9,0.184377,0.18401,-0.197527,30,0.0185464,10,-3.6347e-05,-3.70437,-0.33736,-0.174887,1.36067,0.18401,
2,0,0,1,0,58157.2,0.182878,0.182508,-0.201687,30,0.0184827,10,-3.68094e-05,-3.69532,-0.336502,-0.175334,1.37701,0.182508,
2,0,0,1,0,58157.5,0.181381,0.181011,-0.203964,30,0.0184182,10,-3.69196e-05,-3.69045,-0.332238,-0.177583,1.4137,0.181011,
2,0,0,1,0,58157.8,0.179882,0.179536,-0.205868,30,0.018353,10,-3.69605e-05,-3.68641,-0.400753,-0.147223,1.18149,0.179536,
2,0,0,1,0,58158.1,0.178384,0.178027,-0.207056,30,0.0182872,10,-3.68614e-05,-3.68391,-0.35261,-0.167324,1.36181,0.178027,
2,0,0,1,0,58158.4,0.176886,0.176556,-0.211041,30,0.0182208,10,-3.72605e-05,-3.67563,-0.304357,-0.193851,1.59237,0.176556,
2,0,0,1,0,58158.7,0.175387,0.175037,-0.213539,30,0.0181534,10,-3.73773e-05,-3.67052,-0.297381,-0.198399,1.64734,0.175037,
2,0,0,1,0,58159,0.173889,0.173528,-0.215938,30,0.0180852,10,-3.74714e-05,-3.66567,-0.239985,-0.245849,2.0718,0.173528,
2,0,0,1,0,58159.3,0.172392,0.172069,-0.218757,30,0.0180162,10,-3.76413e-05,-3.66004,-0.259029,-0.227774,1.94549,0.1720687,
2,0,0,0,0,58159.6,0.170893,0.170569,-0.2212,30,0.0179464,10,-3.77298e-05,-3.65521,-0.248049,-0.237856,2.06001,0.170569,
2,0,0,0,0,58159.9,0.169395,0.169044,-0.224522,30,0.0178756,10,-3.7954e-05,-3.64874,-0.228326,-0.258403,2.25578,0.169044,
2,0,0,1,0,58160.2,0.167896,0.167557,-0.227468,30,0.0178037,10,-3.81139e-05,-3.64308,-0.26083,-0.226201,2.01666,0.167557,
2,0,0,1,0,58160.5,0.166398,0.166058,-0.231402,30,0.017731,10,-3.84262e-05,-3.63563,-0.267603,-0.220476,1.9977,0.166058,
2,0,0,1,0,58160.8,0.164901,0.164547,-0.234211,30,0.0176573,10,-3.85387e-05,-3.63039,-0.227418,-0.259434,2.38518,0.164547,
2,0,0,1,0,58161.1,0.163402,0.163091,-0.238405,30,0.0175825,10,-3.88817e-05,-3.62268,-0.201634,-0.292609,2.72465,0.163091,
2,0,0,1,0,58161.4,0.161904,0.16154,-0.243636,30,0.0175065,10,-3.93571e-05,-3.61326,-0.205068,-0.287709,2.72866,0.16154,
2,0,0,1,0,58161.7,0.160405,0.160089,-0.247447,30,0.0174292,10,-3.96137e-05,-3.60652,-0.223841,-0.26358,2.54001,0.160089,
2,0,0,1,0,58162,0.158907,0.158546,-0.250449,30,0.0173506,10,-3.97075e-05,-3.60128,-0.192677,-0.306212,3.00425,0.158546,
2,0,0,1,0,58162.3,0.157409,0.157062,-0.255948,30,0.0172708,10,-4.01999e-05,-3.59185,-0.17194,-0.343144,3.45158,0.157062,
2,0,0,0,0,58162.6,0.155911,0.155548,-0.262564,30,0.0171893,10,-4.08414e-05,-3.58076,-0.16348,-0.360901,3.70414,0.155548,
2,0,0,0,0,58162.9,0.154413,0.154023,-0.267807,30,0.017106,10,-4.12485e-05,-3.57218,-0.171222,-0.344582,3.5987,0.1540232,
2,0,0,0,0,58163.2,0.152915,0.152534,-0.274872,30,0.017021,10,-4.19274e-05,-3.56087,-0.152917,-0.385831,4.12885,0.152534,
2,0,0,1,0,58163.5,0.151416,0.151008,-0.280113,30,0.0169342,10,-4.22994e-05,-3.55267,-0.142648,-0.413605,4.54815,0.151008,
2,0,0,1,0,58163.8,0.149919,0.149572,-0.289423,30,0.0168452,10,-4.32896e-05,-3.53847,-0.122188,-0.482862,5.43299,0.149572,
2,0,0,1,0,58164.1,0.14842,0.148076,-0.295741,30,0.0167536,10,-4.37923e-05,-3.52909,-0.114401,-0.515728,5.96746,0.148076,
2,0,0,1,0,58164.4,0.146922,0.146566,-0.306358,30,0.0166595,10,-4.49017e-05,-3.51377,-0.107217,-0.550285,6.58609,0.146566,
2,0,0,1,0,58164.7,0.145424,0.145092,-0.315137,30,0.0165625,10,-4.5724e-05,-3.5015,-0.104478,-0.56471,6.99432,0.145092,
2,0,0,1,0,58165,0.143925,0.143578,-0.32778,30,0.0164619,10,-4.70618e-05,-3.48442,-0.0876659,-0.673009,8.60926,0.143578,
2,0,0,1,0,58165.3,0.142427,0.14211,-0.340447,30,0.0163575,10,-4.83808e-05,-3.46795,-0.0860932,-0.685304,9.14313,0.14211,
2,0,0,1,0,58165.6,0.14093,0.140586,-0.354536,30,0.0162492,10,-4.98428e-05,-3.45034,-0.0916228,-0.643945,8.95105,0.140586,
2,0,0,0,0,58165.9,0.139431,0.13908,-0.367599,30,0.0161366,10,-5.11257e-05,-3.43463,-0.0847897,-0.695839,10.0376,0.13908,
2,0,0,0,0,58166.2,0.137933,0.137604,-0.385155,30,0.0160198,10,-5.29988e-05,-3.41436,-0.0837749,-0.704268,10.5793,0.137604,
2,0,0,1,0,58166.5,0.136434,0.13609,-0.401943,30,0.015898,10,-5.47006e-05,-3.39584,-0.0835099,-0.706503,11.0528,0.13609,
2,0,0,1,0,58166.8,0.134936,0.134599,-0.417872,30,0.0157711,10,-5.6245e-05,-3.37896,-0.0898542,-0.656619,10.678,0.134599,
2,0,0,1,0,58167.1,0.133439,0.133071,-0.434151,30,0.0156393,10,-5.77728e-05,-3.36236,-0.0903093,-0.65331,11.0949,0.133071,
2,0,0,1,0,58167.4,0.13194,0.131583,-0.452533,30,0.0155024,10,-5.95456e-05,-3.34435,-0.0877126,-0.672651,11.885,0.131583,
2,0,0,1,0,58167.7,0.130442,0.130116,-0.469582,30,0.0153601,10,-6.11003e-05,-3.32829,-0.0930042,-0.63438,11.6215,0.130116,
2,0,0,1,0,58168,0.128943,0.128627,-0.487924,30,0.0152124,10,-6.27604e-05,-3.31165,-0.104728,-0.563363,10.6526,0.128627,
2,0,0,1,0,58168.3,0.127445,0.127098,-0.502226,30,0.0150601,10,-6.3832e-05,-3.2991,-0.112577,-0.524087,10.2583,0.127098,
2,0,0,1,0,58168.6,0.125947,0.125628,-0.518804,30,0.0149035,10,-6.51763e-05,-3.285,-0.126556,-0.466198,9.38705,0.125628,
2,0,0,0,0,58168.9,0.124449,0.124085,-0.531604,30,0.0147421,10,-6.5964e-05,-3.27441,-0.130522,-0.452033,9.32699,0.124085,
2,0,0,0,0,58169.2,0.122951,0.122598,-0.544135,30,0.0145769,10,-6.67099e-05,-3.26429,-0.163719,-0.360373,7.62999,0.122598,
2,0,0,0,0,58169.5,0.121453,0.121105,-0.55522,30,0.0144081,10,-6.72399e-05,-3.25554,-0.192816,-0.305991,6.61049,0.121105,
2,0,0,1,0,58169.8,0.119954,0.119558,-0.562667,30,0.0142365,10,-6.72712e-05,-3.24975,-0.232246,-0.254041,5.57745,0.119558,
2,0,0,1,0,58170.1,0.118456,0.118116,-0.570539,30,0.0140623,10,-6.73898e-05,-3.24371,-0.261,-0.226053,5.02205,0.118116,
2,0,0,1,0,58170.4,0.116958,0.116579,-0.578286,30,0.0138858,10,-6.74161e-05,-3.23786,-0.397119,-0.14857,3.33906,0.116579,
2,0,0,1,0,58170.7,0.11546,0.115082,-0.582175,30,0.0137078,10,-6.69978e-05,-3.23495,-0.690539,-0.0854405,1.93386,0.1150819,
2,0,0,1,0,58171,0.113962,0.113595,-0.582965,30,0.0135288,10,-6.62221e-05,-3.23436,-0.940179,-0.062754,1.42967,0.1135952,
2,0,0,1,0,58171.3,0.112463,0.112123,-0.585743,30,0.0133493,10,-6.56754e-05,-3.23229,-2.69178,-0.0219186,0.50093,0.112123,
2,0,0,1,0,58171.6,0.110965,0.11061,-0.588842,30,0.0131691,10,-6.51319e-05,-3.23,-5.73139,-0.0102942,0.23552,0.11061,
2,0,0,1,0,58171.9,0.109468,0.109101,-0.587364,30,0.0129887,10,-6.40817e-05,-3.23109,1.77186,0.0332984,-0.761423,0.109101,
2,0,0,0,0,58172.2,0.107969,0.107653,-0.586827,30,0.0128084,10,-6.31735e-05,-3.23149,1.90171,0.0310247,-0.71138,0.107653,
2,0,0,0,0,58172.5,0.106471,0.106094,-0.585143,30,0.0126288,10,-6.20801e-05,-3.23274,5.18625,0.0113762,-0.260559,0.106094,
2,0,0,1,0,58172.8,0.104972,0.10462,-0.58493,30,0.012449,10,-6.11952e-05,-3.2329,2.1833,0.0270233,-0.616386,0.10462,
2,0,0,1,0,58173.1,0.103474,0.103118,-0.584469,30,0.0122694,10,-6.02695e-05,-3.23324,1.56548,0.037688,-0.856535,0.103118,
2,0,0,1,0,58173.4,0.101977,0.101606,-0.582079,30,0.0120905,10,-5.91424e-05,-3.23502,0.896863,0.0657848,-1.49395,0.101606,
2,0,0,1,0,58173.7,0.100478,0.100069,-0.580766,30,0.0119124,10,-5.81164e-05,-3.236,0.924789,0.0637983,-1.4425,0.100069,
2,0,0,1,0,58174,0.0989798,0.0986339,-0.578145,30,0.0117347,10,-5.70247e-05,-3.23796,1.28575,0.0458878,-1.03388,0.0986339,
2,0,0,1,0,58174.3,0.0974812,0.0971352,-0.576378,30,0.0115575,10,-5.59866e-05,-3.23929,1.17292,0.0503019,-1.13109,0.0971352,
2,0,0,1,0,58174.6,0.0959834,0.0956423,-0.573138,30,0.0113809,10,-5.48163e-05,-3.24174,0.872237,0.0676422,-1.51695,0.0956423,
2,0,0,1,0,58174.9,0.0944855,0.0941368,-0.569942,30,0.0112053,10,-5.36525e-05,-3.24417,0.780478,0.0755947,-1.68775,0.0941368,
2,0,0,0,0,58175.2,0.0929871,0.0926416,-0.568306,30,0.0110303,10,-5.26487e-05,-3.24542,1.09844,0.0537125,-1.19272,0.09264157,
2,0,0,0,0,58175.5,0.0914889,0.0910944,-0.567597,30,0.0108558,10,-5.1705e-05,-3.24596,0.722207,0.0816941,-1.80777,0.0910944,
2,0,0,0,0,58175.8,0.0899907,0.0895982,-0.563896,30,0.0106821,10,-5.0524e-05,-3.2488,0.546546,0.107951,-2.37212,0.0895982,
2,0,0,1,0,58176.1,0.0884923,0.0881442,-0.559975,30,0.0105095,10,-4.93585e-05,-3.25183,0.599883,0.0983526,-2.15182,0.0881442,
2,0,0,1,0,58176.4,0.0869946,0.086641,-0.558441,30,0.010338,10,-4.83839e-05,-3.25302,0.604774,0.0975571,-2.12249,0.086641,
2,0,0,1,0,58176.7,0.0854961,0.0851318,-0.554811,30,0.0101672,10,-4.7232e-05,-3.25586,0.651492,0.0905614,-1.96074,0.0851318,
2,0,0,1,0,58177,0.083998,0.0836133,-0.551399,30,0.00999726,10,-4.61043e-05,-3.25853,0.467159,0.126295,-2.7108,0.0836133,
2,0,0,1,0,58177.3,0.0824998,0.0821478,-0.548128,30,0.00982839,10,-4.50275e-05,-3.26112,0.539049,0.109452,-2.34197,0.0821478,
2,0,0,1,0,58177.6,0.0810014,0.0806788,-0.544397,30,0.00966089,10,-4.39213e-05,-3.26408,0.622064,0.0948455,-2.01786,0.08067885,
2,0,0,1,0,58177.9,0.0795035,0.0791449,-0.541873,30,0.00949415,10,-4.28865e-05,-3.2661,0.704518,0.0837452,-1.76852,0.0791449,
2,0,0,1,0,58178.2,0.0780056,0.0776277,-0.538942,30,0.00932818,10,-4.18368e-05,-3.26846,0.576896,0.102271,-2.14566,0.0776277,
2,0,0,0,0,58178.5,0.076507,0.0761533,-0.53544,30,0.00916322,10,-4.07755e-05,-3.27129,0.502696,0.117367,-2.44711,0.0761533,
2,0,0,0,0,58178.8,0.0750088,0.0747175,-0.53102,30,0.00899976,10,-3.96765e-05,-3.27489,0.500363,0.117914,-2.44482,0.0747175,
2,0,0,1,0,58179.1,0.0735103,0.0731901,-0.528271,30,0.00883699,10,-3.86642e-05,-3.27714,0.795644,0.0741538,-1.52477,0.0731901,
2,0,0,1,0,58179.4,0.0720124,0.0716657,-0.525985,30,0.00867517,10,-3.76951e-05,-3.27903,0.712859,0.0827654,-1.69781,0.0716657,
2,0,0,1,0,58179.7,0.0705146,0.070138,-0.521731,30,0.0085143,10,-3.65931e-05,-3.28255,0.568518,0.103779,-2.11504,0.070138,
2,0,0,1,0,58180,0.069016,0.0686467,-0.517757,30,0.00835455,10,-3.55423e-05,-3.28587,0.576335,0.102371,-2.07317,0.0686467,
2,0,0,1,0,58180.3,0.0675179,0.0671547,-0.515893,30,0.00819579,10,-3.46447e-05,-3.28744,0.806434,0.0731616,-1.47182,0.0671547,
2,0,0,1,0,58180.6,0.0660192,0.0656729,-0.515031,30,0.00803771,10,-3.38236e-05,-3.28817,0.611685,0.0964549,-1.9265,0.06567286,
2,0,0,1,0,58180.9,0.0645214,0.0641462,-0.508968,30,0.00788055,10,-3.26484e-05,-3.29331,0.465314,0.126796,-2.51677,0.0641462,
2,0,0,1,0,58181.2,0.0630235,0.0626748,-0.505149,30,0.00772454,10,-3.16601e-05,-3.29658,0.565425,0.104346,-2.06154,0.0626748,
2,0,0,0,0,58181.5,0.0615251,0.0611316,-0.502557,30,0.0075696,10,-3.07221e-05,-3.29881,0.626961,0.0941047,-1.84958,0.0611316,
2,0,0,0,0,58181.8,0.0600269,0.0596778,-0.499571,30,0.00741543,10,-2.98133e-05,-3.3014,0.557975,0.10574,-2.06234,0.0596778,
2,0,0,0,0,58182.1,0.0585287,0.0581296,-0.496728,30,0.00726212,10,-2.88746e-05,-3.30388,0.440698,0.133879,-2.59313,0.0581296,
2,0,0,1,0,58182.4,0.0570303,0.0566852,-0.493856,30,0.00710975,10,-2.79943e-05,-3.3064,0.525333,0.11231,-2.16431,0.0566852,
2,0,0,1,0,58182.7,0.0555325,0.055168,-0.490691,30,0.00695868,10,-2.70705e-05,-3.30919,0.670792,0.0879557,-1.68245,0.05516801,
2,0,0,1,0,58183,0.0540342,0.0536844,-0.48768,30,0.00680821,10,-2.61808e-05,-3.31187,0.55703,0.105919,-2.0104,0.0536844,
2,0,0,1,0,58183.3,0.052536,0.0521807,-0.484087,30,0.00665863,10,-2.526e-05,-3.31508,0.477314,0.123608,-2.32966,0.0521807,
2,0,0,1,0,58183.6,0.0510378,0.0506919,-0.480682,30,0.00651015,10,-2.43667e-05,-3.31814,0.447035,0.131981,-2.47529,0.0506919,
2,0,0,1,0,58183.9,0.0495394,0.0491628,-0.47578,30,0.00636306,10,-2.33907e-05,-3.32259,0.47464,0.124305,-2.31175,0.0491628,
2,0,0,1,0,58184.2,0.0480415,0.0477099,-0.473345,30,0.00621668,10,-2.25833e-05,-3.32482,0.683936,0.0862654,-1.59062,0.0477099,
2,0,0,1,0,58184.5,0.0465436,0.0461654,-0.469532,30,0.00607136,10,-2.16762e-05,-3.32833,0.462987,0.127433,-2.34043,0.0461654,
2,0,0,0,0,58184.8,0.045045,0.0446857,-0.466535,30,0.00592699,10,-2.08474e-05,-3.33112,0.422545,0.13963,-2.54512,0.0446857,
2,0,0,0,0,58185.1,0.0435468,0.0431991,-0.461438,30,0.00578381,10,-1.99337e-05,-3.33589,0.515076,0.114546,-2.07186,0.0431991,
2,0,0,1,0,58185.4,0.0420483,0.0417248,-0.460309,30,0.00564158,10,-1.92063e-05,-3.33695,0.554559,0.106391,-1.90611,0.0417248,
2,0,0,1,0,58185.7,0.0405504,0.0401886,-0.457363,30,0.00550016,10,-1.83808e-05,-3.33974,0.49212,0.11989,-2.13587,0.0401886,
2,0,0,1,0,58186,0.0390526,0.0386609,-0.453389,30,0.00535974,10,-1.75284e-05,-3.34353,0.402724,0.146502,-2.58847,0.0386609,
2,0,0,1,0,58186.3,0.0375541,0.0371929,-0.448673,30,0.00522051,10,-1.66874e-05,-3.34807,0.461268,0.127908,-2.24736,0.0371929,
2,0,0,1,0,58186.6,0.0360559,0.035719,-0.446548,30,0.0050825,10,-1.59502e-05,-3.35013,0.479759,0.122978,-2.14661,0.035719,
2,0,0,1,0,58186.9,0.0345572,0.0341829,-0.442345,30,0.00494525,10,-1.51207e-05,-3.35424,0.508768,0.115966,-2.00761,0.03418291,
2,0,0,1,0,58187.2,0.0330594,0.0326606,-0.441084,30,0.00480891,10,-1.44061e-05,-3.35548,0.404285,0.145937,-2.50576,0.0326606,
2,0,0,1,0,58187.5,0.0315615,0.0311996,-0.438227,30,0.00467343,10,-1.36725e-05,-3.3583,0.509108,0.115889,-1.97706,0.0311996,
2,0,0,0,0,58187.8,0.0300631,0.0297107,-0.434723,30,0.00453924,10,-1.29159e-05,-3.36179,0.635307,0.0928685,-1.57259,0.0297107,
2,0,0,0,0,58188.1,0.0285649,0.0281922,-0.431744,30,0.00440578,10,-1.21718e-05,-3.36477,0.665262,0.0886868,-1.48843,0.0281922,
2,0,0,0,0,58188.4,0.0270667,0.0267119,-0.429427,30,0.00427299,10,-1.14708e-05,-3.36711,0.612446,0.096335,-1.60919,0.0267119,
2,0,0,1,0,58188.7,0.0255683,0.0251857,-0.426165,30,0.004141,10,-1.07333e-05,-3.37042,0.587384,0.100445,-1.67204,0.0251857,
2,0,0,1,0,58189,0.0240706,0.023672,-0.422299,30,0.00401013,10,-9.99665e-06,-3.37438,0.53732,0.109804,-1.81659,0.023672,
2,0,0,1,0,58189.3,0.0225722,0.0222348,-0.420375,30,0.00387979,10,-9.34697e-06,-3.37636,0.853554,0.0691228,-1.13507,0.0222348,
2,0,0,1,0,58189.6,0.021074,0.0207227,-0.419346,30,0.00375009,10,-8.68998e-06,-3.37743,0.643359,0.0917061,-1.50054,0.0207227,
2,0,0,1,0,58189.9,0.0195758,0.0192286,-0.417428,30,0.00362104,10,-8.02654e-06,-3.37942,0.567526,0.10396,-1.69232,0.01922857,
2,0,0,1,0,58190.2,0.0180774,0.0177174,-0.414002,30,0.00349271,10,-7.33503e-06,-3.383,0.8081,0.0730108,-1.18146,0.0177174,
2,0,0,1,0,58190.5,0.0165795,0.0162446,-0.413267,30,0.00336492,10,-6.71337e-06,-3.38377,1.21413,0.0485945,-0.785523,0.0162446,
2,0,0,1,0,58190.8,0.0150817,0.014751,-0.412864,30,0.00323743,10,-6.09016e-06,-3.38419,1.10053,0.0536107,-0.863255,0.01475102,
2,0,0,0,0,58191.1,0.013583,0.0131885,-0.410193,30,0.00311011,10,-5.40983e-06,-3.38701,0.755241,0.0781208,-1.25031,0.0131885,
2,0,0,0,0,58191.4,0.0120848,0.0117283,-0.408882,30,0.00298333,10,-4.7955e-06,-3.3884,1.05282,0.0560399,-0.897596,0.0117283,
2,0,0,1,0,58191.7,0.0105863,0.0102317,-0.409082,30,0.00285701,10,-4.18562e-06,-3.38819,2.35887,0.025012,-0.399867,0.0102317,
2,0,0,1,0,58192,0.00908846,0.00871684,-0.408155,30,0.00273074,10,-3.55782e-06,-3.38917,20.6146,0.00286205,-0.0456779,0.00871684,
2,0,0,1,0,58192.3,0.0075906,0.00722605,-0.408032,30,0.00260451,10,-2.94846e-06,-3.38931,4.91677,0.0119998,-0.19104,0.007226048,
2,0,0,1,0,58192.6,0.00609207,0.00577095,-0.407992,30,0.00247835,10,-2.3545e-06,-3.38935,8.84467,0.00667068,-0.106294,0.00577095,
2,0,0,1,0,58192.9,0.00459389,0.00424185,-0.408775,30,0.0023524,10,-1.73396e-06,-3.38852,-13.3964,-0.00440417,0.070192,0.00424185,
2,0,0,1,0,58193.2,0.00309525,0.00274735,-0.409549,30,0.00222606,10,-1.12518e-06,-3.38769,-0.936066,-0.0630297,1.00769,0.002747352,
2,0,0,1,0,58193.5,0.00159739,0.0012142,-0.413863,30,0.00209801,10,-5.02513e-07,-3.38314, , , ,0.0012142,
2,0,0,0,0,58193.8,0.000199195,-0.000218435,-0.410968,30,0.00197913,10,8.97695e-08,-3.38619, , , ,-0.000218435,