File: Figure_codes/Fig_3-5/rawdata_trumpetplot_data/after 10th/20221101_1-115_003_TrumpetPlot_ParaChange_from10_every3_02_CV_C01_5.csv
mode,ox/red,error,control changes,counter inc.,time/s,control/V,Ewe/V,<I>/mA,cycle number,(Q-Qo)/C,I Range,P/W,log(|I|),Tafel slope mV/dec,alpha_eff,dI/d(E-IR),E-IR/V,
2,0,0,1,0,10190.7,2.44065e-05,-0.000439847,-0.354443,6,0.0000000E+000,10,1.55901e-07,-3.45045, , , ,-0.000439847,
2,0,0,1,0,10192,0.00129791,0.000980123,-0.170862,6,-0.00024328,10,-1.67465e-07,-3.76736, , , ,0.0009801233,
2,0,0,1,0,10193.5,0.00279612,0.002506,-0.137896,6,-0.000448244,10,-3.45569e-07,-3.86045,-0.0176628,-3.34035,19.3212,0.002506,
2,0,0,1,0,10195,0.00429431,0.00398314,-0.11816,6,-0.000617297,10,-4.70648e-07,-3.92753,-0.0258001,-2.28681,10.7496,0.00398314,
2,0,0,1,0,10196.5,0.00579242,0.00548993,-0.104566,6,-0.000761631,10,-5.7406e-07,-3.98061,-0.0286547,-2.059,8.5078,0.005489931,
2,0,0,1,0,10197.9,0.00729061,0.00702006,-0.0928898,6,-0.000887213,10,-6.52092e-07,-4.03203,-0.0307841,-1.91657,7.04073,0.00702006,
2,0,0,1,0,10199.4,0.00878882,0.00847714,-0.0837438,6,-0.000998043,10,-7.09907e-07,-4.07705,-0.0335642,-1.75782,5.78918,0.00847714,
2,0,0,1,0,10200.9,0.010287,0.01002,-0.0754963,6,-0.00109619,10,-7.56475e-07,-4.12207,-0.0369686,-1.59595,4.7944,0.01002,
2,0,0,1,0,10202.4,0.0117852,0.0115099,-0.06981,6,-0.00118358,10,-8.03505e-07,-4.15608,-0.0392046,-1.50493,4.09948,0.0115099,
2,0,0,1,0,10203.9,0.0132834,0.0129266,-0.0637031,6,-0.00126216,10,-8.23465e-07,-4.19584,-0.0389657,-1.51415,3.74468,0.0129266,
2,0,0,1,0,10205.4,0.0147815,0.0144673,-0.057668,6,-0.00133216,10,-8.34299e-07,-4.23907,-0.0426,-1.38498,3.15372,0.0144673,
2,0,0,1,0,10206.9,0.0162797,0.0159646,-0.053679,6,-0.00139435,10,-8.56965e-07,-4.2702,-0.0433342,-1.36151,2.86631,0.0159646,
2,0,0,1,0,10208.4,0.0177779,0.017429,-0.0493487,6,-0.00145037,10,-8.60099e-07,-4.30672,-0.0429393,-1.37403,2.64819,0.017429,
2,0,0,1,0,10209.9,0.0192761,0.0189942,-0.0458562,6,-0.0015009,10,-8.71001e-07,-4.3386,-0.0405021,-1.45672,2.58256,0.0189942,
2,0,0,1,0,10211.4,0.0207743,0.0204819,-0.0417648,6,-0.00154542,10,-8.55424e-07,-4.37919,-0.0387852,-1.5212,2.49373,0.0204819,
2,0,0,1,0,10212.9,0.0222725,0.0219538,-0.0377058,6,-0.0015841,10,-8.27785e-07,-4.42359,-0.0339154,-1.73962,2.59066,0.02195378,
2,0,0,1,0,10214.4,0.0237707,0.0234691,-0.0353497,6,-0.00161762,10,-8.29628e-07,-4.45161,-0.0361571,-1.63177,2.19933,0.0234691,
2,0,0,1,0,10215.9,0.0252689,0.0249665,-0.0312368,6,-0.00164642,10,-7.79873e-07,-4.50533,-0.0326078,-1.80939,2.20455,0.0249665,
2,0,0,1,0,10217.4,0.0267671,0.0264266,-0.0280674,6,-0.00166978,10,-7.41726e-07,-4.5518,-0.0302753,-1.94879,2.20164,0.0264266,
2,0,0,1,0,10218.9,0.0282653,0.0279494,-0.0256298,6,-0.00168856,10,-7.16338e-07,-4.59125,-0.0320693,-1.83977,1.82947,0.0279494,
2,0,0,1,0,10220.4,0.0297635,0.0294488,-0.0227381,6,-0.00170325,10,-6.69608e-07,-4.64325,-0.0289742,-2.03629,1.7838,0.0294488,
2,0,0,1,0,10221.9,0.0312617,0.0309493,-0.020596,6,-0.00171407,10,-6.37431e-07,-4.68622,-0.0247535,-2.38351,1.82629,0.0309493,
2,0,0,1,0,10223.4,0.0327599,0.0324423,-0.0174467,6,-0.0017208,10,-5.66011e-07,-4.75829,-0.0224588,-2.62703,1.75677,0.0324423,
2,0,0,1,0,10224.9,0.0342581,0.033927,-0.0145251,6,-0.00172306,10,-4.92792e-07,-4.83788,-0.0205736,-2.86775,1.66364,0.033927,
2,0,0,1,0,10226.4,0.0357563,0.0354476,-0.0122977,6,-0.00172164,10,-4.35926e-07,-4.91017,-0.0170782,-3.45469,1.6402,0.0354476,
2,0,0,1,0,10227.9,0.0372544,0.0369331,-0.0100585,6,-0.00171675,10,-3.7149e-07,-4.99747,-0.0142613,-4.13708,1.50071,0.0369331,
2,0,0,1,0,10229.4,0.0387526,0.0384505,-0.00713325,6,-0.00170804,10,-2.74277e-07,-5.14671,-0.008665,-6.809,1.68642,0.0384505,
2,0,0,1,0,10230.9,0.0402508,0.0399044,-0.0050146,6,-0.00169541,10,-2.00104e-07,-5.29976,-0.00637902,-9.24906,1.59202,0.0399044,
2,0,0,1,0,10232.4,0.041749,0.0414176,-0.00273362,6,-0.00167827,10,-1.1322e-07,-5.56326,-0.00186025,-31.7161,1.41637,0.0414176,
2,0,0,1,0,10233.9,0.0432472,0.0428969,-7.74733e-05,6,-0.00165839,10,-3.32336e-09,-7.11085,0.15469,0.381407,1.19324,0.0428969,
2,0,0,1,0,10235.4,0.0447454,0.0444355,0.00195681,6,-0.00163546,10,8.6952e-08,-5.70845,0.00694457,8.49585,1.36191,0.0444355,
2,0,0,1,0,10236.9,0.0462435,0.0459518,0.00444321,6,-0.00160906,10,2.04173e-07,-5.3523,0.0043597,13.533,1.43377,0.0459518,
2,1,0,1,0,10238.4,0.0477417,0.0473749,0.00572708,6,-0.00157976,10,2.7132e-07,-5.24207,0.0089484,6.59336,1.40801,0.0473749,
2,1,0,1,0,10239.9,0.0492399,0.0489708,0.00773379,6,-0.0015473,10,3.7873e-07,-5.11161,0.0128295,4.59877,1.34776,0.0489708,
2,0,0,1,0,10241.4,0.0507381,0.0504204,0.00956263,6,-0.00151208,10,4.82152e-07,-5.01942,0.0165146,3.5726,1.36604,0.0504204,
2,1,0,1,0,10242.9,0.0522363,0.051888,0.0122898,6,-0.00147333,10,6.37696e-07,-4.91045,0.0166214,3.54963,1.59969,0.051888,
2,0,0,1,0,10244.4,0.0537345,0.0534478,0.0140864,6,-0.00143113,10,7.52886e-07,-4.8512,0.0211258,2.79279,1.50587,0.0534478,
2,1,0,1,0,10245.9,0.0552327,0.0549261,0.0160276,6,-0.0013861,10,8.80332e-07,-4.79513,0.0250151,2.35858,1.441,0.0549261,
2,1,0,1,0,10247.4,0.0567309,0.0564329,0.0171621,6,-0.00133775,10,9.68505e-07,-4.76543,0.0333232,1.77054,1.22463,0.0564329,
2,1,0,1,0,10248.9,0.0582291,0.057873,0.0196906,6,-0.00128719,10,1.13955e-06,-4.70574,0.0352233,1.67503,1.32003,0.057873,
2,1,0,1,0,10250.4,0.0597273,0.0593671,0.0217013,6,-0.00123341,10,1.28834e-06,-4.66351,0.035441,1.66474,1.37984,0.0593671,
2,1,0,1,0,10251.9,0.0612255,0.0609195,0.0234433,6,-0.00117684,10,1.42815e-06,-4.62998,0.0575168,1.02579,0.940458,0.0609195,
2,1,0,1,0,10253.4,0.0627237,0.0624518,0.0254562,6,-0.00111766,10,1.58979e-06,-4.59421,0.0536319,1.10009,1.08951,0.0624518,
2,1,0,1,0,10254.9,0.0642219,0.0638898,0.0273819,6,-0.00105589,10,1.74942e-06,-4.56254,0.0508781,1.15963,1.24581,0.0638898,
2,1,0,1,0,10256.4,0.0657201,0.0654168,0.0292134,6,-0.000991084,10,1.91104e-06,-4.53442,0.0602613,0.97907,1.10939,0.0654168,
2,1,0,1,0,10257.9,0.0672183,0.0669183,0.0308029,6,-0.000923292,10,2.06128e-06,-4.51141,0.069966,0.843267,0.999775,0.0669183,
2,1,0,1,0,10259.4,0.0687164,0.0684209,0.0325281,6,-0.000853146,10,2.2256e-06,-4.48774,0.0656716,0.89841,1.12369,0.0684209,
2,1,0,1,0,10260.9,0.0702146,0.0699085,0.0341147,6,-0.000781383,10,2.38491e-06,-4.46706,0.076716,0.769071,1.02995,0.0699085,
2,1,0,1,0,10262.4,0.0717128,0.071425,0.0355458,6,-0.000706484,10,2.53886e-06,-4.44921,0.0613962,0.960971,1.33018,0.071425,
2,1,0,1,0,10263.9,0.073211,0.0729074,0.0375812,6,-0.000628716,10,2.73995e-06,-4.42503,0.076034,0.775969,1.12274,0.0729074,
2,1,0,1,0,10265.4,0.0747092,0.0743909,0.0393685,6,-0.000548718,10,2.92866e-06,-4.40485,0.100307,0.588193,0.891243,0.0743909,
2,1,0,1,0,10266.9,0.0762074,0.0758776,0.0401308,6,-0.00046693,10,3.04503e-06,-4.39652,0.0905044,0.651902,1.02644,0.0758776,
2,1,0,1,0,10268.4,0.0777055,0.0773589,0.0415059,6,-0.000382982,10,3.21085e-06,-4.38189,0.0777151,0.759183,1.23065,0.0773589,
2,1,0,1,0,10269.9,0.0792037,0.0789337,0.0433977,6,-0.000296591,10,3.42554e-06,-4.36253,0.092702,0.636448,1.07772,0.0789337,
2,1,0,1,0,10271.4,0.0807019,0.0803832,0.0450119,6,-0.000207583,10,3.6182e-06,-4.34667,0.106688,0.553015,0.962247,0.0803832,
2,1,0,1,0,10272.9,0.0822001,0.0819049,0.045756,6,-0.000116407,10,3.74764e-06,-4.33955,0.115556,0.510575,0.91934,0.0819049,
2,1,0,1,0,10274.4,0.0836983,0.0833725,0.0482455,6,-2.31311e-05,10,4.02235e-06,-4.31654,0.117527,0.502011,0.932848,0.0833725,
2,1,0,1,0,10275.9,0.0851965,0.0848603,0.0488755,6,7.26659e-05,10,4.14759e-06,-4.31091,0.121153,0.486986,0.938808,0.08486028,
2,1,0,1,0,10277.4,0.0866947,0.0863873,0.0506116,6,0.000170724,10,4.3722e-06,-4.29575,0.138567,0.425786,0.844686,0.0863873,
2,1,0,1,0,10278.9,0.0881929,0.0878984,0.0533041,6,0.000271554,10,4.68535e-06,-4.27324,0.0942667,0.625884,1.29873,0.0878984,
2,1,0,1,0,10280.3,0.0896911,0.0893829,0.0549282,6,0.000374826,10,4.90964e-06,-4.26021,0.0941625,0.626577,1.34006,0.0893829,
2,1,0,1,0,10281.8,0.0911893,0.0908325,0.0570156,6,0.000481675,10,5.17887e-06,-4.24401,0.0927355,0.636218,1.41327,0.0908325,
2,1,0,1,0,10283.3,0.0926875,0.0923786,0.0586957,6,0.00059151,10,5.42223e-06,-4.23139,0.0950657,0.620623,1.42049,0.0923786,
2,1,0,1,0,10284.8,0.0941857,0.0938812,0.061334,6,0.000704352,10,5.75811e-06,-4.2123,0.0973746,0.605908,1.43899,0.0938812,
2,1,0,1,0,10286.3,0.0956839,0.0953488,0.0634207,6,0.000820077,10,6.04709e-06,-4.19777,0.0900538,0.655164,1.61915,0.0953488,
2,1,0,1,0,10287.8,0.0971821,0.0968822,0.0653689,6,0.000940136,10,6.33308e-06,-4.18463,0.0750413,0.786234,2.02089,0.0968822,
2,1,0,1,0,10289.3,0.0986803,0.0983477,0.0688909,6,0.00106403,10,6.77526e-06,-4.16184,0.105366,0.559955,1.4985,0.0983477,
2,1,0,1,0,10290.8,0.100178,0.099881,0.0710873,6,0.00119194,10,7.10027e-06,-4.14821,0.105437,0.559577,1.55274,0.099881,
2,1,0,1,0,10292.3,0.101677,0.101338,0.0732354,6,0.00132327,10,7.42153e-06,-4.13528,0.0949482,0.621391,1.78279,0.101338,
2,1,0,1,0,10293.8,0.103175,0.102863,0.0760396,6,0.00145854,10,7.82165e-06,-4.11896,0.106799,0.552441,1.6378,0.102863,
2,1,0,1,0,10295.3,0.104673,0.104372,0.0793567,6,0.00159782,10,8.28261e-06,-4.10042,0.122621,0.481158,1.46424,0.104372,
2,1,0,1,0,10296.8,0.106171,0.105844,0.0809574,6,0.00174102,10,8.56882e-06,-4.09174,0.121242,0.48663,1.52331,0.105844,
2,1,0,1,0,10298.3,0.107669,0.107308,0.0829017,6,0.00188714,10,8.89602e-06,-4.08144,0.123118,0.479216,1.5502,0.107308,
2,1,0,1,0,10299.8,0.109167,0.108875,0.0858498,6,0.0020366,10,9.34692e-06,-4.06626,0.125584,0.469807,1.56475,0.108875,
2,1,0,1,0,10301.3,0.110666,0.110323,0.0872319,6,0.00218951,10,9.62366e-06,-4.05932,0.157146,0.375448,1.27897,0.110323,
2,1,0,1,0,10302.8,0.112164,0.11185,0.0888955,6,0.00234548,10,9.94294e-06,-4.05112,0.180102,0.327592,1.13754,0.11185,
2,1,0,1,0,10304.3,0.113662,0.113332,0.0914231,6,0.00250445,10,1.03612e-05,-4.03894,0.172422,0.342184,1.21951,0.1133322,
2,1,0,1,0,10305.8,0.11516,0.114825,0.0936226,6,0.00266582,10,1.07502e-05,-4.02862,0.154587,0.381663,1.395,0.114825,
2,1,0,1,0,10307.3,0.116658,0.11631,0.0964315,6,0.00283139,10,1.12159e-05,-4.01578,0.134326,0.439229,1.63805,0.11631,
2,1,0,1,0,10308.8,0.118157,0.117841,0.0975752,6,0.00300081,10,1.14984e-05,-4.01066,0.189441,0.311442,1.18476,0.117841,
2,1,0,1,0,10310.3,0.119655,0.119371,0.0996848,6,0.00317281,10,1.18995e-05,-4.00137,0.211764,0.278612,1.08973,0.119371,
2,1,0,1,0,10311.8,0.121153,0.120811,0.101481,6,0.00334717,10,1.22601e-05,-3.99361,0.199448,0.295817,1.17517,0.120811,
2,1,0,1,0,10313.3,0.122651,0.122314,0.103705,6,0.00352516,10,1.26845e-05,-3.9842,0.140108,0.421104,1.7023,0.122314,
2,1,0,1,0,10314.8,0.124149,0.12387,0.105734,6,0.00370647,10,1.30972e-05,-3.97579,0.167006,0.353281,1.46102,0.12387,
2,1,0,1,0,10316.3,0.125648,0.125275,0.108083,6,0.00389095,10,1.354e-05,-3.96624,0.187141,0.315271,1.32883,0.125275,
2,1,0,1,0,10317.8,0.127146,0.126776,0.108999,6,0.0040781,10,1.38184e-05,-3.96258,0.187664,0.314392,1.34897,0.126776,
2,1,0,1,0,10319.3,0.128644,0.128273,0.111994,6,0.00426836,10,1.43659e-05,-3.9508,0.275431,0.21421,0.92444,0.128273,
2,1,0,1,0,10320.8,0.130142,0.129797,0.112947,6,0.00446119,10,1.46602e-05,-3.94712,0.433297,0.136165,0.596577,0.129797,
2,1,0,1,0,10322.3,0.13164,0.13129,0.113809,6,0.00465543,10,1.4942e-05,-3.94382,4.34407,0.0135817,0.0595951,0.1312902,
2,1,0,1,0,10323.8,0.133139,0.132824,0.113123,6,0.00485002,10,1.50253e-05,-3.94645,-0.772347,-0.0763905,-0.338277,0.132824,
2,1,0,1,0,10325.3,0.134637,0.134283,0.112583,6,0.00504305,10,1.5118e-05,-3.94853,-0.285408,-0.206722,-0.904756,0.134283,
2,1,0,1,0,10326.8,0.136135,0.135802,0.110828,6,0.00523522,10,1.50507e-05,-3.95535,-0.20723,-0.284708,-1.23038,0.135802,
2,1,0,1,0,10328.3,0.137633,0.13729,0.10871,6,0.00542428,10,1.49247e-05,-3.96373,-0.116766,-0.505285,-2.11869,0.13729,
2,1,0,1,0,10329.8,0.139131,0.138844,0.105999,6,0.00560852,10,1.47173e-05,-3.9747,-0.109895,-0.536874,-2.19772,0.138844,
2,1,0,1,0,10331.3,0.14063,0.140274,0.102309,6,0.00578698,10,1.43513e-05,-3.99009,-0.0875116,-0.674196,-2.65686,0.140274,
2,1,0,1,0,10332.8,0.142128,0.14183,0.0976842,6,0.0059599,10,1.38545e-05,-4.01018,-0.0829126,-0.711593,-2.6842,0.14183,
2,1,0,1,0,10334.3,0.143626,0.143309,0.0929748,6,0.00612649,10,1.33241e-05,-4.03163,-0.0684073,-0.862481,-3.11589,0.1433088,
2,1,0,1,0,10335.8,0.145124,0.144802,0.0881534,6,0.00628536,10,1.27648e-05,-4.05476,-0.0652794,-0.903807,-3.14655,0.144802,
2,1,0,1,0,10337.3,0.146622,0.146295,0.0841446,6,0.00643684,10,1.23099e-05,-4.07497,-0.0641917,-0.919122,-3.01549,0.146295,
2,1,0,1,0,10338.8,0.14812,0.147835,0.0789818,6,0.00658208,10,1.16762e-05,-4.10247,-0.0675381,-0.873581,-2.70712,0.147835,
2,1,0,1,0,10340.3,0.149619,0.149303,0.0749655,6,0.00672036,10,1.11926e-05,-4.12514,-0.0678576,-0.869468,-2.55952,0.149303,
2,1,0,1,0,10341.8,0.151117,0.150791,0.072026,6,0.00685289,10,1.08609e-05,-4.14251,-0.0655604,-0.899933,-2.51154,0.150791,
2,1,0,1,0,10343.3,0.152615,0.152276,0.0675193,6,0.0069796,10,1.02815e-05,-4.17057,-0.0709667,-0.831376,-2.22592,0.1522757,
2,1,0,1,0,10344.8,0.154113,0.153799,0.0651201,6,0.00710148,10,1.00154e-05,-4.18628,-0.0920724,-0.6408,-1.63154,0.153799,
2,1,0,1,0,10346.3,0.155611,0.155262,0.06364,6,0.00721971,10,9.88086e-06,-4.19627,-0.0926036,-0.637124,-1.56359,0.155262,
2,1,0,1,0,10347.8,0.15711,0.156804,0.0610325,6,0.00733472,10,9.57011e-06,-4.21444,-0.097167,-0.607202,-1.43662,0.156804,
2,1,0,1,0,10349.3,0.158608,0.158285,0.0588426,6,0.00744637,10,9.31391e-06,-4.23031,-0.117051,-0.504055,-1.16365,0.158285,
2,1,0,1,0,10350.8,0.160106,0.159758,0.0571022,6,0.00755512,10,9.12253e-06,-4.24335,-0.150342,-0.392438,-0.889447,0.159758,
2,1,0,1,0,10352.3,0.161604,0.161262,0.0563042,6,0.00766193,10,9.07971e-06,-4.24946,-0.153883,-0.383407,-0.846213,0.161262,
2,1,0,1,0,10353.8,0.163102,0.162815,0.0556287,6,0.00776724,10,9.05719e-06,-4.2547,-0.213056,-0.276922,-0.596807,0.162815,
2,1,0,1,0,10355.3,0.164601,0.164262,0.0543221,6,0.00787102,10,8.92308e-06,-4.26502,-0.240075,-0.245756,-0.519692,0.164262,
2,1,0,1,0,10356.8,0.166099,0.165792,0.0536116,6,0.00797314,10,8.88835e-06,-4.27074,-0.21105,-0.279554,-0.586383,0.1657916,
2,1,0,1,0,10358.3,0.167597,0.167309,0.0520969,6,0.00807414,10,8.71628e-06,-4.28319,-0.22419,-0.26317,-0.541685,0.167309,
2,1,0,1,0,10359.8,0.169095,0.168772,0.0517562,6,0.00817422,10,8.73502e-06,-4.28604,-0.262242,-0.224983,-0.458732,0.1687724,
2,1,0,1,0,10361.3,0.170593,0.170269,0.0518082,6,0.00827303,10,8.82131e-06,-4.2856,-0.251411,-0.234675,-0.473131,0.170269,
2,1,0,1,0,10362.7,0.172091,0.171743,0.0506529,6,0.00837083,10,8.69925e-06,-4.2954,-0.327987,-0.179885,-0.357389,0.171743,
2,1,0,1,0,10364.2,0.17359,0.173279,0.0500994,6,0.00846768,10,8.68118e-06,-4.30017,-0.433357,-0.136146,-0.267336,0.173279,
2,1,0,1,0,10365.7,0.175088,0.174738,0.0500994,6,0.00856366,10,8.75427e-06,-4.30017,-0.471829,-0.125045,-0.243862,0.174738,
2,1,0,1,0,10367.2,0.176586,0.176303,0.0498563,6,0.00865937,10,8.78984e-06,-4.30228,-1.55322,-0.0379855,-0.0734819,0.1763034,
2,1,0,1,0,10368.7,0.178084,0.177742,0.049697,6,0.00875475,10,8.83326e-06,-4.30367,-0.642854,-0.0917782,-0.177374,0.177742,
2,1,0,1,0,10370.2,0.179582,0.179294,0.0489206,6,0.00884938,10,8.77115e-06,-4.31051,-0.491798,-0.119968,-0.229852,0.179294,
2,1,0,1,0,10371.7,0.181081,0.180794,0.0493912,6,0.00894411,10,8.92964e-06,-4.30635,-0.81739,-0.072181,-0.137456,0.180794,
2,1,0,1,0,10373.2,0.182579,0.182272,0.0488197,6,0.00903854,10,8.89849e-06,-4.3114,-0.294798,-0.200137,-0.38166,0.182272,
2,1,0,1,0,10374.7,0.184077,0.183744,0.0485549,6,0.00913217,10,8.92169e-06,-4.31377,-0.81828,-0.0721025,-0.138168,0.1837443,
2,1,0,1,0,10376.2,0.185575,0.185291,0.0484334,6,0.00922545,10,8.97429e-06,-4.31486,2.51035,0.0235027,0.044528,0.185291,
2,1,0,1,0,10377.7,0.187073,0.186806,0.048591,6,0.00931888,10,9.07708e-06,-4.31344,1.50611,0.0391737,0.074253,0.186806,
2,1,0,1,0,10379.2,0.188572,0.188247,0.048601,6,0.00941244,10,9.14899e-06,-4.31335,-0.881062,-0.0669646,-0.127419,0.188247,
2,1,0,1,0,10380.7,0.19007,0.189736,0.0488767,6,0.00950603,10,9.27366e-06,-4.3109,0.852022,0.069247,0.131729,0.189736,
2,1,0,1,0,10382.2,0.191568,0.191285,0.0486377,6,0.00959946,10,9.30366e-06,-4.31303,-12.0834,-0.00488273,-0.00930347,0.191285,
2,1,0,1,0,10383.7,0.193066,0.192691,0.0489766,6,0.00969324,10,9.43735e-06,-4.31001,1.28575,0.0458877,0.0872631,0.192691,
2,1,0,1,0,10385.2,0.194564,0.194265,0.048818,6,0.00978715,10,9.4836e-06,-4.31142,0.87526,0.0674085,0.129301,0.194265,
2,1,0,1,0,10386.7,0.196063,0.195763,0.0490299,6,0.00988092,10,9.59824e-06,-4.30954,-0.769465,-0.0766767,-0.146858,0.1957629,
2,1,0,1,0,10388.2,0.197561,0.197271,0.0485997,6,0.00997452,10,9.5873e-06,-4.31337,1.23041,0.0479514,0.0919273,0.197271,
2,1,0,1,0,10389.7,0.199059,0.198777,0.048951,6,0.0100682,10,9.73031e-06,-4.31024,22.9339,0.00257261,0.00492955,0.198777,
2,1,0,1,0,10391.2,0.200557,0.200257,0.0489578,6,0.0101622,10,9.80414e-06,-4.31018,0.884894,0.0666747,0.128222,0.200257,
2,1,0,1,0,10392.7,0.202055,0.201728,0.0490868,6,0.0102565,10,9.90218e-06,-4.30903,-2.42883,-0.0242915,-0.0465391,0.201728,
2,1,0,1,0,10394.2,0.203554,0.203199,0.0491329,6,0.0103507,10,9.98373e-06,-4.30863,1.07547,0.0548596,0.105882,0.203199,
2,1,0,1,0,10395.7,0.205052,0.204742,0.0494286,6,0.0104452,10,1.01201e-05,-4.30602,0.594549,0.0992348,0.19455,0.204742,
2,1,0,1,0,10397.2,0.20655,0.206247,0.0501949,6,0.0105401,10,1.03526e-05,-4.29934,0.375132,0.157278,0.30684,0.206247,
2,1,0,1,0,10398.7,0.208048,0.207722,0.0498967,6,0.0106358,10,1.03646e-05,-4.30193,-27.7155,-0.00212877,-0.00415769,0.207722,
2,1,0,1,0,10400.2,0.209546,0.209229,0.050099,6,0.0107313,10,1.04822e-05,-4.30017,1.34509,0.0438632,0.0861143,0.209229,
2,1,0,1,0,10401.7,0.211044,0.210759,0.0508314,6,0.0108265,10,1.07132e-05,-4.29387,1.6457,0.0358509,0.0701992,0.210759,
2,1,0,1,0,10403.2,0.212543,0.21224,0.0502091,6,0.0109223,10,1.06564e-05,-4.29922,0.583904,0.101044,0.200399,0.2122405,
2,1,0,1,0,10404.7,0.214041,0.21372,0.0510145,6,0.0110183,10,1.09028e-05,-4.29231,1.52532,0.0386805,0.0764011,0.2137198,
2,1,0,1,0,10406.2,0.215539,0.215223,0.0512087,6,0.011115,10,1.10213e-05,-4.29066,0.512993,0.115011,0.22858,0.215223,
2,1,0,1,0,10407.7,0.217037,0.2167,0.0517216,6,0.0112117,10,1.12081e-05,-4.28633,0.857911,0.0687717,0.137469,0.2166996,
2,1,0,1,0,10409.2,0.218535,0.218236,0.0512316,6,0.0113084,10,1.11806e-05,-4.29046,1.28545,0.0458982,0.0918062,0.2182361,
2,1,0,1,0,10410.7,0.220034,0.21973,0.0514792,6,0.0114055,10,1.13115e-05,-4.28837,0.934315,0.0631478,0.126815,0.21973,
2,1,0,1,0,10412.2,0.221532,0.221246,0.0513804,6,0.0115027,10,1.13677e-05,-4.2892,0.512817,0.115051,0.232638,0.221246,
2,1,0,1,0,10413.7,0.22303,0.222739,0.0516972,6,0.0116,10,1.1515e-05,-4.28653,0.70221,0.0840204,0.168399,0.222739,
2,1,0,1,0,10415.2,0.224528,0.224186,0.0522144,6,0.0116978,10,1.17057e-05,-4.28221,1.05825,0.0557523,0.112606,0.224186,
2,1,0,1,0,10416.7,0.226026,0.22568,0.0518926,6,0.0117957,10,1.17111e-05,-4.28489,7.50604,0.00786034,0.0159309,0.22568,
2,1,0,1,0,10418.2,0.227525,0.227249,0.0520968,6,0.0118937,10,1.18389e-05,-4.28319,1.17273,0.0503101,0.101754,0.227249,
2,1,0,1,0,10419.7,0.229023,0.228718,0.0517638,6,0.0119917,10,1.18393e-05,-4.28597,0.575676,0.102488,0.209371,0.228718,
2,1,0,1,0,10421.2,0.230521,0.230229,0.0522431,6,0.0120896,10,1.20279e-05,-4.28197,0.491505,0.120039,0.246138,0.2302293,
2,1,0,1,0,10422.7,0.232019,0.231685,0.0525605,6,0.0121882,10,1.21775e-05,-4.27934,0.845995,0.0697403,0.143053,0.231685,
2,1,0,1,0,10424.2,0.233517,0.233182,0.0529346,6,0.0122874,10,1.23434e-05,-4.27626,1.05725,0.0558049,0.114553,0.233182,
2,1,0,1,0,10425.7,0.235016,0.234723,0.053585,6,0.0123865,10,1.25777e-05,-4.27096,0.967674,0.0609709,0.125927,0.234723,
2,1,0,1,0,10427.2,0.236514,0.236205,0.0534398,6,0.012486,10,1.26227e-05,-4.27213,0.499791,0.118049,0.244939,0.236205,
2,1,0,1,0,10428.7,0.238012,0.237709,0.0531954,6,0.0125859,10,1.2645e-05,-4.27413,0.930655,0.0633962,0.132389,0.237709,
2,1,0,1,0,10430.2,0.23951,0.239189,0.0537573,6,0.0126859,10,1.28581e-05,-4.26956,1.09643,0.0538108,0.113005,0.239189,
2,1,0,1,0,10431.7,0.241008,0.240689,0.0538146,6,0.0127865,10,1.29526e-05,-4.2691,3.91237,0.0150804,0.0317902,0.2406891,
2,1,0,1,0,10433.2,0.242506,0.242177,0.0543764,6,0.0128871,10,1.31687e-05,-4.26459,7.62579,0.0077369,0.0164548,0.242177,
2,1,0,1,0,10434.7,0.244005,0.243712,0.0545168,6,0.0129883,10,1.32864e-05,-4.26347,1.40251,0.0420674,0.089129,0.243712,
2,1,0,1,0,10436.2,0.245503,0.245189,0.0545757,6,0.0130898,10,1.33814e-05,-4.263,1.32863,0.0444068,0.0945823,0.245189,
2,1,0,1,0,10437.7,0.247001,0.2467,0.0548978,6,0.0131912,10,1.35433e-05,-4.26045,-3.7114,-0.015897,-0.0339025,0.2467,
2,1,0,1,0,10439.2,0.248499,0.248167,0.0547422,6,0.0132929,10,1.35852e-05,-4.26168,1.6026,0.0368152,0.0787422,0.248167,
2,1,0,1,0,10440.7,0.249997,0.249674,0.0549644,6,0.0133948,10,1.37232e-05,-4.25992,0.572578,0.103043,0.222782,0.249674,
2,1,0,1,0,10442.2,0.251496,0.251176,0.0555581,6,0.0134973,10,1.39548e-05,-4.25525,0.542182,0.10882,0.235091,0.251176,
2,1,0,1,0,10443.7,0.252994,0.252642,0.0556547,6,0.0136004,10,1.40607e-05,-4.2545,0.786884,0.0749793,0.162329,0.252642,
2,1,0,1,0,10445.1,0.254492,0.254198,0.0559222,6,0.0137034,10,1.42153e-05,-4.25242,0.534255,0.110434,0.241537,0.254198,
2,1,0,1,0,10446.6,0.25599,0.255686,0.0562923,6,0.0138067,10,1.43931e-05,-4.24955,0.582002,0.101374,0.221184,0.255686,
2,1,0,1,0,10448.1,0.257488,0.257136,0.0564809,6,0.0139108,10,1.45233e-05,-4.2481,2.39736,0.0246104,0.0538689,0.257136,
2,1,0,1,0,10449.6,0.258987,0.258673,0.0562055,6,0.0140146,10,1.45388e-05,-4.25022,-2.40426,-0.0245398,-0.0542368,0.258673,
2,1,0,1,0,10451.1,0.260485,0.260173,0.0563071,6,0.0141183,10,1.46496e-05,-4.24944,2.25266,0.0261912,0.0574963,0.260173,
2,1,0,1,0,10452.6,0.261983,0.2617,0.056715,6,0.0142221,10,1.48423e-05,-4.2463,1.00896,0.0584763,0.12908,0.2617,
2,1,0,1,0,10454.1,0.263481,0.263171,0.0565836,6,0.0143264,10,1.48912e-05,-4.24731,0.854836,0.0690191,0.153536,0.263171,
2,1,0,1,0,10455.6,0.264979,0.26468,0.0574096,6,0.0144311,10,1.51952e-05,-4.24102,0.469891,0.125561,0.281435,0.26468,
2,1,0,1,0,10457.1,0.266477,0.266198,0.0573581,6,0.0145359,10,1.52686e-05,-4.24141,0.706153,0.0835513,0.187538,0.266198,
2,1,0,1,0,10458.6,0.267976,0.267608,0.0574937,6,0.0146411,10,1.53857e-05,-4.24038,0.610885,0.0965812,0.217214,0.2676076,
2,1,0,1,0,10460.1,0.269474,0.269139,0.0578471,6,0.0147469,10,1.55689e-05,-4.23772,1.33055,0.0443426,0.0999961,0.269139,
2,1,0,1,0,10461.6,0.270972,0.270684,0.0583561,6,0.0148529,10,1.5796e-05,-4.23391,1.10334,0.053474,0.120554,0.2706838,
2,1,0,1,0,10463.1,0.27247,0.272165,0.0577771,6,0.0149589,10,1.57249e-05,-4.23824,-3.54699,-0.0166338,-0.0376683,0.272165,
2,1,0,1,0,10464.6,0.273968,0.273655,0.0577256,6,0.0150649,10,1.57969e-05,-4.23863,0.718636,0.0821,0.186458,0.273655,
2,1,0,1,0,10466.1,0.275467,0.275159,0.0586834,6,0.015171,10,1.61472e-05,-4.23148,0.688129,0.0857397,0.195462,0.275159,
2,1,0,1,0,10467.6,0.276965,0.276652,0.058147,6,0.0152778,10,1.60865e-05,-4.23547,0.622837,0.0947279,0.216125,0.2766518,
2,1,0,1,0,10469.1,0.278463,0.278171,0.0586216,6,0.0153845,10,1.63068e-05,-4.23194,6.6289,0.00890042,0.0204483,0.278171,
2,1,0,1,0,10470.6,0.279961,0.27967,0.058514,6,0.0154914,10,1.63646e-05,-4.23274,1.34951,0.0437196,0.100824,0.2796697,
2,1,0,1,0,10472.1,0.281459,0.281131,0.0584054,6,0.0155984,10,1.64196e-05,-4.23355,0.476325,0.123865,0.285593,0.281131,
2,1,0,1,0,10473.6,0.282958,0.282627,0.0597175,6,0.0157059,10,1.68778e-05,-4.2239,0.922106,0.063984,0.147771,0.282627,
2,1,0,1,0,10475.1,0.284456,0.284121,0.0594283,6,0.0158136,10,1.68849e-05,-4.22601,0.853398,0.0691354,0.16029,0.2841213,
2,1,0,1,0,10476.6,0.285954,0.285625,0.0599202,6,0.0159216,10,1.71147e-05,-4.22243,2.1931,0.0269026,0.0620651,0.285625,
2,1,0,1,0,10478.1,0.287452,0.287113,0.0595194,6,0.0160296,10,1.70888e-05,-4.22534,0.981108,0.0601361,0.13946,0.2871128,
2,1,0,1,0,10479.6,0.28895,0.288604,0.0596612,6,0.0161376,10,1.72184e-05,-4.22431,1.33776,0.0441037,0.102488,0.288604,
2,1,0,1,0,10481.1,0.290448,0.290144,0.0602175,6,0.016246,10,1.74718e-05,-4.22028,2.65467,0.0222249,0.0516885,0.290144,
2,1,0,1,0,10482.6,0.291947,0.291643,0.0600365,6,0.0163544,10,1.75092e-05,-4.22158,3.55297,0.0166058,0.0388619,0.291643,
2,1,0,1,0,10484.1,0.293445,0.29311,0.0598073,6,0.0164624,10,1.75301e-05,-4.22325,2.23334,0.0264178,0.0619899,0.29311,
2,1,0,1,0,10485.6,0.294943,0.294628,0.0603467,6,0.0165709,10,1.77798e-05,-4.21935,0.570342,0.103447,0.241362,0.294628,
2,1,0,1,0,10487.1,0.296441,0.29616,0.0599653,6,0.0166797,10,1.77593e-05,-4.2221,0.916185,0.0643975,0.150985,0.2961601,
2,1,0,1,0,10488.6,0.297939,0.297639,0.0605627,6,0.0167888,10,1.80258e-05,-4.21779,0.68399,0.0862586,0.203409,0.297639,
2,1,0,1,0,10490.1,0.299438,0.299102,0.060363,6,0.0168981,10,1.80547e-05,-4.21923,-0.00513797,-11.4831,-18.6657,0.299102,
2,1,0,1,0,10490.9,0.299737,0.299455,0.0331299,6,0.0169462,10,9.9209e-06,-4.47978,0.00251334,23.4747,33.6571,0.299455,
2,1,0,1,0,10492.4,0.298239,0.29797,0.0220033,6,0.016967,10,6.55633e-06,-4.65751,0.00637086,9.26092,12.4974,0.29797,
2,1,0,1,0,10493.9,0.296741,0.296459,0.0177178,6,0.016978,10,5.25261e-06,-4.75159,0.0164288,3.59126,2.61403,0.296459,
2,1,0,1,0,10495.4,0.295243,0.294923,0.0148722,6,0.0169837,10,4.38614e-06,-4.82763,0.0211274,2.79259,1.6586,0.294923,
2,1,0,1,0,10496.9,0.293745,0.293468,0.0124143,6,0.0169856,10,3.6432e-06,-4.90608,0.0203465,2.89976,1.43366,0.2934677,
2,1,0,1,0,10498.4,0.292246,0.29191,0.0105846,6,0.0169845,10,3.08974e-06,-4.97533,0.016771,3.51797,1.43257,0.29191,
2,1,0,1,0,10499.9,0.290748,0.290446,0.00887288,6,0.0169804,10,2.57709e-06,-5.05194,0.0190527,3.09668,1.07369,0.290446,
2,1,0,1,0,10501.4,0.28925,0.288961,0.00715267,6,0.0169738,10,2.06684e-06,-5.14553,0.0156214,3.77688,1.04641,0.288961,
2,1,0,1,0,10502.9,0.287752,0.287441,0.00564565,6,0.0169649,10,1.62279e-06,-5.24829,0.0120542,4.89457,1.06344,0.2874414,
2,1,0,1,0,10504.4,0.286254,0.285963,0.00440335,6,0.0169541,10,1.2592e-06,-5.35622,0.0117084,5.03911,0.846456,0.285963,
2,1,0,1,0,10505.9,0.284755,0.284478,0.0032072,6,0.0169411,10,9.12377e-07,-5.49387,0.00874273,6.74846,0.851481,0.284478,
2,1,0,1,0,10507.4,0.283257,0.282951,0.00226325,6,0.0169265,10,6.40389e-07,-5.64527,0.00470112,12.5502,0.729848,0.282951,
2,1,0,1,0,10508.9,0.281759,0.28143,0.000965172,6,0.01691,10,2.71628e-07,-6.0154,0.00530354,11.1247,0.807815,0.28143,
2,1,0,1,0,10510.4,0.280261,0.279991,-0.000224251,6,0.0168918,10,-6.27883e-08,-6.64927,-0.216853,-0.272073,0.687412,0.279991,
2,1,0,1,0,10511.9,0.278763,0.278444,-0.00124524,6,0.0168721,10,-3.46728e-07,-5.90475,-0.00373164,-15.8108,0.622621,0.2784439,
2,0,0,1,0,10513.4,0.277264,0.276973,-0.00205482,6,0.0168509,10,-5.69129e-07,-5.68723,-0.00464103,-12.7127,0.747651,0.276973,
2,0,0,1,0,10514.9,0.275766,0.275435,-0.00314058,6,0.0168282,10,-8.65024e-07,-5.50299,-0.0104859,-5.62662,0.648278,0.275435,
2,0,0,1,0,10516.4,0.274268,0.273956,-0.00362247,6,0.016804,10,-9.92398e-07,-5.441,-0.0153067,-3.85453,0.583688,0.2739563,
2,1,0,1,0,10517.9,0.27277,0.272487,-0.00504319,6,0.0167788,10,-1.3742e-06,-5.29729,-0.01842,-3.20304,0.60526,0.272487,
2,1,0,1,0,10519.4,0.271272,0.270944,-0.00606528,6,0.016752,10,-1.64335e-06,-5.21715,-0.0200333,-2.94509,0.638462,0.270944,
2,1,0,1,0,10520.9,0.269774,0.269455,-0.0067094,6,0.0167237,10,-1.80788e-06,-5.17332,-0.0348223,-1.69432,0.429981,0.2694549,
2,1,0,1,0,10522.4,0.268275,0.267932,-0.00699606,6,0.0166945,10,-1.87447e-06,-5.15515,-0.0395482,-1.49185,0.42668,0.267932,
2,0,0,1,0,10523.9,0.266777,0.266474,-0.00841467,6,0.0166642,10,-2.24229e-06,-5.07496,-0.0356946,-1.65291,0.505502,0.266474,
2,0,0,1,0,10525.4,0.265279,0.264964,-0.00898017,6,0.0166328,10,-2.37942e-06,-5.04672,-0.0366613,-1.60933,0.55379,0.264964,
2,0,0,1,0,10526.9,0.263781,0.263475,-0.00971074,6,0.0166001,10,-2.55854e-06,-5.01275,-0.0472552,-1.24854,0.4616,0.263475,
2,0,0,1,0,10528.4,0.262283,0.262004,-0.010191,6,0.0165662,10,-2.67008e-06,-4.99178,-0.0430119,-1.37171,0.552573,0.262004,
2,0,0,1,0,10529.9,0.260784,0.260502,-0.0112057,6,0.0165313,10,-2.91911e-06,-4.95056,-0.0478633,-1.23268,0.534282,0.260502,
2,1,0,1,0,10531.4,0.259286,0.258997,-0.0119912,6,0.016495,10,-3.10569e-06,-4.92114,-0.0753664,-0.782842,0.354208,0.258997,
2,0,0,1,0,10532.9,0.257788,0.257498,-0.0128665,6,0.0164577,10,-3.3131e-06,-4.89054,-0.0574266,-1.0274,0.503302,0.257498,
2,1,0,1,0,10534.4,0.25629,0.256028,-0.0129919,6,0.0164194,10,-3.32629e-06,-4.88633,-0.0947262,-0.622848,0.323075,0.256028,
2,0,0,1,0,10535.9,0.254792,0.25443,-0.0140918,6,0.0163797,10,-3.58537e-06,-4.85103,-0.0537866,-1.09693,0.590954,0.25443,
2,0,0,1,0,10537.4,0.253293,0.252992,-0.014914,6,0.016339,10,-3.77312e-06,-4.82641,-0.114719,-0.5143,0.294142,0.252992,
2,0,0,1,0,10538.9,0.251795,0.251475,-0.0154271,6,0.0162971,10,-3.87953e-06,-4.81172,-0.103749,-0.568681,0.345351,0.251475,
2,0,0,1,0,10540.4,0.250297,0.249978,-0.0160503,6,0.0162545,10,-4.01223e-06,-4.79452,-0.141388,-0.417292,0.258998,0.249978,
2,0,0,1,0,10541.9,0.248799,0.248464,-0.0165056,6,0.0162109,10,-4.10104e-06,-4.78237,-0.122512,-0.481587,0.31173,0.248464,
2,0,0,1,0,10543.4,0.247301,0.246986,-0.0171524,6,0.0161668,10,-4.23641e-06,-4.76567,-0.101403,-0.58184,0.39381,0.246986,
2,1,0,1,0,10544.9,0.245802,0.245465,-0.0177587,6,0.0161215,10,-4.35915e-06,-4.75059,-0.0998848,-0.59068,0.40298,0.2454652,
2,0,0,1,0,10546.4,0.244304,0.243997,-0.0182417,6,0.0160751,10,-4.45092e-06,-4.73893,-0.105597,-0.558727,0.398681,0.243997,
2,0,0,1,0,10547.9,0.242806,0.242463,-0.0191098,6,0.0160281,10,-4.63343e-06,-4.71874,-0.243632,-0.242168,0.178543,0.242463,
2,0,0,1,0,10549.4,0.241308,0.240996,-0.0196103,6,0.0159802,10,-4.726e-06,-4.70752,-0.118535,-0.497745,0.375618,0.240996,
2,0,0,1,0,10550.9,0.23981,0.239534,-0.0203112,6,0.0159312,10,-4.86522e-06,-4.69227,-0.0896664,-0.657995,0.516112,0.239534,
2,0,0,1,0,10552.4,0.238312,0.238024,-0.0203443,6,0.0158812,10,-4.84244e-06,-4.69156,-0.131425,-0.448924,0.367396,0.2380244,
2,0,0,1,0,10553.9,0.236813,0.236502,-0.0215965,6,0.01583,10,-5.1076e-06,-4.66562,-0.138359,-0.426428,0.355012,0.236502,
2,0,0,1,0,10555.4,0.235315,0.234999,-0.0217733,6,0.0157783,10,-5.11671e-06,-4.66207,-0.171907,-0.34321,0.299085,0.234999,
2,0,0,1,0,10556.9,0.233817,0.233509,-0.0224891,6,0.0157255,10,-5.25141e-06,-4.64803,-0.101297,-0.582447,0.513619,0.233509,
2,0,0,1,0,10558.4,0.232319,0.231992,-0.0234263,6,0.0156715,10,-5.43472e-06,-4.6303,-0.136758,-0.431419,0.390232,0.231992,
2,0,0,1,0,10559.9,0.230821,0.230532,-0.0236495,6,0.0156167,10,-5.45196e-06,-4.62618,-0.178335,-0.330838,0.306898,0.230532,
2,0,0,1,0,10561.4,0.229322,0.229035,-0.0242597,6,0.0155608,10,-5.55632e-06,-4.61511,-0.131865,-0.447427,0.428343,0.229035,
2,0,0,1,0,10562.9,0.227824,0.227522,-0.0247003,6,0.0155045,10,-5.61986e-06,-4.6073,-0.128592,-0.458814,0.454823,0.227522,
2,0,0,1,0,10564.4,0.226326,0.226007,-0.0251611,6,0.0154473,10,-5.68657e-06,-4.59927,-0.161269,-0.365849,0.368217,0.226007,
2,0,0,1,0,10565.9,0.224828,0.224532,-0.0264801,6,0.0153891,10,-5.94562e-06,-4.57708,-0.194849,-0.302798,0.308621,0.224532,
2,0,0,1,0,10567.4,0.22333,0.223048,-0.0270196,6,0.0153299,10,-6.02666e-06,-4.56832,-0.181896,-0.324361,0.329665,0.2230482,
2,0,0,1,0,10568.9,0.221831,0.221541,-0.0274117,6,0.0152703,10,-6.07283e-06,-4.56206,-0.196811,-0.299781,0.318778,0.221541,
2,0,0,1,0,10570.3,0.220333,0.220024,-0.0279361,6,0.0152095,10,-6.14661e-06,-4.55383,-0.18101,-0.325948,0.35275,0.220024,
2,0,0,1,0,10571.8,0.218835,0.218574,-0.0279895,6,0.015148,10,-6.11778e-06,-4.55301,-0.138481,-0.426052,0.473955,0.218574,
2,0,0,1,0,10573.3,0.217337,0.217014,-0.0291109,6,0.0150856,10,-6.31748e-06,-4.53594,-0.222985,-0.264592,0.29614,0.217014,
2,0,0,1,0,10574.8,0.215839,0.215534,-0.0294799,6,0.0150225,10,-6.35393e-06,-4.53047,-0.16044,-0.36774,0.422467,0.215534,
2,0,0,1,0,10576.3,0.21434,0.214009,-0.0300991,6,0.0149585,10,-6.44149e-06,-4.52145,-0.117988,-0.50005,0.583766,0.2140093,
2,0,0,1,0,10577.8,0.212842,0.212538,-0.030676,6,0.0148936,10,-6.51981e-06,-4.5132,-0.164182,-0.359357,0.429707,0.212538,
2,0,0,1,0,10579.3,0.211344,0.211041,-0.0308828,6,0.0148277,10,-6.51755e-06,-4.51028,-0.152487,-0.386917,0.472315,0.211041,
2,0,0,1,0,10580.8,0.209846,0.20955,-0.0317968,6,0.0147612,10,-6.66303e-06,-4.49762,-0.170121,-0.346813,0.429096,0.20955,
2,0,0,1,0,10582.3,0.208348,0.208032,-0.0319333,6,0.0146937,10,-6.64314e-06,-4.49576,-0.179979,-0.327815,0.412392,0.208032,
2,0,0,1,0,10583.8,0.20685,0.206552,-0.0339514,6,0.0146249,10,-7.01272e-06,-4.46914,-0.187728,-0.314285,0.401264,0.206552,
2,0,0,1,0,10585.3,0.205351,0.20507,-0.0337968,6,0.0145552,10,-6.93071e-06,-4.47112,-0.325759,-0.181115,0.235085,0.20507,
2,0,0,1,0,10586.8,0.203853,0.203509,-0.0338431,6,0.0144851,10,-6.88739e-06,-4.47053,-0.248611,-0.237319,0.318705,0.203509,
2,0,0,1,0,10588.3,0.202355,0.202026,-0.0345691,6,0.0144142,10,-6.98385e-06,-4.46131,-0.169898,-0.347267,0.467607,0.202026,
2,0,0,1,0,10589.8,0.200857,0.200541,-0.0349224,6,0.014342,10,-7.00338e-06,-4.4569,-0.221363,-0.26653,0.368562,0.200541,
2,0,0,1,0,10591.3,0.199359,0.199025,-0.0360111,6,0.0142689,10,-7.16711e-06,-4.44356,-0.248744,-0.237191,0.330509,0.199025,
2,0,0,1,0,10592.8,0.19786,0.197535,-0.0366445,6,0.0141948,10,-7.23856e-06,-4.43599,-0.189741,-0.31095,0.442212,0.197535,
2,0,0,1,0,10594.3,0.196362,0.196061,-0.0373873,6,0.0141196,10,-7.33019e-06,-4.42728,-0.15081,-0.39122,0.570437,0.196061,
2,0,0,1,0,10595.8,0.194864,0.194583,-0.0384213,6,0.014043,10,-7.47612e-06,-4.41543,-0.167171,-0.352932,0.521363,0.194583,
2,0,0,1,0,10597.3,0.193366,0.193038,-0.0388637,6,0.0139649,10,-7.50215e-06,-4.41046,-0.165677,-0.356114,0.543802,0.193038,
2,0,0,1,0,10598.8,0.191868,0.191548,-0.0396803,6,0.0138862,10,-7.60067e-06,-4.40143,-0.256477,-0.23004,0.355894,0.191548,
2,0,0,1,0,10600.3,0.190369,0.190056,-0.0403687,6,0.0138061,10,-7.67231e-06,-4.39395,-0.184901,-0.31909,0.504461,0.190056,
2,0,0,1,0,10601.8,0.188871,0.188514,-0.0411291,6,0.0137251,10,-7.75341e-06,-4.38585,-0.19096,-0.308965,0.490511,0.188514,
2,0,0,1,0,10603.3,0.187373,0.187065,-0.0417509,6,0.0136428,10,-7.81015e-06,-4.37933,-0.191672,-0.307817,0.501181,0.1870655,
2,0,0,1,0,10604.8,0.185875,0.185546,-0.0427662,6,0.0135596,10,-7.9351e-06,-4.3689,-0.16715,-0.352976,0.585162,0.185546,
2,0,0,1,0,10606.3,0.184377,0.18405,-0.0434857,6,0.0134749,10,-8.00353e-06,-4.36165,-0.159411,-0.370113,0.624833,0.18405,
2,0,0,1,0,10607.8,0.182878,0.18255,-0.0441633,6,0.0133889,10,-8.06201e-06,-4.35494,-0.165566,-0.356353,0.618756,0.18255,
2,0,0,1,0,10609.3,0.18138,0.181084,-0.0454999,6,0.0133012,10,-8.23928e-06,-4.34199,-0.176886,-0.333549,0.587184,0.181084,
2,0,0,1,0,10610.8,0.179882,0.179589,-0.0459478,6,0.0132122,10,-8.2517e-06,-4.33773,-0.219955,-0.268237,0.482011,0.1795885,
2,0,0,1,0,10612.3,0.178384,0.178047,-0.0468293,6,0.0131216,10,-8.33781e-06,-4.32948,-0.153326,-0.384801,0.708172,0.178047,
2,0,0,1,0,10613.8,0.176886,0.176552,-0.0481022,6,0.0130299,10,-8.49253e-06,-4.31783,-0.181761,-0.324603,0.611657,0.176552,
2,0,0,1,0,10615.3,0.175388,0.175064,-0.0489378,6,0.0129363,10,-8.56723e-06,-4.31036,-0.147151,-0.400949,0.767912,0.1750638,
2,0,0,1,0,10616.8,0.173889,0.173581,-0.0503141,6,0.0128411,10,-8.73359e-06,-4.29831,-0.203919,-0.289331,0.566028,0.173581,
2,0,0,1,0,10618.3,0.172391,0.172098,-0.0512245,6,0.0127441,10,-8.81563e-06,-4.29052,-0.15599,-0.378228,0.757482,0.172098,
2,0,0,1,0,10619.8,0.170893,0.170594,-0.0526026,6,0.0126456,10,-8.97369e-06,-4.27899,-0.138633,-0.425585,0.875106,0.170594,
2,0,0,1,0,10621.3,0.169395,0.169085,-0.0539642,6,0.0125448,10,-9.12456e-06,-4.26789,-0.11801,-0.499959,1.04777,0.1690852,
2,0,0,1,0,10622.8,0.167897,0.167579,-0.0552986,6,0.0124416,10,-9.2669e-06,-4.25729,-0.132948,-0.443784,0.963312,0.167579,
2,0,0,1,0,10624.3,0.166398,0.166092,-0.0564669,6,0.0123364,10,-9.37867e-06,-4.24821,-0.138158,-0.427046,0.949154,0.166092,
2,0,0,1,0,10625.8,0.1649,0.164614,-0.0583368,6,0.0122288,10,-9.60308e-06,-4.23406,-0.111394,-0.529654,1.21091,0.1646145,
2,0,0,1,0,10627.3,0.163402,0.163037,-0.059679,6,0.0121188,10,-9.72986e-06,-4.22418,-0.117573,-0.501817,1.18049,0.163037,
2,0,0,1,0,10628.8,0.161904,0.16159,-0.0623606,6,0.0120058,10,-1.00769e-05,-4.20509,-0.106419,-0.554411,1.34217,0.16159,
2,0,0,1,0,10630.3,0.160406,0.160119,-0.0643429,6,0.0118898,10,-1.03026e-05,-4.1915,-0.109225,-0.540171,1.34425,0.160119,
2,0,0,1,0,10631.8,0.158907,0.158585,-0.0657883,6,0.0117708,10,-1.0433e-05,-4.18185,-0.107661,-0.548018,1.41232,0.158585,
2,0,0,1,0,10633.3,0.157409,0.157091,-0.0679521,6,0.0116485,10,-1.06747e-05,-4.1678,-0.0951199,-0.62027,1.65878,0.157091,
2,0,0,1,0,10634.8,0.155911,0.155599,-0.0703033,6,0.0115222,10,-1.09391e-05,-4.15302,-0.0903728,-0.652852,1.81288,0.155599,
2,0,0,1,0,10636.3,0.154413,0.154122,-0.0736145,6,0.0113914,10,-1.13456e-05,-4.13304,-0.0859807,-0.6862,1.97159,0.154122,
2,0,0,1,0,10637.8,0.152915,0.152628,-0.0764785,6,0.0112563,10,-1.16727e-05,-4.11646,-0.0771997,-0.764252,2.2965,0.152628,
2,0,0,1,0,10639.3,0.151417,0.151122,-0.0801305,6,0.0111166,10,-1.21095e-05,-4.0962,-0.0756011,-0.780412,2.47012,0.151122,
2,0,0,1,0,10640.8,0.149918,0.149602,-0.0840756,6,0.010971,10,-1.25779e-05,-4.07533,-0.0689856,-0.855251,2.80824,0.149602,
2,0,0,1,0,10642.3,0.14842,0.148127,-0.0885341,6,0.0108189,10,-1.31143e-05,-4.05289,-0.0678966,-0.868968,3.00364,0.148127,
2,0,0,1,0,10643.8,0.146922,0.146617,-0.0935293,6,0.0106605,10,-1.3713e-05,-4.02905,-0.0675311,-0.873672,3.16422,0.146617,
2,0,0,1,0,10645.3,0.145424,0.14505,-0.0978495,6,0.0104951,10,-1.41931e-05,-4.00944,-0.0673119,-0.876517,3.35583,0.14505,
2,0,0,1,0,10646.8,0.143926,0.143627,-0.103445,6,0.0103219,10,-1.48574e-05,-3.98529,-0.0606444,-0.972885,3.92993,0.143627,
2,0,0,1,0,10648.3,0.142427,0.142077,-0.108863,6,0.01014,10,-1.54669e-05,-3.96312,-0.0608839,-0.969057,4.13542,0.142077,
2,0,0,1,0,10649.8,0.140929,0.140605,-0.114827,6,0.00994953,10,-1.61453e-05,-3.93996,-0.0704668,-0.837274,3.76539,0.140605,
2,0,0,1,0,10651.3,0.139431,0.13909,-0.120442,6,0.00975034,10,-1.67522e-05,-3.91922,-0.0702243,-0.840166,3.94696,0.13909,
2,0,0,1,0,10652.7,0.137933,0.137662,-0.126898,6,0.00954232,10,-1.7469e-05,-3.89655,-0.0726713,-0.811875,3.99535,0.137662,
2,0,0,1,0,10654.2,0.136435,0.136085,-0.132227,6,0.00932565,10,-1.79941e-05,-3.87868,-0.085162,-0.692797,3.55695,0.136085,
2,0,0,1,0,10655.7,0.134936,0.134635,-0.137562,6,0.00910059,10,-1.85206e-05,-3.8615,-0.0911556,-0.647245,3.45044,0.134635,
2,0,0,1,0,10657.2,0.133438,0.133129,-0.141702,6,0.00886809,10,-1.88646e-05,-3.84863,-0.115378,-0.511365,2.81899,0.133129,
2,0,0,1,0,10658.7,0.13194,0.131606,-0.146346,6,0.00862941,10,-1.92601e-05,-3.83462,-0.141864,-0.415892,2.36835,0.131606,
2,0,0,1,0,10660.2,0.130442,0.130106,-0.149581,6,0.00838478,10,-1.94614e-05,-3.82512,-0.166915,-0.353474,2.0552,0.1301057,
2,0,0,1,0,10661.7,0.128944,0.128626,-0.152351,6,0.00813524,10,-1.95963e-05,-3.81716,-0.2731,-0.216038,1.27492,0.128626,
2,0,0,1,0,10663.2,0.127445,0.127108,-0.154469,6,0.00788272,10,-1.96342e-05,-3.81116,-0.399785,-0.147579,0.887666,0.1271079,
2,0,0,1,0,10664.7,0.125947,0.125642,-0.1564,6,0.0076283,10,-1.96505e-05,-3.80576,-0.671744,-0.0878311,0.529483,0.125642,
2,0,0,1,0,10666.2,0.124449,0.124147,-0.156479,6,0.00737143,10,-1.94265e-05,-3.80554,-0.773395,-0.076287,0.462697,0.124147,
2,0,0,1,0,10667.7,0.122951,0.122651,-0.156948,6,0.0071137,10,-1.92499e-05,-3.80424,-1.25696,-0.0469388,0.286397,0.122651,
2,0,0,1,0,10669.2,0.121453,0.121124,-0.157288,6,0.00685572,10,-1.90514e-05,-3.8033,2.79295,0.0211247,-0.129098,0.121124,
2,0,0,1,0,10670.7,0.119955,0.119615,-0.156828,6,0.00659843,10,-1.8759e-05,-3.80458,1.39472,0.0423025,-0.259058,0.119615,
2,0,0,1,0,10672.2,0.118456,0.118162,-0.156157,6,0.00634095,10,-1.84519e-05,-3.80644,18.2344,0.00323565,-0.0196601,0.118162,
2,0,0,1,0,10673.7,0.116958,0.116635,-0.156086,6,0.00608389,10,-1.82052e-05,-3.80664,0.686364,0.0859603,-0.52015,0.116635,
2,0,0,1,0,10675.2,0.11546,0.115113,-0.154557,6,0.00582844,10,-1.77915e-05,-3.81091,0.567233,0.104014,-0.627315,0.115113,
2,0,0,1,0,10676.7,0.113962,0.113663,-0.152005,6,0.00557519,10,-1.72774e-05,-3.81814,0.489924,0.120427,-0.721112,0.113663,
2,0,0,1,0,10678.2,0.112464,0.112153,-0.152664,6,0.00532337,10,-1.71217e-05,-3.81626,0.462762,0.127495,-0.75932,0.112153,
2,0,0,1,0,10679.7,0.110965,0.110628,-0.15224,6,0.00507224,10,-1.6842e-05,-3.81747,0.615257,0.0958949,-0.566891,0.110628,
2,0,0,1,0,10681.2,0.109467,0.109149,-0.150783,6,0.00482236,10,-1.64578e-05,-3.82165,0.591088,0.0998159,-0.588519,0.109149,
2,0,0,1,0,10682.7,0.107969,0.107676,-0.150236,6,0.00457408,10,-1.61769e-05,-3.82322,0.481507,0.122532,-0.71944,0.107676,
2,0,0,1,0,10684.2,0.106471,0.106145,-0.148732,6,0.00432725,10,-1.57872e-05,-3.82759,0.975006,0.0605124,-0.352866,0.106145,
2,0,0,1,0,10685.7,0.104973,0.10467,-0.14809,6,0.00408195,10,-1.55005e-05,-3.82947,0.436066,0.135301,-0.781365,0.10467,
2,0,0,1,0,10687.2,0.103474,0.10318,-0.146742,6,0.00383755,10,-1.51408e-05,-3.83345,0.312838,0.188596,-1.07624,0.10318,
2,0,0,1,0,10688.7,0.101976,0.101673,-0.14555,6,0.0035961,10,-1.47985e-05,-3.83699,0.314155,0.187805,-1.06466,0.101673,
2,0,0,1,0,10690.2,0.100478,0.100188,-0.144023,6,0.00335723,10,-1.44294e-05,-3.84157,0.352623,0.167317,-0.938456,0.100188,
2,0,0,1,0,10691.7,0.0989798,0.0986275,-0.142168,6,0.00311997,10,-1.40217e-05,-3.8472,0.366985,0.160769,-0.892132,0.0986275,
2,0,0,1,0,10693.2,0.0974816,0.0971684,-0.141252,6,0.00288462,10,-1.37253e-05,-3.85,0.335968,0.175612,-0.968982,0.0971684,
2,0,0,1,0,10694.7,0.0959834,0.0956382,-0.139689,6,0.00265158,10,-1.33596e-05,-3.85484,0.298885,0.1974,-1.07597,0.09563823,
2,0,0,1,0,10696.2,0.0944852,0.0941378,-0.137927,6,0.00242109,10,-1.29842e-05,-3.86035,0.335099,0.176067,-0.951934,0.0941378,
2,0,0,1,0,10697.7,0.0929871,0.0926416,-0.136915,6,0.00219232,10,-1.2684e-05,-3.86355,0.483627,0.121995,-0.650378,0.0926416,
2,0,0,1,0,10699.2,0.0914889,0.0912376,-0.136205,6,0.00196538,10,-1.24271e-05,-3.86581,0.38414,0.15359,-0.814345,0.09123759,
2,0,0,1,0,10700.7,0.0899907,0.0896713,-0.135011,6,0.00174065,10,-1.21066e-05,-3.86963,0.40836,0.14448,-0.756243,0.0896713,
2,0,0,1,0,10702.2,0.0884925,0.0881677,-0.132497,6,0.00151782,10,-1.1682e-05,-3.87779,0.365089,0.161604,-0.838528,0.0881677,
2,0,0,1,0,10703.7,0.0869943,0.086628,-0.131582,6,0.00129731,10,-1.13986e-05,-3.8808,0.314191,0.187784,-0.966966,0.086628,
2,0,0,1,0,10705.2,0.0854961,0.0852176,-0.130411,6,0.00107863,10,-1.11133e-05,-3.88468,0.388352,0.151924,-0.774104,0.0852176,
2,0,0,1,0,10706.7,0.083998,0.0837247,-0.129341,6,0.000861833,10,-1.08291e-05,-3.88826,0.330739,0.178388,-0.898303,0.0837247,
2,0,0,1,0,10708.2,0.0824998,0.082203,-0.128352,6,0.000646629,10,-1.05509e-05,-3.8916,0.488636,0.120744,-0.605896,0.082203,
2,0,0,1,0,10709.7,0.0810016,0.0806993,-0.12687,6,0.000433472,10,-1.02383e-05,-3.89664,0.632606,0.093265,-0.464579,0.08069931,
2,0,0,1,0,10711.2,0.0795034,0.0792105,-0.126319,6,0.000221335,10,-1.00058e-05,-3.89853,0.466988,0.126342,-0.624137,0.07921046,
2,0,0,1,0,10712.7,0.0780052,0.0776612,-0.125539,6,1.02011e-05,10,-9.74953e-06,-3.90122,0.500983,0.117768,-0.576862,0.0776612,
2,0,0,1,0,10714.2,0.076507,0.0761586,-0.124387,6,-0.000199402,10,-9.47314e-06,-3.90522,0.808658,0.0729603,-0.355116,0.07615862,
2,0,0,1,0,10715.7,0.0750088,0.0747048,-0.124591,6,-0.000407318,10,-9.30755e-06,-3.90451,0.467925,0.126089,-0.610403,0.0747048,
2,0,0,1,0,10717.2,0.0735106,0.0732033,-0.123879,6,-0.000615025,10,-9.06835e-06,-3.907,1.1286,0.0522771,-0.25218,0.0732033,
2,0,0,1,0,10718.7,0.0720124,0.0716826,-0.122791,6,-0.000821458,10,-8.80195e-06,-3.91083,0.56662,0.104126,-0.498941,0.07168261,
2,0,0,1,0,10720.2,0.0705142,0.0701715,-0.121926,6,-0.00102711,10,-8.55572e-06,-3.9139,0.751983,0.0784592,-0.374362,0.0701715,
2,0,0,1,0,10721.7,0.069016,0.0687092,-0.121372,6,-0.00123093,10,-8.33936e-06,-3.91588,0.872608,0.0676134,-0.321019,0.0687092,
2,0,0,1,0,10723.2,0.0675178,0.0671685,-0.120134,6,-0.00143417,10,-8.0692e-06,-3.92033,1.41371,0.0417341,-0.196736,0.0671685,
2,0,0,1,0,10724.7,0.0660196,0.065704,-0.12054,6,-0.00163658,10,-7.91996e-06,-3.91887,1.1226,0.0525568,-0.245504,0.065704,
2,0,0,1,0,10726.2,0.0645214,0.064194,-0.119875,6,-0.00183835,10,-7.69524e-06,-3.92127,0.737125,0.0800407,-0.372708,0.064194,
2,0,0,1,0,10727.7,0.0630233,0.0627254,-0.118523,6,-0.00203876,10,-7.43438e-06,-3.9262,0.747917,0.0788857,-0.365644,0.0627254,
2,0,0,1,0,10729.2,0.0615251,0.0611836,-0.117922,6,-0.00223801,10,-7.21487e-06,-3.92841,0.712803,0.0827718,-0.382244,0.0611836,
2,0,0,1,0,10730.7,0.0600269,0.059699,-0.117679,6,-0.00243685,10,-7.02531e-06,-3.9293,0.704266,0.0837752,-0.385267,0.059699,
2,0,0,1,0,10732.2,0.0585287,0.0582176,-0.11667,6,-0.00263478,10,-6.79227e-06,-3.93304,0.316815,0.186228,-0.849437,0.0582176,
2,0,0,1,0,10733.7,0.0570305,0.0567447,-0.116239,6,-0.00283148,10,-6.59595e-06,-3.93465,0.670644,0.0879751,-0.400461,0.0567447,
2,0,0,1,0,10735.2,0.0555323,0.0552124,-0.115815,6,-0.00302636,10,-6.39443e-06,-3.93623,0.722895,0.0816162,-0.369073,0.0552124,
2,0,0,1,0,10736.6,0.0540342,0.0537205,-0.115092,6,-0.00322093,10,-6.18281e-06,-3.93895,0.803688,0.0734116,-0.329016,0.0537205,
2,0,0,1,0,10738.1,0.052536,0.0521744,-0.114413,6,-0.00341486,10,-5.96941e-06,-3.94153,0.624098,0.0945364,-0.42105,0.0521744,
2,0,0,1,0,10739.6,0.0510378,0.0506983,-0.11367,6,-0.00360761,10,-5.7629e-06,-3.94435,0.577581,0.10215,-0.453908,0.0506983,
2,0,0,1,0,10741.1,0.0495396,0.0492339,-0.11362,6,-0.00379889,10,-5.59397e-06,-3.94454,0.721416,0.0817836,-0.361544,0.0492339,
2,0,0,1,0,10742.6,0.0480414,0.0477313,-0.112075,6,-0.00398967,10,-5.3495e-06,-3.95049,1.38492,0.0426018,-0.186755,0.0477313,
2,0,0,1,0,10744.1,0.0465432,0.0462021,-0.111985,6,-0.0041797,10,-5.17393e-06,-3.95084,1.04568,0.0564227,-0.247023,0.0462021,
2,0,0,1,0,10745.6,0.045045,0.0447335,-0.111712,6,-0.00436873,10,-4.99728e-06,-3.9519,0.510438,0.115587,-0.503152,0.0447335,
2,0,0,1,0,10747.1,0.0435468,0.0432436,-0.11011,6,-0.00455662,10,-4.76155e-06,-3.95817,0.890188,0.0662781,-0.28668,0.0432436,
2,0,0,1,0,10748.6,0.0420486,0.0417325,-0.110319,6,-0.00474343,10,-4.60388e-06,-3.95735,0.831778,0.0709324,-0.305133,0.0417325,
2,0,0,1,0,10750.1,0.0405504,0.0402214,-0.110193,6,-0.00492956,10,-4.43212e-06,-3.95785,0.434077,0.135921,-0.57909,0.0402214,
2,0,0,1,0,10751.6,0.0390522,0.0386987,-0.10871,6,-0.00511484,10,-4.20695e-06,-3.96373,0.504489,0.11695,-0.496693,0.03869867,
2,0,0,1,0,10753.1,0.037554,0.0372045,-0.108141,6,-0.00529874,10,-4.02332e-06,-3.96601,0.426593,0.138305,-0.584656,0.0372045,
2,0,0,1,0,10754.6,0.0360558,0.0357453,-0.107563,6,-0.00548187,10,-3.84488e-06,-3.96834,0.524544,0.112479,-0.472971,0.0357453,
2,0,0,1,0,10756.1,0.0345576,0.0342565,-0.106841,6,-0.00566407,10,-3.66e-06,-3.97126,0.45258,0.130364,-0.544941,0.0342565,
2,0,0,1,0,10757.6,0.0330594,0.0327307,-0.106283,6,-0.00584551,10,-3.47871e-06,-3.97354,0.510701,0.115527,-0.480031,0.0327307,
2,0,0,1,0,10759.1,0.0315613,0.0312399,-0.10558,6,-0.00602601,10,-3.2983e-06,-3.97642,0.537396,0.109789,-0.455267,0.0312399,
2,0,0,1,0,10760.6,0.0300631,0.0297234,-0.10558,6,-0.00620534,10,-3.13819e-06,-3.97642,1.29145,0.045685,-0.188616,0.0297234,
2,0,0,1,0,10762.1,0.0285649,0.028241,-0.104977,6,-0.00638426,10,-2.96467e-06,-3.9789,0.739196,0.0798164,-0.32742,0.028241,
2,0,0,1,0,10763.6,0.0270667,0.0267447,-0.104945,6,-0.00656277,10,-2.80672e-06,-3.97904,1.56064,0.0378051,-0.154452,0.0267447,
2,0,0,1,0,10765.1,0.0255685,0.0252697,-0.103873,6,-0.00674011,10,-2.62483e-06,-3.9835,0.639788,0.0922181,-0.374554,0.02526968,
2,0,0,1,0,10766.6,0.0240703,0.0237724,-0.10354,6,-0.00691651,10,-2.46139e-06,-3.98489,0.975153,0.0605033,-0.244914,0.0237724,
2,0,0,1,0,10768.1,0.0225722,0.0222232,-0.103424,6,-0.00709272,10,-2.29841e-06,-3.98538,-3.86923,-0.0152485,0.0615,0.0222232,
2,0,0,1,0,10769.6,0.021074,0.0207207,-0.103594,6,-0.00726855,10,-2.14653e-06,-3.98467,3.11626,0.018933,-0.0761168,0.0207207,
2,0,0,1,0,10771.1,0.0195758,0.0192679,-0.102746,6,-0.00744408,10,-1.97971e-06,-3.98823,3.01528,0.019567,-0.078902,0.0192679,
2,0,0,1,0,10772.6,0.0180776,0.0177557,-0.102269,6,-0.00761919,10,-1.81586e-06,-3.99026,-13.7268,-0.00429817,0.0172168,0.0177557,
2,0,0,1,0,10774.1,0.0165794,0.0162796,-0.102659,6,-0.00779431,10,-1.67125e-06,-3.9886,2.79843,0.0210833,-0.0848125,0.01627964,
2,0,0,1,0,10775.6,0.0150812,0.0148014,-0.103281,6,-0.00796954,10,-1.5287e-06,-3.98598,-10.1374,-0.00582005,0.0233638,0.0148014,
2,0,0,1,0,10777.1,0.013583,0.0132553,-0.102928,6,-0.0081449,10,-1.36434e-06,-3.98747,-52.7234,-0.00111905,0.00448849,0.0132553,
2,0,0,1,0,10778.6,0.0120848,0.0117675,-0.103391,6,-0.00832037,10,-1.21665e-06,-3.98552,-1.99499,-0.029574,0.119596,0.0117675,
2,0,0,1,0,10780.1,0.0105866,0.0102883,-0.103053,6,-0.00849582,10,-1.06024e-06,-3.98694,-5.53217,-0.0106649,0.0431615,0.0102883,
2,0,0,1,0,10781.6,0.00908843,0.00877826,-0.104179,6,-0.0086719,10,-9.14514e-07,-3.98222,-1.30988,-0.0450424,0.183111,0.00877826,
2,0,0,1,0,10783.1,0.00759024,0.00727142,-0.10414,6,-0.00884858,10,-7.57244e-07,-3.98238,-1.18099,-0.049958,0.203105,0.00727142,
2,0,0,1,0,10784.6,0.00609203,0.00576771,-0.104994,6,-0.00902585,10,-6.05574e-07,-3.97884,-0.569993,-0.10351,0.423563,0.00576771,
2,0,0,1,0,10786.1,0.00459384,0.00431073,-0.105072,6,-0.00920374,10,-4.52937e-07,-3.97851,-0.482834,-0.122195,0.502754,0.00431073,
2,0,0,1,0,10787.6,0.00309563,0.00279854,-0.10642,6,-0.00938317,10,-2.97821e-07,-3.97298,-0.489082,-0.120634,0.500559,0.00279854,
2,0,0,1,0,10789.1,0.00159744,0.0011899,-0.107919,6,-0.00956586,10,-1.28413e-07,-3.9669, , , ,0.001189901,
2,0,0,1,0,10790.5,0.000199235,-0.000172571,-0.107838,6,-0.00973541,10,1.86097e-08,-3.96723, , , ,-0.000172571,