File: Figure_codes/Fig_3-5/rawdata_trumpetplot_data/after 10th/20221101_1-115_003_TrumpetPlot_ParaChange_from10_every3_02_CV_C01_30.csv
mode,ox/red,error,control changes,counter inc.,time/s,control/V,Ewe/V,<I>/mA,cycle number,(Q-Qo)/C,I Range,P/W,log(|I|),Tafel slope mV/dec,alpha_eff,dI/d(E-IR),E-IR/V,
2,0,0,1,0,59443.9,2.44065e-05,-0.00042076,-0.387516,31,0.0000000E+000,10,1.63051e-07,-3.41171, , , ,-0.00042076,
2,0,0,1,0,59445.2,0.00129791,0.00090165,-0.17998,31,-0.000273159,10,-1.62279e-07,-3.74477, , , ,0.00090165,
2,0,0,1,0,59446.7,0.00279612,0.00242756,-0.143979,31,-0.000498179,10,-3.49516e-07,-3.8417,-0.0173087,-3.40868,20.7627,0.002427557,
2,0,0,1,0,59448.2,0.00429431,0.00395768,-0.12372,31,-0.000684355,10,-4.89643e-07,-3.90756,-0.0245536,-2.40291,11.7939,0.00395768,
2,0,0,1,0,59449.7,0.00579242,0.00537219,-0.108436,31,-0.000844171,10,-5.82538e-07,-3.96483,-0.0271983,-2.16926,9.31021,0.00537219,
2,0,0,1,0,59451.2,0.00729061,0.0069512,-0.0959503,31,-0.000983411,10,-6.6697e-07,-4.01795,-0.0298179,-1.97867,7.51787,0.0069512,
2,0,0,1,0,59452.7,0.00878882,0.00841563,-0.0858693,31,-0.00110613,10,-7.22644e-07,-4.06616,-0.0326075,-1.8094,6.16631,0.008415631,
2,0,0,1,0,59454.2,0.010287,0.00995638,-0.0776653,31,-0.0012151,10,-7.73265e-07,-4.10977,-0.0351337,-1.6793,5.15128,0.00995638,
2,0,0,1,0,59455.7,0.0117852,0.0114198,-0.0709858,31,-0.00131306,10,-8.1064e-07,-4.14883,-0.0368194,-1.60242,4.45568,0.0114198,
2,0,0,1,0,59457.2,0.0132834,0.0129075,-0.0648521,31,-0.00140141,10,-8.3708e-07,-4.18808,-0.038784,-1.52124,3.84949,0.0129075,
2,0,0,1,0,59458.7,0.0147815,0.0144492,-0.0594941,31,-0.00148129,10,-8.59643e-07,-4.22553,-0.0405859,-1.45371,3.37337,0.0144492,
2,0,0,1,0,59460.2,0.0162797,0.0159254,-0.0543225,31,-0.00155351,10,-8.65106e-07,-4.26502,-0.0406045,-1.45304,3.09774,0.0159254,
2,0,0,1,0,59461.7,0.0177779,0.0174057,-0.0499596,31,-0.00161859,10,-8.6958e-07,-4.30138,-0.0407092,-1.4493,2.84565,0.0174057,
2,0,0,1,0,59463.2,0.0192761,0.0189167,-0.0455839,31,-0.00167768,10,-8.62299e-07,-4.34119,-0.0401697,-1.46877,2.63115,0.0189167,
2,0,0,1,0,59464.7,0.0207743,0.0204066,-0.0418295,31,-0.00173063,10,-8.53599e-07,-4.37852,-0.0417173,-1.41428,2.34277,0.0204066,
2,0,0,1,0,59466.2,0.0222725,0.0219241,-0.0386008,31,-0.00177826,10,-8.46288e-07,-4.4134,-0.0386138,-1.52795,2.30902,0.0219241,
2,0,0,1,0,59467.7,0.0237707,0.0234278,-0.035266,31,-0.00182088,10,-8.26203e-07,-4.45264,-0.0378664,-1.55811,2.14839,0.0234278,
2,0,0,1,0,59469.2,0.0252689,0.024907,-0.0324352,31,-0.00185877,10,-8.07865e-07,-4.48898,-0.0345661,-1.70687,2.12505,0.024907,
2,0,0,1,0,59470.7,0.0267671,0.0264563,-0.0293576,31,-0.00189167,10,-7.76696e-07,-4.53228,-0.0301577,-1.95638,2.22258,0.0264563,
2,0,0,1,0,59472.2,0.0282653,0.0279282,-0.0257342,31,-0.0019195,10,-7.1871e-07,-4.58949,-0.0299153,-1.97223,1.99308,0.0279282,
2,0,0,1,0,59473.7,0.0297635,0.0294085,-0.0232247,31,-0.0019433,10,-6.83004e-07,-4.63405,-0.0302891,-1.94789,1.73438,0.02940849,
2,0,0,1,0,59475.2,0.0312617,0.0308984,-0.0208077,31,-0.00196316,10,-6.42925e-07,-4.68178,-0.0253706,-2.32553,1.83798,0.0308984,
2,0,0,1,0,59476.7,0.0327599,0.0323936,-0.0178232,31,-0.00197867,10,-5.77359e-07,-4.74901,-0.0230826,-2.55604,1.77234,0.0323936,
2,0,0,1,0,59478.2,0.0342581,0.0338824,-0.0149207,31,-0.00198996,10,-5.05548e-07,-4.82621,-0.0197096,-2.99347,1.77073,0.0338824,
2,0,0,1,0,59479.7,0.0357563,0.0353702,-0.0126163,31,-0.00199729,10,-4.46242e-07,-4.89907,-0.0191966,-3.07345,1.52042,0.0353702,
2,0,0,1,0,59481.2,0.0372544,0.0369129,-0.0106698,31,-0.00200107,10,-3.93852e-07,-4.97185,-0.0137753,-4.28301,1.56431,0.0369129,
2,0,0,1,0,59482.7,0.0387526,0.0383763,-0.00791498,31,-0.00200122,10,-3.03748e-07,-5.10155,-0.00909703,-6.48564,1.7286,0.0383763,
2,0,0,1,0,59484.2,0.0402508,0.0398895,-0.00528674,31,-0.00199743,10,-2.10886e-07,-5.27681,-0.0065257,-9.04118,1.6349,0.0398895,
2,0,0,1,0,59485.7,0.041749,0.041391,-0.00292603,31,-0.00198975,10,-1.21111e-07,-5.53372,-0.00356534,-16.5482,1.45033,0.041391,
2,1,0,1,0,59487.2,0.0432472,0.0428989,-0.000923029,31,-0.00197888,10,-3.9597e-08,-6.03478,-0.010242,-5.7606,1.33989,0.0428989,
2,0,0,1,0,59488.7,0.0447454,0.0443783,0.00149703,31,-0.00196531,10,6.64357e-08,-5.82477,0.0101758,5.79806,1.42513,0.0443783,
2,0,0,1,0,59490.2,0.0462435,0.0458967,0.003805,31,-0.00194807,10,1.74637e-07,-5.41965,0.00218578,26.9926,1.49389,0.0458967,
2,1,0,1,0,59491.7,0.0477417,0.0474332,0.00530754,31,-0.00192747,10,2.51754e-07,-5.27511,0.00903155,6.53266,1.28307,0.0474332,
2,1,0,1,0,59493.2,0.0492399,0.048887,0.00738474,31,-0.00190404,10,3.61018e-07,-5.13166,0.0143496,4.11161,1.19271,0.048887,
2,1,0,1,0,59494.7,0.0507381,0.0504066,0.00942192,31,-0.00187803,10,4.74927e-07,-5.02586,0.0155527,3.79355,1.36654,0.0504066,
2,1,0,1,0,59496.2,0.0522363,0.0518562,0.0114484,31,-0.00184853,10,5.93671e-07,-4.94125,0.0174395,3.38312,1.43322,0.0518562,
2,1,0,1,0,59497.7,0.0537345,0.0533821,0.0140043,31,-0.00181564,10,7.47577e-07,-4.85374,0.0223016,2.64556,1.331,0.0533821,
2,1,0,1,0,59499.2,0.0552327,0.054908,0.0153302,31,-0.00178024,10,8.41753e-07,-4.81445,0.0316369,1.86491,1.0989,0.05490803,
2,1,0,1,0,59500.6,0.0567309,0.0564096,0.0168517,31,-0.0017422,10,9.50597e-07,-4.77336,0.0296803,1.98785,1.26194,0.0564096,
2,1,0,1,0,59502.1,0.0582291,0.0578783,0.0188797,31,-0.00170134,10,1.09272e-06,-4.72401,0.0368219,1.60231,1.17182,0.0578783,
2,1,0,1,0,59503.6,0.0597273,0.0593597,0.0204414,31,-0.00165821,10,1.2134e-06,-4.68949,0.0430073,1.37186,1.09268,0.0593597,
2,1,0,1,0,59505.1,0.0612255,0.060893,0.0219577,31,-0.00161213,10,1.33707e-06,-4.65841,0.0496572,1.18815,0.997239,0.060893,
2,1,0,1,0,59506.6,0.0627237,0.0623437,0.023479,31,-0.00156353,10,1.46376e-06,-4.62932,0.0528902,1.11552,1.02605,0.0623437,
2,1,0,1,0,59508.1,0.0642219,0.0638706,0.0247934,31,-0.00151305,10,1.58357e-06,-4.60566,0.0530325,1.11253,1.10736,0.0638706,
2,1,0,1,0,59509.6,0.0657201,0.0653457,0.0268556,31,-0.00145982,10,1.7549e-06,-4.57097,0.0579496,1.01813,1.06039,0.0653457,
2,1,0,1,0,59511.1,0.0672183,0.0668685,0.0287638,31,-0.001404,10,1.92339e-06,-4.54115,0.0795488,0.741683,0.816288,0.0668685,
2,1,0,1,0,59512.6,0.0687164,0.0683338,0.0302575,31,-0.00134614,10,2.06761e-06,-4.51917,0.0680307,0.867256,0.997071,0.0683338,
2,1,0,1,0,59514.1,0.0702146,0.0698438,0.030968,31,-0.00128666,10,2.16292e-06,-4.50909,0.0790066,0.746773,0.901539,0.0698438,
2,1,0,1,0,59515.6,0.0717128,0.0713338,0.0327382,31,-0.00122486,10,2.33534e-06,-4.48495,0.0718388,0.821283,1.03487,0.0713338,
2,1,0,1,0,59517.1,0.073211,0.0728289,0.0332839,31,-0.00116088,10,2.42403e-06,-4.47777,0.0648845,0.909308,1.21991,0.0728289,
2,1,0,1,0,59518.6,0.0747092,0.0743634,0.035832,31,-0.00109443,10,2.66459e-06,-4.44573,0.0804742,0.733154,1.02551,0.0743634,
2,1,0,1,0,59520.1,0.0762074,0.0758479,0.0369759,31,-0.0010255,10,2.80454e-06,-4.43208,0.0800117,0.737392,1.06992,0.0758479,
2,1,0,1,0,59521.6,0.0777055,0.0773378,0.0385366,31,-0.00095438,10,2.98034e-06,-4.41413,0.0833979,0.707452,1.06424,0.0773378,
2,1,0,1,0,59523.1,0.0792037,0.0788499,0.0403748,31,-0.000880877,10,3.18354e-06,-4.39389,0.101859,0.57923,0.902654,0.0788499,
2,1,0,1,0,59524.6,0.0807019,0.0803588,0.0416803,31,-0.000805186,10,3.34938e-06,-4.38007,0.0849774,0.694302,1.11818,0.0803588,
2,1,0,1,0,59526.1,0.0822001,0.0818572,0.0430301,31,-0.000727355,10,3.52233e-06,-4.36623,0.098225,0.600662,1.01165,0.0818572,
2,1,0,1,0,59527.6,0.0836983,0.083346,0.0444289,31,-0.000647109,10,3.70297e-06,-4.35233,0.0853654,0.691146,1.21633,0.083346,
2,1,0,1,0,59529.1,0.0851965,0.0848772,0.0464187,31,-0.000564553,10,3.93989e-06,-4.33331,0.102961,0.573032,1.04589,0.0848772,
2,1,0,1,0,59530.6,0.0866947,0.0863587,0.0479752,31,-0.00047903,10,4.14307e-06,-4.31898,0.111559,0.528867,0.990384,0.0863587,
2,1,0,1,0,59532.1,0.0881929,0.0878591,0.0497603,31,-0.000391336,10,4.37189e-06,-4.30312,0.114271,0.516317,1.00104,0.0878591,
2,1,0,1,0,59533.6,0.0896911,0.0893077,0.0513234,31,-0.000301655,10,4.58357e-06,-4.28968,0.102501,0.575603,1.15503,0.0893077,
2,1,0,1,0,59535.1,0.0911893,0.0907901,0.0529361,31,-0.000209017,10,4.80608e-06,-4.27625,0.0893968,0.659979,1.36435,0.0907901,
2,1,0,1,0,59536.6,0.0926875,0.092333,0.0552999,31,-0.000113282,10,5.10601e-06,-4.25728,0.097113,0.60754,1.29977,0.092333,
2,1,0,1,0,59538.1,0.0941857,0.0938261,0.0571609,31,-1.46482e-05,10,5.36319e-06,-4.2429,0.0885117,0.666578,1.47797,0.0938261,
2,1,0,1,0,59539.6,0.0956839,0.0953552,0.0594053,31,8.67304e-05,10,5.6646e-06,-4.22617,0.100066,0.589611,1.35911,0.0953552,
2,1,0,1,0,59541.1,0.0971821,0.0968218,0.0611403,31,0.000191609,10,5.91971e-06,-4.21367,0.0891494,0.66181,1.5773,0.0968218,
2,1,0,1,0,59542.6,0.0986803,0.0983212,0.0626151,31,0.000299389,10,6.1564e-06,-4.20332,0.109709,0.537787,1.33228,0.0983212,
2,1,0,1,0,59544.1,0.100178,0.0998555,0.0654554,31,0.000410316,10,6.53608e-06,-4.18405,0.119532,0.493591,1.2549,0.09985549,
2,1,0,1,0,59545.6,0.101677,0.101304,0.0667154,31,0.00052382,10,6.75853e-06,-4.17577,0.120512,0.489576,1.278,0.101304,
2,1,0,1,0,59547.1,0.103175,0.10281,0.0690087,31,0.000640205,10,7.09477e-06,-4.1611,0.119436,0.493987,1.327,0.10281,
2,1,0,1,0,59548.6,0.104673,0.104322,0.0715977,31,0.000759759,10,7.46921e-06,-4.1451,0.118656,0.497237,1.36744,0.104322,
2,1,0,1,0,59550.1,0.106171,0.105826,0.0726002,31,0.000882093,10,7.68297e-06,-4.13906,0.1517,0.388926,1.10035,0.105826,
2,1,0,1,0,59551.6,0.107669,0.107332,0.0741602,31,0.00100703,10,7.9598e-06,-4.12983,0.138182,0.426973,1.23588,0.107332,
2,1,0,1,0,59553.1,0.109167,0.108798,0.0763413,31,0.0011346,10,8.30577e-06,-4.11724,0.139594,0.422653,1.26394,0.108798,
2,1,0,1,0,59554.6,0.110666,0.110271,0.0778399,31,0.00126506,10,8.58346e-06,-4.1088,0.156559,0.376855,1.15384,0.110271,
2,1,0,1,0,59556.1,0.112164,0.111811,0.0800459,31,0.00139837,10,8.94997e-06,-4.09666,0.176219,0.33481,1.0437,0.111811,
2,1,0,1,0,59557.6,0.113662,0.113284,0.0815298,31,0.00153432,10,9.23606e-06,-4.08868,0.176973,0.333384,1.0578,0.113284,
2,1,0,1,0,59559.1,0.11516,0.114798,0.0833964,31,0.00167221,10,9.57371e-06,-4.07885,0.212723,0.277355,0.897681,0.114798,
2,1,0,1,0,59560.6,0.116658,0.116271,0.0845033,31,0.00181284,10,9.82525e-06,-4.07313,0.201222,0.293208,0.963451,0.116271,
2,1,0,1,0,59562.1,0.118157,0.117801,0.0860024,31,0.00195565,10,1.01311e-05,-4.06549,0.239443,0.246406,0.82583,0.117801,
2,1,0,1,0,59563.6,0.119655,0.119326,0.0873405,31,0.00210035,10,1.0422e-05,-4.05878,0.237863,0.248042,0.845651,0.119326,
2,1,0,1,0,59565.1,0.121153,0.120811,0.0881301,31,0.00224638,10,1.06471e-05,-4.05488,0.214768,0.274716,0.950976,0.1208113,
2,1,0,1,0,59566.6,0.122651,0.122285,0.089522,31,0.00239509,10,1.09472e-05,-4.04807,0.178373,0.330767,1.15396,0.122285,
2,1,0,1,0,59568.1,0.124149,0.123777,0.0907981,31,0.00254576,10,1.12387e-05,-4.04192,0.283293,0.208265,0.738657,0.123777,
2,1,0,1,0,59569.6,0.125648,0.125333,0.0922014,31,0.00269814,10,1.15559e-05,-4.03526,0.441361,0.133677,0.478805,0.125333,
2,1,0,1,0,59571.1,0.127146,0.126792,0.0920202,31,0.00285151,10,1.16674e-05,-4.03612,0.480749,0.122725,0.443725,0.126792,
2,1,0,1,0,59572.6,0.128644,0.128282,0.0935464,31,0.00300543,10,1.20003e-05,-4.02897,4.32136,0.0136531,0.0494324,0.128282,
2,1,0,1,0,59574.1,0.130142,0.129752,0.0934926,31,0.00316033,10,1.21308e-05,-4.02922,-1.45554,-0.0405348,-0.146205,0.129752,
2,1,0,1,0,59575.6,0.13164,0.13127,0.0929834,31,0.00331443,10,1.22059e-05,-4.03159,-0.28318,-0.208348,-0.749079,0.13127,
2,1,0,1,0,59577.1,0.133139,0.132797,0.0915255,31,0.00346712,10,1.21543e-05,-4.03846,-0.202993,-0.29065,-1.03503,0.132797,
2,1,0,1,0,59578.6,0.134637,0.134259,0.0897975,31,0.00361734,10,1.20562e-05,-4.04674,-0.155178,-0.380208,-1.32977,0.134259,
2,1,0,1,0,59580.1,0.136135,0.135781,0.0880766,31,0.00376522,10,1.19591e-05,-4.05514,-0.124276,-0.474749,-1.62674,0.135781,
2,1,0,1,0,59581.6,0.137633,0.137277,0.0851499,31,0.00390941,10,1.16892e-05,-4.06982,-0.0925028,-0.637819,-2.10677,0.137277,
2,1,0,1,0,59583,0.139131,0.138749,0.0825634,31,0.00404916,10,1.14556e-05,-4.08321,-0.0896427,-0.658168,-2.09939,0.138749,
2,1,0,1,0,59584.5,0.14063,0.140307,0.0791481,31,0.00418355,10,1.1105e-05,-4.10156,-0.0792844,-0.744157,-2.27996,0.140307,
2,1,0,1,0,59586,0.142128,0.141787,0.0754227,31,0.00431354,10,1.0694e-05,-4.1225,-0.0808816,-0.729461,-2.14186,0.141787,
2,1,0,1,0,59587.5,0.143626,0.14328,0.0717,31,0.0044383,10,1.02732e-05,-4.14448,-0.0746528,-0.790325,-2.22291,0.14328,
2,1,0,1,0,59589,0.145124,0.144752,0.0688142,31,0.00455757,10,9.961e-06,-4.16232,-0.0653315,-0.903086,-2.43181,0.144752,
2,1,0,1,0,59590.5,0.146622,0.146275,0.0649703,31,0.00467151,10,9.50352e-06,-4.18729,-0.0787249,-0.749445,-1.92488,0.146275,
2,1,0,1,0,59592,0.14812,0.147765,0.0622626,31,0.00478091,10,9.2002e-06,-4.20577,-0.0961022,-0.61393,-1.5028,0.147765,
2,1,0,1,0,59593.5,0.149619,0.149242,0.0601026,31,0.00488668,10,8.96983e-06,-4.22111,-0.0916047,-0.644072,-1.51319,0.149242,
2,1,0,1,0,59595,0.151117,0.150786,0.0585363,31,0.00498912,10,8.82644e-06,-4.23257,-0.11888,-0.496299,-1.13193,0.150786,
2,1,0,1,0,59596.5,0.152615,0.152241,0.0561598,31,0.00508841,10,8.54981e-06,-4.25057,-0.11988,-0.492157,-1.08686,0.152241,
2,1,0,1,0,59598,0.154113,0.153767,0.0551754,31,0.00518561,10,8.48413e-06,-4.25825,-0.172731,-0.341572,-0.739443,0.1537666,
2,1,0,1,0,59599.5,0.155611,0.155244,0.0546826,31,0.0052812,10,8.48914e-06,-4.26215,-0.196334,-0.300509,-0.636596,0.155244,
2,1,0,1,0,59601,0.15711,0.156806,0.0535746,31,0.0053754,10,8.40081e-06,-4.27104,-0.171644,-0.343734,-0.719281,0.156806,
2,1,0,1,0,59602.5,0.158608,0.158274,0.0525032,31,0.00546812,10,8.30991e-06,-4.27981,-0.426318,-0.138394,-0.287189,0.158274,
2,1,0,1,0,59604,0.160106,0.159731,0.0521541,31,0.00555982,10,8.33064e-06,-4.28271,-0.620574,-0.0950732,-0.194285,0.1597314,
2,1,0,1,0,59605.5,0.161604,0.16124,0.0520448,31,0.00565101,10,8.39172e-06,-4.28362,-0.446436,-0.132158,-0.26899,0.1612404,
2,1,0,1,0,59607,0.163102,0.162783,0.0518495,31,0.00574136,10,8.44023e-06,-4.28526,-0.548273,-0.107611,-0.216315,0.162783,
2,1,0,1,0,59608.5,0.164601,0.164235,0.0517254,31,0.00583152,10,8.49512e-06,-4.2863,3.73417,0.0158,0.0317832,0.164235,
2,1,0,1,0,59610,0.166099,0.165762,0.0514116,31,0.00592105,10,8.52209e-06,-4.28894,2.54646,0.0231695,0.0466306,0.1657619,
2,1,0,1,0,59611.5,0.167597,0.167273,0.0511416,31,0.00601064,10,8.55462e-06,-4.29123,1.05795,0.055768,0.111848,0.167273,
2,1,0,1,0,59613,0.169095,0.168748,0.0516506,31,0.00610066,10,8.71594e-06,-4.28692,4.09332,0.0144137,0.029016,0.168748,
2,1,0,1,0,59614.5,0.170593,0.170287,0.0517725,31,0.00619069,10,8.81617e-06,-4.2859,-4.86858,-0.0121185,-0.024393,0.170287,
2,1,0,1,0,59616,0.172091,0.171794,0.0515553,31,0.00628074,10,8.85691e-06,-4.28773,-1.51766,-0.0388757,-0.0784351,0.171794,
2,1,0,1,0,59617.5,0.17359,0.173277,0.051646,31,0.00637085,10,8.94905e-06,-4.28696,0.904217,0.0652498,0.13198,0.173277,
2,1,0,1,0,59619,0.175088,0.174717,0.0516307,31,0.00646093,10,9.02075e-06,-4.28709,-7.7019,-0.00766045,-0.0154318,0.174717,
2,1,0,1,0,59620.5,0.176586,0.176207,0.0518403,31,0.00655116,10,9.13463e-06,-4.28533,3.76219,0.0156824,0.0315957,0.176207,
2,1,0,1,0,59622,0.178084,0.177691,0.0515359,31,0.00664117,10,9.15748e-06,-4.28789,0.850799,0.0693466,0.139782,0.177691,
2,1,0,1,0,59623.5,0.179582,0.179265,0.0519559,31,0.00673138,10,9.31388e-06,-4.28437,2.15872,0.027331,0.0553915,0.179265,
2,1,0,1,0,59625,0.181081,0.180755,0.0522953,31,0.00682184,10,9.45263e-06,-4.28154,4.5494,0.0129687,0.0263193,0.180755,
2,1,0,1,0,59626.5,0.182579,0.182247,0.0520646,31,0.00691249,10,9.48862e-06,-4.28346,-9.38437,-0.00628705,-0.0127668,0.182247,
2,1,0,1,0,59628,0.184077,0.183736,0.0520401,31,0.00700306,10,9.56162e-06,-4.28366,-6.11606,-0.00964674,-0.0195939,0.1837358,
2,1,0,1,0,59629.5,0.185575,0.185203,0.0523302,31,0.00709372,10,9.69174e-06,-4.28125,0.81527,0.0723686,0.148045,0.185203,
2,1,0,1,0,59631,0.187073,0.18675,0.0524494,31,0.0071848,10,9.7949e-06,-4.28026,1.83205,0.0322043,0.0662562,0.18675,
2,1,0,1,0,59632.5,0.188572,0.188238,0.052816,31,0.00727621,10,9.942e-06,-4.27723,2.30695,0.0255749,0.0524851,0.188238,
2,1,0,1,0,59634,0.19007,0.189728,0.0527739,31,0.0073676,10,1.00127e-05,-4.27758,1.38393,0.0426323,0.0877571,0.189728,
2,1,0,1,0,59635.5,0.191568,0.191148,0.0527315,31,0.00745881,10,1.00795e-05,-4.27793,0.723263,0.0815748,0.167524,0.1911481,
2,1,0,1,0,59637,0.193066,0.192705,0.0527718,31,0.00755034,10,1.01694e-05,-4.2776,1.26979,0.0464645,0.0957472,0.192705,
2,1,0,1,0,59638.5,0.194564,0.194242,0.0533853,31,0.00764223,10,1.03697e-05,-4.27258,1.02941,0.0573146,0.118856,0.194242,
2,1,0,1,0,59640,0.196063,0.195691,0.053004,31,0.00773424,10,1.03724e-05,-4.27569,-5.91869,-0.00996842,-0.0207531,0.195691,
2,1,0,1,0,59641.5,0.197561,0.1972,0.0533361,31,0.00782629,10,1.05179e-05,-4.27298,1.69087,0.0348933,0.07263,0.1972,
2,1,0,1,0,59643,0.199059,0.198715,0.0532168,31,0.00791825,10,1.0575e-05,-4.27395,1030.44,5.72572e-05,0.000118833,0.198715,
2,1,0,1,0,59644.5,0.200557,0.200222,0.0538412,31,0.00801081,10,1.07802e-05,-4.26889,2.33494,0.0252683,0.0523833,0.200222,
2,1,0,1,0,59646,0.202055,0.201685,0.0539311,31,0.00810334,10,1.08771e-05,-4.26816,3.12714,0.0188671,0.0395192,0.201685,
2,1,0,1,0,59647.5,0.203554,0.203179,0.0535192,31,0.008196,10,1.0874e-05,-4.27149,10.511,0.00561315,0.0117123,0.203179,
2,1,0,1,0,59649,0.205052,0.204723,0.0539146,31,0.00828853,10,1.10376e-05,-4.26829,1.17525,0.0502019,0.105649,0.204723,
2,1,0,1,0,59650.5,0.20655,0.206207,0.0535286,31,0.00838084,10,1.1038e-05,-4.27141,0.642694,0.0918011,0.192492,0.206207,
2,1,0,1,0,59652,0.208048,0.207718,0.0537921,31,0.0084739,10,1.11736e-05,-4.26928,0.658662,0.0895755,0.187275,0.207718,
2,1,0,1,0,59653.5,0.209546,0.209173,0.0536355,31,0.00856679,10,1.12191e-05,-4.27055,-25.4644,-0.00231696,-0.00488353,0.209173,
2,1,0,1,0,59655,0.211044,0.210717,0.0540061,31,0.00865977,10,1.138e-05,-4.26756,0.961618,0.0613549,0.129351,0.210717,
2,1,0,1,0,59656.5,0.212543,0.212179,0.0544118,31,0.00875283,10,1.1545e-05,-4.26431,0.647355,0.0911401,0.193993,0.212179,
2,1,0,1,0,59658,0.214041,0.213689,0.0550384,31,0.00884653,10,1.17611e-05,-4.25933,0.501353,0.117681,0.250178,0.213689,
2,1,0,1,0,59659.5,0.215539,0.21521,0.0551022,31,0.00894113,10,1.18585e-05,-4.25883,1.2619,0.046755,0.100127,0.21521,
2,1,0,1,0,59661,0.217037,0.216705,0.0551157,31,0.00903541,10,1.19438e-05,-4.25872,-5.68697,-0.0103746,-0.0223769,0.216705,
2,1,0,1,0,59662.5,0.218535,0.218228,0.0553924,31,0.00913016,10,1.20881e-05,-4.25655,0.552007,0.106883,0.229065,0.218228,
2,1,0,1,0,59664,0.220034,0.219687,0.0556419,31,0.00922518,10,1.22238e-05,-4.2546,1.44631,0.0407936,0.0884428,0.219687,
2,1,0,1,0,59665.4,0.221532,0.221207,0.0553743,31,0.00932003,10,1.22492e-05,-4.25669,2.17617,0.0271119,0.0587364,0.221207,
2,1,0,1,0,59666.9,0.22303,0.222642,0.0552486,31,0.00941495,10,1.23007e-05,-4.25768,0.720506,0.0818869,0.177502,0.222642,
2,1,0,1,0,59668.4,0.224528,0.224187,0.0559235,31,0.00951008,10,1.25373e-05,-4.25241,0.895559,0.0658806,0.143598,0.224187,
2,1,0,1,0,59669.9,0.226026,0.225743,0.0559859,31,0.00960587,10,1.26384e-05,-4.25192,0.803786,0.0734026,0.160254,0.225743,
2,1,0,1,0,59671.4,0.227525,0.227169,0.0562718,31,0.00970192,10,1.27832e-05,-4.24971,0.72283,0.0816236,0.179793,0.227169,
2,1,0,1,0,59672.9,0.229023,0.228682,0.0566145,31,0.00979841,10,1.29467e-05,-4.24707,0.611465,0.0964895,0.213317,0.228682,
2,1,0,1,0,59674.4,0.230521,0.230167,0.0568488,31,0.00989546,10,1.30847e-05,-4.24528,0.681756,0.0865412,0.192492,0.230167,
2,1,0,1,0,59675.9,0.232019,0.231717,0.0571954,31,0.00999269,10,1.32532e-05,-4.24264,1.4038,0.0420288,0.0940796,0.231717,
2,1,0,1,0,59677.4,0.233517,0.233226,0.0572773,31,0.0100903,10,1.33585e-05,-4.24202,1.81874,0.03244,0.0722657,0.233226,
2,1,0,1,0,59678.9,0.235016,0.234716,0.0574703,31,0.0101879,10,1.34892e-05,-4.24056,2.10988,0.0279636,0.0627902,0.234716,
2,1,0,1,0,59680.4,0.236514,0.236201,0.0577901,31,0.0102857,10,1.365e-05,-4.23815,0.733156,0.080474,0.180377,0.2362005,
2,1,0,1,0,59681.9,0.238012,0.237641,0.0575476,31,0.0103837,10,1.36757e-05,-4.23997,1.26514,0.0466353,0.104724,0.237641,
2,1,0,1,0,59683.4,0.23951,0.239172,0.0579468,31,0.0104821,10,1.38592e-05,-4.23697,0.996845,0.0591867,0.133502,0.2391717,
2,1,0,1,0,59684.9,0.241008,0.240726,0.0582082,31,0.0105805,10,1.40122e-05,-4.23502,1.891,0.0312004,0.0706641,0.240726,
2,1,0,1,0,59686.4,0.242506,0.242183,0.0576921,31,0.0106789,10,1.39721e-05,-4.23888,0.575249,0.102564,0.23443,0.242183,
2,1,0,1,0,59687.9,0.244005,0.243683,0.0584419,31,0.0107778,10,1.42413e-05,-4.23328,0.490411,0.120307,0.274054,0.243683,
2,1,0,1,0,59689.4,0.245503,0.245211,0.0587817,31,0.0108775,10,1.44139e-05,-4.23076,1.21181,0.0486874,0.111277,0.245211,
2,1,0,1,0,59690.9,0.247001,0.246649,0.0588337,31,0.0109772,10,1.45113e-05,-4.23037,1.29991,0.0453879,0.104426,0.246649,
2,1,0,1,0,59692.4,0.248499,0.248179,0.0591132,31,0.0110772,10,1.46707e-05,-4.22832,1.66911,0.0353482,0.08148,0.248179,
2,1,0,1,0,59693.9,0.249997,0.249695,0.0595719,31,0.0111773,10,1.48748e-05,-4.22496,1.15004,0.0513026,0.118596,0.249695,
2,1,0,1,0,59695.4,0.251496,0.251155,0.0595964,31,0.0112777,10,1.4968e-05,-4.22478,2.71051,0.0217671,0.0505339,0.251155,
2,1,0,1,0,59696.9,0.252994,0.252695,0.059529,31,0.0113784,10,1.50427e-05,-4.22527,1.38535,0.0425885,0.099138,0.252695,
2,1,0,1,0,59698.4,0.254492,0.254139,0.0598829,31,0.0114792,10,1.52186e-05,-4.2227,0.703095,0.0839147,0.196997,0.254139,
2,1,0,1,0,59699.9,0.25599,0.255621,0.0600735,31,0.0115804,10,1.5356e-05,-4.22132,0.596918,0.0988411,0.232373,0.255621,
2,1,0,1,0,59701.4,0.257488,0.257184,0.0599718,31,0.0116819,10,1.54238e-05,-4.22205,0.650264,0.0907323,0.213439,0.257184,
2,1,0,1,0,59702.9,0.258987,0.258662,0.0606353,31,0.0117839,10,1.56841e-05,-4.21727,1.33219,0.0442879,0.104217,0.258662,
2,1,0,1,0,59704.4,0.260485,0.2602,0.0609328,31,0.011886,10,1.58547e-05,-4.21515,2.13945,0.0275772,0.0653665,0.2601997,
2,1,0,1,0,59705.9,0.261983,0.261624,0.0609883,31,0.0119881,10,1.5956e-05,-4.21475,1.08345,0.0544558,0.128989,0.261624,
2,1,0,1,0,59707.4,0.263481,0.263162,0.061123,31,0.0120909,10,1.60853e-05,-4.2138,0.551227,0.107034,0.254852,0.263162,
2,1,0,1,0,59708.9,0.264979,0.264673,0.0611929,31,0.0121939,10,1.61961e-05,-4.2133,1.21895,0.0484023,0.115568,0.264673,
2,1,0,1,0,59710.4,0.266477,0.266171,0.0610456,31,0.012297,10,1.62485e-05,-4.21435,-4.95572,-0.0119054,-0.0285676,0.266171,
2,1,0,1,0,59711.9,0.267976,0.267657,0.0612127,31,0.0124003,10,1.6384e-05,-4.21316,1.53489,0.0384392,0.0925047,0.267657,
2,1,0,1,0,59713.4,0.269474,0.269122,0.0615815,31,0.0125038,10,1.65729e-05,-4.21055,1.14781,0.0514024,0.123982,0.269122,
2,1,0,1,0,59714.9,0.270972,0.270652,0.0619337,31,0.0126077,10,1.67625e-05,-4.20807,0.696484,0.0847112,0.205043,0.270652,
2,1,0,1,0,59716.4,0.27247,0.272163,0.0625715,31,0.0127118,10,1.70296e-05,-4.20362,0.851537,0.0692865,0.168108,0.272163,
2,1,0,1,0,59717.9,0.273968,0.27362,0.062574,31,0.0128165,10,1.71215e-05,-4.20361,0.366587,0.160944,0.391822,0.27362,
2,1,0,1,0,59719.4,0.275467,0.275128,0.0628164,31,0.0129216,10,1.72825e-05,-4.20193,2.54114,0.023218,0.0569288,0.275128,
2,1,0,1,0,59720.9,0.276965,0.27663,0.0633241,31,0.013027,10,1.75173e-05,-4.19843,1.54845,0.0381026,0.093471,0.27663,
2,1,0,1,0,59722.4,0.278463,0.278136,0.0629148,31,0.0131326,10,1.74989e-05,-4.20125,2.46448,0.0239402,0.0587836,0.278136,
2,1,0,1,0,59723.9,0.279961,0.279632,0.062924,31,0.0132379,10,1.75955e-05,-4.20118,2.03479,0.0289957,0.0714492,0.279632,
2,1,0,1,0,59725.4,0.281459,0.281098,0.0631146,31,0.0133432,10,1.77414e-05,-4.19987,1.09858,0.0537055,0.132233,0.2810981,
2,1,0,1,0,59726.9,0.282958,0.282648,0.0633285,31,0.0134489,10,1.78997e-05,-4.1984,0.993476,0.0593874,0.146595,0.282648,
2,1,0,1,0,59728.4,0.284456,0.284113,0.0634147,31,0.0135548,10,1.80169e-05,-4.19781,7.67817,0.00768413,0.0190342,0.284113,
2,1,0,1,0,59729.9,0.285954,0.285632,0.0638299,31,0.0136611,10,1.82319e-05,-4.19498,1.08404,0.0544263,0.135273,0.285632,
2,1,0,1,0,59731.4,0.287452,0.28712,0.0639397,31,0.0137671,10,1.83584e-05,-4.19423,0.644423,0.0915548,0.227845,0.28712,
2,1,0,1,0,59732.9,0.28895,0.288586,0.0642719,31,0.0138741,10,1.85479e-05,-4.19198,0.555651,0.106182,0.265465,0.288586,
2,1,0,1,0,59734.4,0.290448,0.290127,0.0641696,31,0.0139812,10,1.86174e-05,-4.19267,-10.9655,-0.00538051,-0.01349,0.290127,
2,1,0,1,0,59735.9,0.291947,0.29158,0.0642394,31,0.0140882,10,1.87309e-05,-4.1922,-16.321,-0.00361498,-0.00909649,0.29158,
2,1,0,1,0,59737.4,0.293445,0.293133,0.0641967,31,0.0141953,10,1.88182e-05,-4.19249,2.14591,0.0274942,0.0691543,0.2931326,
2,1,0,1,0,59738.9,0.294943,0.294597,0.0645298,31,0.0143024,10,1.90103e-05,-4.19024,-19.8155,-0.00297746,-0.00749028,0.294597,
2,1,0,1,0,59740.4,0.296441,0.29607,0.0648639,31,0.0144099,10,1.92043e-05,-4.188,0.994824,0.059307,0.149469,0.29607,
2,1,0,1,0,59741.9,0.297939,0.29765,0.0646303,31,0.0145174,10,1.92372e-05,-4.18956,2.03181,0.0290381,0.0735358,0.29765,
2,1,0,1,0,59743.4,0.299438,0.299109,0.0647921,31,0.0146252,10,1.93799e-05,-4.18848,-0.00410107,-14.3865,-22.9432,0.299109,
2,1,0,1,0,59744.2,0.299737,0.299398,0.0319049,31,0.0146742,10,9.55225e-06,-4.49614,0.00199311,29.602,40.604,0.299398,
2,1,0,1,0,59745.7,0.298239,0.297929,0.0182506,31,0.0146976,10,5.43738e-06,-4.73872,0.00503916,11.7083,14.4095,0.297929,
2,1,0,1,0,59747.2,0.296741,0.296445,0.0133184,31,0.0147104,10,3.94817e-06,-4.87555,0.0111842,5.27532,2.8024,0.296445,
2,1,0,1,0,59748.7,0.295243,0.294934,0.0101405,31,0.014717,10,2.99078e-06,-4.99394,0.0124969,4.72119,1.92748,0.294934,
2,1,0,1,0,59750.2,0.293745,0.293413,0.00716393,31,0.0147192,10,2.10199e-06,-5.14485,0.0105961,5.5681,1.57841,0.293413,
2,1,0,1,0,59751.7,0.292246,0.291919,0.00560466,31,0.0147183,10,1.63611e-06,-5.25145,0.00848202,6.95589,1.38896,0.291919,
2,1,0,1,0,59753.2,0.290748,0.290425,0.00370894,31,0.0147143,10,1.07717e-06,-5.43075,0.00623888,9.45682,1.19674,0.290425,
2,1,0,1,0,59754.7,0.28925,0.288881,0.00191943,31,0.0147077,10,5.54487e-07,-5.71683,0.00235163,25.089,0.991413,0.288881,
2,1,0,1,0,59756.2,0.287752,0.287409,0.000299128,31,0.0146988,10,8.59719e-08,-6.52414,0.0229898,2.56636,0.886013,0.2874085,
2,0,0,1,0,59757.7,0.286254,0.285943,-0.000771336,31,0.014688,10,-2.20558e-07,-6.11276,-0.00690627,-8.54296,0.759755,0.285943,
2,0,0,1,0,59759.2,0.284755,0.284436,-0.0019562,31,0.0146751,10,-5.56413e-07,-5.70859,-0.00270202,-21.8355,0.960042,0.284436,
2,1,0,1,0,59760.7,0.283257,0.282935,-0.00320117,31,0.0146603,10,-9.05721e-07,-5.49469,-0.0086686,-6.80617,0.804355,0.282935,
2,1,0,1,0,59762.2,0.281759,0.281405,-0.00442813,31,0.0146437,10,-1.2461e-06,-5.35378,-0.0105531,-5.59078,0.89454,0.281405,
2,1,0,1,0,59763.7,0.280261,0.279952,-0.0055995,31,0.0146251,10,-1.56759e-06,-5.25185,-0.0151587,-3.89216,0.819928,0.279952,
2,0,0,1,0,59765.2,0.278763,0.278487,-0.00691386,31,0.0146051,10,-1.92542e-06,-5.16028,-0.0232688,-2.53559,0.662232,0.278487,
2,0,0,1,0,59766.7,0.277264,0.276913,-0.00805037,31,0.0145832,10,-2.22925e-06,-5.09418,-0.0251956,-2.34168,0.692856,0.276913,
2,0,0,1,0,59768.2,0.275766,0.275432,-0.00882715,31,0.01456,10,-2.43128e-06,-5.05418,-0.0443968,-1.32892,0.440255,0.275432,
2,1,0,1,0,59769.7,0.274268,0.273948,-0.00927451,31,0.0145356,10,-2.54073e-06,-5.03271,-0.0426517,-1.3833,0.511518,0.273948,
2,0,0,1,0,59771.2,0.27277,0.272427,-0.0102982,31,0.0145102,10,-2.80552e-06,-4.98724,-0.0464713,-1.2696,0.506738,0.272427,
2,0,0,1,0,59772.7,0.271272,0.270943,-0.0111775,31,0.0144833,10,-3.02846e-06,-4.95165,-0.0478152,-1.23392,0.534894,0.2709426,
2,0,0,1,0,59774.2,0.269774,0.269447,-0.012282,31,0.014455,10,-3.30934e-06,-4.91073,-0.0432833,-1.36311,0.620657,0.269447,
2,0,0,1,0,59775.7,0.268275,0.267923,-0.0127048,31,0.0144255,10,-3.4039e-06,-4.89603,-0.0548521,-1.07562,0.535023,0.267923,
2,0,0,1,0,59777.2,0.266777,0.26644,-0.0136491,31,0.014395,10,-3.63667e-06,-4.8649,-0.0620251,-0.951228,0.506041,0.26644,
2,0,0,1,0,59778.7,0.265279,0.264982,-0.0145342,31,0.0143631,10,-3.85129e-06,-4.83761,-0.077199,-0.764259,0.424291,0.264982,
2,0,0,1,0,59780.2,0.263781,0.263474,-0.0152873,31,0.0143298,10,-4.02781e-06,-4.81567,-0.0766419,-0.769814,0.444073,0.263474,
2,0,0,1,0,59781.7,0.262283,0.261935,-0.0155327,31,0.0142959,10,-4.06857e-06,-4.80875,-0.104804,-0.562957,0.345505,0.261935,
2,0,0,1,0,59783.2,0.260784,0.260456,-0.0160639,31,0.0142613,10,-4.18394e-06,-4.79415,-0.0939999,-0.62766,0.400152,0.260456,
2,0,0,1,0,59784.7,0.259286,0.258962,-0.0170751,31,0.0142255,10,-4.42179e-06,-4.76764,-0.0663702,-0.888954,0.591135,0.258962,
2,0,0,1,0,59786.2,0.257788,0.257418,-0.0179911,31,0.0141883,10,-4.63124e-06,-4.74494,-0.067213,-0.877807,0.607914,0.257418,
2,0,0,1,0,59787.7,0.25629,0.255941,-0.0183686,31,0.0141498,10,-4.70127e-06,-4.73592,-0.093658,-0.629952,0.452307,0.255941,
2,0,0,1,0,59789.2,0.254792,0.254452,-0.0191504,31,0.0141104,10,-4.87285e-06,-4.71782,-0.10383,-0.568235,0.428133,0.254452,
2,0,0,1,0,59790.6,0.253293,0.252935,-0.0202643,31,0.0140697,10,-5.12555e-06,-4.69327,-0.0923754,-0.638698,0.503134,0.252935,
2,0,0,1,0,59792.1,0.251795,0.251471,-0.0204249,31,0.0140278,10,-5.13629e-06,-4.68984,-0.119215,-0.494906,0.39856,0.2514714,
2,0,0,1,0,59793.6,0.250297,0.249972,-0.0214555,31,0.013985,10,-5.36327e-06,-4.66846,-0.162186,-0.363781,0.304759,0.249972,
2,0,0,1,0,59795.1,0.248799,0.248426,-0.0218855,31,0.0139413,10,-5.43693e-06,-4.65984,-0.128006,-0.460914,0.39548,0.2484259,
2,0,0,1,0,59796.6,0.247301,0.246956,-0.0223173,31,0.0138972,10,-5.5114e-06,-4.65136,-0.121665,-0.484936,0.425673,0.246956,
2,0,0,1,0,59798.1,0.245802,0.245474,-0.0228852,31,0.0138519,10,-5.61772e-06,-4.64044,-0.111528,-0.529016,0.47232,0.245474,
2,0,0,1,0,59799.6,0.244304,0.243969,-0.0236065,31,0.0138057,10,-5.75926e-06,-4.62697,-0.149217,-0.395396,0.361393,0.243969,
2,0,0,1,0,59801.1,0.242806,0.242491,-0.0242891,31,0.0137586,10,-5.88989e-06,-4.61459,-0.127069,-0.464315,0.43672,0.242491,
2,0,0,1,0,59802.6,0.241308,0.240997,-0.0244645,31,0.0137109,10,-5.89586e-06,-4.61146,-0.146169,-0.403643,0.39004,0.240997,
2,0,0,1,0,59804.1,0.23981,0.239492,-0.0251972,31,0.0136622,10,-6.03452e-06,-4.59865,-0.122901,-0.48006,0.465656,0.239492,
2,0,0,1,0,59805.6,0.238312,0.237941,-0.025581,31,0.0136127,10,-6.08677e-06,-4.59208,-0.173682,-0.339701,0.339573,0.237941,
2,0,0,1,0,59807.1,0.236813,0.236466,-0.0258475,31,0.0135623,10,-6.11206e-06,-4.58758,-0.182568,-0.323167,0.330773,0.236466,
2,0,0,1,0,59808.6,0.235315,0.235028,-0.0265454,31,0.0135116,10,-6.23889e-06,-4.57601,-0.167682,-0.351857,0.365035,0.235028,
2,0,0,1,0,59810.1,0.233817,0.23349,-0.0272525,31,0.0134597,10,-6.36318e-06,-4.56459,-0.148087,-0.398415,0.421543,0.23349,
2,0,0,1,0,59811.6,0.232319,0.231982,-0.0276845,31,0.0134071,10,-6.42232e-06,-4.55776,-0.221122,-0.266821,0.292093,0.2319822,
2,0,0,1,0,59813.1,0.230821,0.230513,-0.0281836,31,0.0133534,10,-6.4967e-06,-4.55,-0.333882,-0.176709,0.193841,0.230513,
2,0,0,1,0,59814.6,0.229322,0.228978,-0.0286761,31,0.0132989,10,-6.5662e-06,-4.54248,-0.186155,-0.316941,0.357777,0.228978,
2,0,0,1,0,59816.1,0.227824,0.227481,-0.0294527,31,0.0132437,10,-6.69993e-06,-4.53087,-0.296032,-0.199303,0.229685,0.227481,
2,0,0,1,0,59817.6,0.226326,0.225999,-0.0299928,31,0.0131875,10,-6.77835e-06,-4.52298,-0.259217,-0.227609,0.266862,0.225999,
2,0,0,1,0,59819.1,0.224828,0.224502,-0.0303232,31,0.0131307,10,-6.80762e-06,-4.51822,-0.238596,-0.24728,0.292468,0.224502,
2,0,0,1,0,59820.6,0.22333,0.22298,-0.0308423,31,0.0130731,10,-6.87723e-06,-4.51085,-0.169362,-0.348366,0.421671,0.22298,
2,0,0,1,0,59822.1,0.221831,0.221478,-0.0316133,31,0.0130148,10,-7.00165e-06,-4.50013,-0.149741,-0.394015,0.487187,0.221478,
2,0,0,1,0,59823.6,0.220333,0.220007,-0.0323738,31,0.0129551,10,-7.12246e-06,-4.48981,-0.147244,-0.400696,0.500651,0.220007,
2,0,0,1,0,59825.1,0.218835,0.218526,-0.03273,31,0.0128944,10,-7.15234e-06,-4.48505,-0.267967,-0.220176,0.281132,0.218526,
2,0,0,1,0,59826.6,0.217337,0.217034,-0.0333381,31,0.0128332,10,-7.23549e-06,-4.47706,-0.243963,-0.24184,0.313796,0.217034,
2,0,0,1,0,59828.1,0.215839,0.215476,-0.0336626,31,0.0127714,10,-7.25348e-06,-4.47285,-0.319668,-0.184567,0.242801,0.215476,
2,0,0,1,0,59829.6,0.21434,0.214032,-0.0338755,31,0.0127086,10,-7.25043e-06,-4.47011,-0.166274,-0.354835,0.47406,0.214032,
2,0,0,1,0,59831.1,0.212842,0.212487,-0.0344751,31,0.0126452,10,-7.3255e-06,-4.46249,-0.261094,-0.225972,0.308296,0.212487,
2,0,0,1,0,59832.6,0.211344,0.211023,-0.0351333,31,0.0125807,10,-7.41394e-06,-4.45428,-0.207459,-0.284394,0.390376,0.211023,
2,0,0,1,0,59834.1,0.209846,0.209538,-0.0357847,31,0.0125155,10,-7.49825e-06,-4.4463,-0.303849,-0.194175,0.271286,0.209538,
2,0,0,1,0,59835.6,0.208348,0.207973,-0.0363875,31,0.0124496,10,-7.5676e-06,-4.43905,-0.1859,-0.317375,0.451793,0.207973,
2,0,0,1,0,59837.1,0.20685,0.206505,-0.0375822,31,0.0123826,10,-7.76091e-06,-4.42502,-0.150116,-0.393028,0.571554,0.206505,
2,0,0,1,0,59838.6,0.205351,0.204959,-0.0380044,31,0.0123139,10,-7.78933e-06,-4.42017,-0.177429,-0.332528,0.484384,0.204959,
2,0,0,1,0,59840.1,0.203853,0.20354,-0.0379943,31,0.0122448,10,-7.73337e-06,-4.42028,-0.329361,-0.179135,0.269196,0.20354,
2,0,0,1,0,59841.6,0.202355,0.201993,-0.0386625,31,0.012175,10,-7.80954e-06,-4.41271,-0.228904,-0.257749,0.391834,0.201993,
2,0,0,1,0,59843.1,0.200857,0.200534,-0.0392481,31,0.0121042,10,-7.87057e-06,-4.40618,-0.279259,-0.211273,0.324741,0.200534,
2,0,0,1,0,59844.6,0.199359,0.199031,-0.0400479,31,0.0120323,10,-7.97078e-06,-4.39742,-0.403146,-0.146349,0.227343,0.199031,
2,0,0,1,0,59846.1,0.19786,0.197523,-0.040565,31,0.0119599,10,-8.01252e-06,-4.39185,-0.253945,-0.232334,0.368825,0.197523,
2,0,0,1,0,59847.6,0.196362,0.19602,-0.0407507,31,0.011887,10,-7.98794e-06,-4.38986,-0.268187,-0.219996,0.350076,0.19602,
2,0,0,1,0,59849.1,0.194864,0.194472,-0.0417893,31,0.0118127,10,-8.12686e-06,-4.37894,-0.22339,-0.264112,0.426123,0.194472,
2,0,0,1,0,59850.6,0.193366,0.192968,-0.0419642,31,0.0117375,10,-8.09773e-06,-4.37712,-0.258571,-0.228178,0.373086,0.192968,
2,0,0,1,0,59852.1,0.191868,0.191559,-0.0426348,31,0.0116616,10,-8.1671e-06,-4.37024,-0.295547,-0.19963,0.336126,0.191559,
2,0,0,1,0,59853.6,0.190369,0.190023,-0.0431422,31,0.0115848,10,-8.19801e-06,-4.3651,-0.214024,-0.27567,0.465411,0.190023,
2,0,0,1,0,59855.1,0.188871,0.188543,-0.0444484,31,0.0115069,10,-8.38042e-06,-4.35214,-0.213147,-0.276804,0.473722,0.188543,
2,0,0,1,0,59856.6,0.187373,0.187061,-0.0444763,31,0.011428,10,-8.31979e-06,-4.35187,-0.210553,-0.280214,0.486445,0.187061,
2,0,0,1,0,59858.1,0.185875,0.185535,-0.0449591,31,0.0113485,10,-8.3415e-06,-4.34718,-0.221967,-0.265805,0.46788,0.185535,
2,0,0,1,0,59859.6,0.184377,0.184044,-0.0457372,31,0.0112679,10,-8.41768e-06,-4.33973,-0.202783,-0.290952,0.519738,0.184044,
2,0,0,1,0,59861.1,0.182878,0.182565,-0.0468559,31,0.0111861,10,-8.55424e-06,-4.32924,-0.252126,-0.23401,0.424754,0.182565,
2,0,0,1,0,59862.6,0.18138,0.18106,-0.0473053,31,0.0111029,10,-8.56511e-06,-4.32509,-0.229109,-0.257519,0.475418,0.18106,
2,0,0,1,0,59864.1,0.179882,0.179549,-0.0480559,31,0.011019,10,-8.62841e-06,-4.31825,-0.348671,-0.169214,0.315329,0.179549,
2,0,0,1,0,59865.6,0.178384,0.178039,-0.0487296,31,0.0109338,10,-8.67578e-06,-4.31221,-0.191031,-0.30885,0.588098,0.178039,
2,0,0,1,0,59867.1,0.176886,0.176587,-0.0500614,31,0.0108475,10,-8.84016e-06,-4.3005,-0.220702,-0.267328,0.516722,0.176587,
2,0,0,1,0,59868.6,0.175388,0.175065,-0.0503985,31,0.0107597,10,-8.823e-06,-4.29758,-0.203272,-0.290252,0.571134,0.175065,
2,0,0,1,0,59870.1,0.173889,0.173559,-0.0512306,31,0.010671,10,-8.89154e-06,-4.29047,-0.216024,-0.273118,0.542657,0.1735591,
2,0,0,1,0,59871.6,0.172391,0.172085,-0.052026,31,0.0105807,10,-8.95289e-06,-4.28378,-0.186341,-0.316624,0.643211,0.172085,
2,0,0,1,0,59873,0.170893,0.170571,-0.0531791,31,0.0104892,10,-9.0708e-06,-4.27426,-0.222704,-0.264925,0.548458,0.170571,
2,0,0,1,0,59874.5,0.169395,0.169059,-0.054057,31,0.0103959,10,-9.13881e-06,-4.26715,-0.190358,-0.309942,0.648267,0.169059,
2,0,0,1,0,59876,0.167897,0.167544,-0.0549851,31,0.0103012,10,-9.21245e-06,-4.25975,-0.237519,-0.248401,0.533386,0.167544,
2,0,0,1,0,59877.5,0.166398,0.16606,-0.0556522,31,0.0102052,10,-9.2416e-06,-4.25452,-0.223902,-0.263508,0.577451,0.1660599,
2,0,0,1,0,59879,0.1649,0.164572,-0.0567551,31,0.010108,10,-9.3403e-06,-4.246,-0.170896,-0.345239,0.767323,0.164572,
2,0,0,1,0,59880.5,0.163402,0.163043,-0.0583352,31,0.0100087,10,-9.51115e-06,-4.23407,-0.147269,-0.400627,0.906647,0.163043,
2,0,0,1,0,59882,0.161904,0.161575,-0.0591761,31,0.00990745,10,-9.5614e-06,-4.22785,-0.158043,-0.373315,0.860649,0.161575,
2,0,0,1,0,59883.5,0.160406,0.160076,-0.0606627,31,0.00980443,10,-9.71064e-06,-4.21708,-0.160783,-0.366955,0.86694,0.160076,
2,0,0,1,0,59885,0.158907,0.15856,-0.0615165,31,0.00969978,10,-9.75404e-06,-4.21101,-0.153248,-0.384997,0.926399,0.15856,
2,0,0,1,0,59886.5,0.157409,0.157131,-0.0630946,31,0.00959292,10,-9.91413e-06,-4.20001,-0.13909,-0.424187,1.04616,0.157131,
2,0,0,1,0,59888,0.155911,0.155579,-0.064671,31,0.00948389,10,-1.00614e-05,-4.18929,-0.152669,-0.386456,0.975368,0.155579,
2,0,0,1,0,59889.5,0.154413,0.15406,-0.0658119,31,0.00937243,10,-1.0139e-05,-4.1817,-0.152348,-0.387272,0.995977,0.15406,
2,0,0,1,0,59891,0.152915,0.152568,-0.0676237,31,0.00925864,10,-1.03172e-05,-4.1699,-0.145036,-0.406796,1.07476,0.152568,
2,0,0,1,0,59892.5,0.151417,0.151061,-0.0694624,31,0.00914257,10,-1.04931e-05,-4.15825,-0.126969,-0.464682,1.26259,0.151061,
2,0,0,1,0,59894,0.149918,0.149559,-0.0715748,31,0.00902331,10,-1.07047e-05,-4.14524,-0.11499,-0.513086,1.43232,0.149559,
2,0,0,1,0,59895.5,0.14842,0.148042,-0.0738157,31,0.00890073,10,-1.09279e-05,-4.13185,-0.109947,-0.536622,1.54859,0.148042,
2,0,0,1,0,59897,0.146922,0.146541,-0.0760114,31,0.00877442,10,-1.11388e-05,-4.11912,-0.10445,-0.564864,1.68234,0.146541,
2,0,0,1,0,59898.5,0.145424,0.145096,-0.0790225,31,0.00864438,10,-1.14658e-05,-4.10225,-0.10246,-0.575833,1.77495,0.145096,
2,0,0,1,0,59900,0.143926,0.143618,-0.0813028,31,0.00851019,10,-1.16765e-05,-4.08989,-0.0895283,-0.65901,2.098,0.143618,
2,0,0,1,0,59901.5,0.142427,0.14209,-0.0846682,31,0.00837097,10,-1.20305e-05,-4.07228,-0.0908244,-0.649605,2.15401,0.14209,
2,0,0,1,0,59903,0.140929,0.140594,-0.0878979,31,0.00822717,10,-1.23579e-05,-4.05602,-0.0917858,-0.642801,2.2236,0.140594,
2,0,0,1,0,59904.5,0.139431,0.139103,-0.091285,31,0.00807827,10,-1.2698e-05,-4.0396,-0.0839755,-0.702585,2.51864,0.139103,
2,0,0,1,0,59906,0.137933,0.137571,-0.0959213,31,0.00792348,10,-1.3196e-05,-4.01809,-0.0790437,-0.746423,2.7865,0.137571,
2,0,0,1,0,59907.5,0.136435,0.136102,-0.100373,31,0.00776202,10,-1.36609e-05,-3.99838,-0.0773842,-0.76243,2.96184,0.1361023,
2,0,0,1,0,59909,0.134936,0.134558,-0.10451,31,0.00759393,10,-1.40627e-05,-3.98084,-0.0841294,-0.701301,2.84745,0.134558,
2,0,0,1,0,59910.5,0.133438,0.13308,-0.10834,31,0.00741967,10,-1.44179e-05,-3.96521,-0.0890952,-0.662213,2.80687,0.13308,
2,0,0,1,0,59912,0.13194,0.13161,-0.113052,31,0.00723892,10,-1.48788e-05,-3.94672,-0.0936399,-0.630073,2.77105,0.13161,
2,0,0,1,0,59913.5,0.130442,0.130076,-0.116653,31,0.00705177,10,-1.51738e-05,-3.9331,-0.109792,-0.537379,2.44656,0.130076,
2,0,0,1,0,59915,0.128944,0.128607,-0.120715,31,0.00685892,10,-1.55249e-05,-3.91824,-0.133351,-0.442441,2.07451,0.128607,
2,0,0,1,0,59916.5,0.127445,0.127121,-0.123919,31,0.0066609,10,-1.57526e-05,-3.90686,-0.131388,-0.449053,2.16448,0.127121,
2,0,0,1,0,59918,0.125947,0.125592,-0.127106,31,0.00645852,10,-1.59634e-05,-3.89583,-0.152515,-0.386848,1.90225,0.125592,
2,0,0,1,0,59919.5,0.124449,0.12406,-0.129239,31,0.00625157,10,-1.60334e-05,-3.88861,-0.171327,-0.344371,1.73321,0.12406,
2,0,0,1,0,59921,0.122951,0.122615,-0.132059,31,0.0060411,10,-1.61925e-05,-3.87923,-0.266131,-0.221696,1.13283,0.122615,
2,0,0,1,0,59922.5,0.121453,0.121111,-0.133179,31,0.00582793,10,-1.61295e-05,-3.87556,-0.332828,-0.177269,0.917572,0.121111,
2,0,0,1,0,59924,0.119955,0.119608,-0.133998,31,0.00561347,10,-1.60272e-05,-3.8729,-0.428591,-0.137661,0.719428,0.1196077,
2,0,0,1,0,59925.5,0.118456,0.118111,-0.134923,31,0.00539715,10,-1.59359e-05,-3.86992,-0.367583,-0.160508,0.844467,0.118111,
2,0,0,1,0,59927,0.116958,0.116629,-0.135954,31,0.00517914,10,-1.58562e-05,-3.86661,-0.900831,-0.0654951,0.345931,0.1166291,
2,0,0,1,0,59928.5,0.11546,0.115095,-0.136381,31,0.00496055,10,-1.56968e-05,-3.86524,-2.0228,-0.0291675,0.154793,0.115095,
2,0,0,1,0,59930,0.113962,0.113638,-0.1363,31,0.00474168,10,-1.54888e-05,-3.8655,-2.26224,-0.0260803,0.138554,0.113638,
2,0,0,1,0,59931.5,0.112464,0.112128,-0.136671,31,0.00452247,10,-1.53246e-05,-3.86432,-1.6652,-0.0354312,0.188898,0.112128,
2,0,0,1,0,59933,0.110965,0.110597,-0.137279,31,0.00430284,10,-1.51827e-05,-3.8624,-2.33214,-0.0252986,0.134819,0.110597,
2,0,0,1,0,59934.5,0.109467,0.10909,-0.136612,31,0.00408288,10,-1.4903e-05,-3.86451,2.00568,0.0294165,-0.156597,0.10909,
2,0,0,1,0,59936,0.107969,0.107656,-0.136786,31,0.00386321,10,-1.47258e-05,-3.86396,-2.34345,-0.0251765,0.134608,0.107656,
2,0,0,1,0,59937.5,0.106471,0.106118,-0.136089,31,0.00364392,10,-1.44415e-05,-3.86618,-6.57894,-0.00896801,0.0479684,0.106118,
2,0,0,1,0,59939,0.104973,0.104664,-0.136739,31,0.00342429,10,-1.43117e-05,-3.86411,2.30603,0.025585,-0.136154,0.104664,
2,0,0,1,0,59940.5,0.103474,0.103152,-0.136577,31,0.00320456,10,-1.40883e-05,-3.86462,1.37839,0.0428035,-0.227183,0.103152,
2,0,0,1,0,59942,0.101976,0.101648,-0.136435,31,0.00298557,10,-1.38683e-05,-3.86507,1.56949,0.0375919,-0.199777,0.101648,
2,0,0,1,0,59943.5,0.100478,0.100115,-0.135575,31,0.00276742,10,-1.35731e-05,-3.86782,2.1154,0.0278907,-0.14795,0.100115,
2,0,0,1,0,59945,0.0989798,0.0986488,-0.13561,31,0.00254926,10,-1.33778e-05,-3.86771,2.1731,0.0271501,-0.143274,0.0986488,
2,0,0,1,0,59946.5,0.0974816,0.0971556,-0.135248,31,0.00233147,10,-1.31401e-05,-3.86887,0.978373,0.0603042,-0.318494,0.0971556,
2,0,0,1,0,59948,0.0959834,0.0956149,-0.134633,31,0.00211444,10,-1.28729e-05,-3.87085,0.743858,0.0793162,-0.416222,0.0956149,
2,0,0,1,0,59949.5,0.0944852,0.0941558,-0.133576,31,0.00189868,10,-1.2577e-05,-3.87427,0.691496,0.0853223,-0.446832,0.0941558,
2,0,0,1,0,59951,0.0929871,0.0926469,-0.133225,31,0.00168359,10,-1.23429e-05,-3.87541,0.806099,0.073192,-0.38015,0.0926469,
2,0,0,1,0,59952.5,0.0914889,0.0911188,-0.132887,31,0.00146925,10,-1.21085e-05,-3.87652,0.48881,0.120701,-0.62369,0.0911188,
2,0,0,1,0,59954,0.0899907,0.0896501,-0.131882,31,0.00125636,10,-1.18233e-05,-3.87981,0.550003,0.107272,-0.552157,0.0896501,
2,0,0,1,0,59955.4,0.0884925,0.0881539,-0.130212,31,0.00104503,10,-1.14787e-05,-3.88535,0.644251,0.0915791,-0.468909,0.0881539,
2,0,0,1,0,59956.9,0.0869943,0.0866778,-0.130181,31,0.000834845,10,-1.12838e-05,-3.88545,0.630255,0.0936129,-0.476149,0.0866778,
2,0,0,1,0,59958.4,0.0854961,0.0851678,-0.129307,31,0.000625518,10,-1.10128e-05,-3.88838,0.522882,0.112836,-0.568826,0.0851678,
2,0,0,1,0,59959.9,0.083998,0.08366,-0.12824,31,0.000417688,10,-1.07286e-05,-3.89198,0.408957,0.14427,-0.723077,0.08366,
2,0,0,1,0,59961.4,0.0824998,0.0821521,-0.127705,31,0.000211045,10,-1.04912e-05,-3.89379,0.604614,0.097583,-0.487298,0.0821521,
2,0,0,1,0,59962.9,0.0810016,0.0806548,-0.127079,31,5.89876e-06,10,-1.02495e-05,-3.89593,0.86873,0.0679152,-0.337746,0.0806548,
2,0,0,1,0,59964.4,0.0795034,0.0791352,-0.126581,31,-0.000198827,10,-1.0017e-05,-3.89763,0.745479,0.0791438,-0.390431,0.0791352,
2,0,0,1,0,59965.9,0.0780052,0.077657,-0.126074,31,-0.00040259,10,-9.79052e-06,-3.89937,0.564445,0.104527,-0.5137,0.077657,
2,0,0,1,0,59967.4,0.076507,0.0761576,-0.125242,31,-0.000605307,10,-9.53816e-06,-3.90225,0.65542,0.0900186,-0.439741,0.0761576,
2,0,0,1,0,59968.9,0.0750088,0.0746624,-0.124907,31,-0.000806634,10,-9.32585e-06,-3.90341,0.69068,0.085423,-0.414932,0.0746624,
2,0,0,1,0,59970.4,0.0735106,0.0731714,-0.124358,31,-0.00100742,10,-9.09945e-06,-3.90533,0.708613,0.0832613,-0.401399,0.0731714,
2,0,0,1,0,59971.9,0.0720124,0.0716572,-0.123087,31,-0.00120712,10,-8.82007e-06,-3.90979,0.587184,0.10048,-0.483017,0.0716572,
2,0,0,1,0,59973.4,0.0705142,0.0701959,-0.122093,31,-0.00140539,10,-8.57043e-06,-3.91331,0.62493,0.0944105,-0.451632,0.0701959,
2,0,0,1,0,59974.9,0.069016,0.0686679,-0.1212,31,-0.00160242,10,-8.32254e-06,-3.9165,0.848941,0.0694984,-0.330289,0.0686679,
2,0,0,1,0,59976.4,0.0675178,0.0671462,-0.1209,31,-0.0017988,10,-8.11796e-06,-3.91757,1.1698,0.0504362,-0.238198,0.06714619,
2,0,0,1,0,59977.9,0.0660196,0.0656489,-0.120917,31,-0.00199445,10,-7.93808e-06,-3.91751,0.497109,0.118686,-0.557672,0.0656489,
2,0,0,1,0,59979.4,0.0645214,0.064159,-0.11996,31,-0.00218918,10,-7.69652e-06,-3.92096,0.481234,0.122602,-0.572065,0.064159,
2,0,0,1,0,59980.9,0.0630233,0.0626353,-0.118392,31,-0.00238215,10,-7.41551e-06,-3.92668,0.643607,0.0916709,-0.425807,0.0626353,
2,0,0,1,0,59982.4,0.0615251,0.0611761,-0.118285,31,-0.00257417,10,-7.23624e-06,-3.92707,0.906534,0.0650831,-0.301399,0.0611761,
2,0,0,1,0,59983.9,0.0600269,0.0597053,-0.117496,31,-0.00276547,10,-7.01514e-06,-3.92998,0.629581,0.0937131,-0.43087,0.0597053,
2,0,0,1,0,59985.4,0.0585287,0.0581158,-0.11735,31,-0.00295591,10,-6.8199e-06,-3.93052,0.450113,0.131078,-0.598306,0.0581158,
2,0,0,1,0,59986.9,0.0570305,0.0567023,-0.116511,31,-0.00314554,10,-6.60644e-06,-3.93363,0.741225,0.079598,-0.361775,0.0567023,
2,0,0,1,0,59988.4,0.0555323,0.0551986,-0.116058,31,-0.00333377,10,-6.40625e-06,-3.93532,0.753305,0.0783215,-0.355282,0.0551986,
2,0,0,1,0,59989.9,0.0540342,0.053695,-0.115883,31,-0.00352144,10,-6.22235e-06,-3.93598,0.947293,0.0622827,-0.28084,0.053695,
2,0,0,1,0,59991.4,0.052536,0.052203,-0.115442,31,-0.00370881,10,-6.02643e-06,-3.93764,0.882639,0.066845,-0.300163,0.052203,
2,0,0,1,0,59992.9,0.0510378,0.0506792,-0.114639,31,-0.00389536,10,-5.80983e-06,-3.94067,0.667923,0.0883335,-0.394651,0.0506792,
2,0,0,1,0,59994.4,0.0495396,0.0491809,-0.11382,31,-0.0040804,10,-5.59776e-06,-3.94378,0.674926,0.087417,-0.388897,0.0491809,
2,0,0,1,0,59995.9,0.0480414,0.0477196,-0.113297,31,-0.00426519,10,-5.40651e-06,-3.94578,1.76142,0.0334956,-0.147713,0.04771962,
2,0,0,1,0,59997.4,0.0465432,0.0461862,-0.113124,31,-0.00444909,10,-5.22478e-06,-3.94644,0.744441,0.0792541,-0.350213,0.0461862,
2,0,0,1,0,59998.9,0.045045,0.0446953,-0.112403,31,-0.00463207,10,-5.0239e-06,-3.94922,0.746711,0.0790132,-0.347011,0.0446953,
2,0,0,1,0,60000.4,0.0435468,0.0431948,-0.111417,31,-0.00481417,10,-4.81263e-06,-3.95305,0.636523,0.0926911,-0.404034,0.0431948,
2,0,0,1,0,60001.9,0.0420486,0.0416954,-0.111165,31,-0.00499534,10,-4.63509e-06,-3.95403,0.835047,0.0706547,-0.306897,0.0416954,
2,0,0,1,0,60003.4,0.0405504,0.0401907,-0.111035,31,-0.0051759,10,-4.46256e-06,-3.95454,0.792798,0.07442,-0.32105,0.0401907,
2,0,0,1,0,60004.9,0.0390522,0.0387124,-0.11066,31,-0.00535602,10,-4.28391e-06,-3.95601,0.613591,0.0961553,-0.413392,0.0387124,
2,0,0,1,0,60006.4,0.037554,0.0371738,-0.109361,31,-0.00553512,10,-4.06538e-06,-3.96114,0.672981,0.0876696,-0.376102,0.0371738,
2,0,0,1,0,60007.9,0.0360558,0.0356998,-0.109266,31,-0.0057131,10,-3.90078e-06,-3.96151,0.82734,0.0713129,-0.305345,0.0356998,
2,0,0,1,0,60009.4,0.0345576,0.0342481,-0.108797,31,-0.00589039,10,-3.72608e-06,-3.96338,0.82601,0.0714277,-0.303464,0.03424814,
2,0,0,1,0,60010.9,0.0330594,0.032737,-0.1085,31,-0.00606717,10,-3.55196e-06,-3.96457,0.771633,0.0764613,-0.323266,0.032737,
2,0,0,1,0,60012.4,0.0315613,0.031208,-0.108331,31,-0.00624327,10,-3.38078e-06,-3.96525,0.953066,0.0619054,-0.260741,0.03120801,
2,0,0,1,0,60013.9,0.0300631,0.0296906,-0.107606,31,-0.00641836,10,-3.19488e-06,-3.96816,1.18901,0.049621,-0.20836,0.0296906,
2,0,0,1,0,60015.4,0.0285649,0.0282314,-0.107199,31,-0.00659345,10,-3.02639e-06,-3.96981,1.89581,0.0311212,-0.129753,0.0282314,
2,0,0,1,0,60016.9,0.0270667,0.0267267,-0.107131,31,-0.00676795,10,-2.86327e-06,-3.97008,0.85321,0.0691506,-0.288427,0.0267267,
2,0,0,1,0,60018.4,0.0255685,0.0252379,-0.106809,31,-0.00694195,10,-2.69563e-06,-3.97139,0.809081,0.0729223,-0.303742,0.0252379,
2,0,0,1,0,60019.9,0.0240703,0.0237364,-0.105948,31,-0.00711482,10,-2.51482e-06,-3.97491,2.41689,0.0244115,-0.10144,0.0237364,
2,0,0,1,0,60021.4,0.0225722,0.0222561,-0.105589,31,-0.00728752,10,-2.35001e-06,-3.97638,-4.8729,-0.0121078,0.0500584,0.0222561,
2,0,0,1,0,60022.9,0.021074,0.0207365,-0.105933,31,-0.00746021,10,-2.19668e-06,-3.97497,18.3187,0.00322076,-0.0133614,0.0207365,
2,0,0,1,0,60024.4,0.0195758,0.0192085,-0.105954,31,-0.00763301,10,-2.03522e-06,-3.97488,3.09446,0.0190663,-0.0787433,0.0192085,
2,0,0,1,0,60025.9,0.0180776,0.0177833,-0.105747,31,-0.0078055,10,-1.88052e-06,-3.97573,5.0549,0.0116718,-0.0483107,0.0177833,
2,0,0,1,0,60027.4,0.0165794,0.0162563,-0.105779,31,-0.00797777,10,-1.71958e-06,-3.9756,1.50071,0.0393147,-0.16253,0.0162563,
2,0,0,1,0,60028.9,0.0150812,0.014724,-0.106222,31,-0.00815029,10,-1.56401e-06,-3.97379,15.4408,0.00382106,-0.0158149,0.014724,
2,0,0,1,0,60030.4,0.013583,0.0132415,-0.10604,31,-0.0083229,10,-1.40414e-06,-3.97453,22.3576,0.00263893,-0.0109046,0.0132415,
2,0,0,1,0,60031.9,0.0120848,0.0117484,-0.10574,31,-0.00849535,10,-1.24228e-06,-3.97576,-3.28987,-0.0179338,0.0745597,0.0117484,
2,0,0,1,0,60033.4,0.0105866,0.0102427,-0.106116,31,-0.00866782,10,-1.08691e-06,-3.97422,-1.04763,-0.0563173,0.234159,0.0102427,
2,0,0,1,0,60034.9,0.00908843,0.00873156,-0.106836,31,-0.00884113,10,-9.32841e-07,-3.97128,-1.161,-0.0508181,0.211782,0.00873156,
2,0,0,1,0,60036.4,0.00759024,0.00719395,-0.106823,31,-0.00901478,10,-7.6848e-07,-3.97134,-2.53501,-0.0232741,0.0972163,0.00719395,
2,0,0,1,0,60037.9,0.00609203,0.00572423,-0.107688,31,-0.00918882,10,-6.1643e-07,-3.96783,-1.19286,-0.0494611,0.207305,0.00572423,
2,0,0,1,0,60039.3,0.00459384,0.0042832,-0.107938,31,-0.00936327,10,-4.6232e-07,-3.96683,-0.486536,-0.121265,0.510416,0.0042832,
2,0,0,1,0,60040.8,0.00309563,0.00274767,-0.108808,31,-0.00953891,10,-2.98967e-07,-3.96334,-0.466542,-0.126462,0.536782,0.00274767,
2,0,0,1,0,60042.3,0.00159744,0.0011814,-0.110094,31,-0.00971796,10,-1.30065e-07,-3.95824, , , ,0.0011814,
2,0,0,1,0,60043.7,0.000199235,-0.000164923,-0.110133,31,-0.00988446,10,1.81635e-08,-3.95808, , , ,-0.000164923,