File: Figure_codes/Fig_3-5/rawdata_trumpetplot_data/after 10th/20221101_1-115_003_TrumpetPlot_ParaChange_from10_every3_10_CV_C01_11.csv
mode,ox/red,error,control changes,counter inc.,time/s,control/V,Ewe/V,<I>/mA,cycle number,(Q-Qo)/C,I Range,P/W,log(|I|),Tafel slope mV/dec,alpha_eff,dI/d(E-IR),E-IR/V,
2,1,0,0,0,22862,-2.44065e-05,-0.000363498,5.33423,12,0.0000000E+000,10,-1.93898e-06,-2.27293, , , ,-0.000363498,
2,1,0,1,0,22862,0.00179726,0.0014156,6.26996,12,5.16263e-05,10,8.87575e-06,-2.20274, , , ,0.0014156,
2,1,0,1,0,22862,0.00379485,0.00346987,6.98529,12,0.000118337,10,2.4238e-05,-2.15582,0.0523503,1.12702,301.991,0.00346987,
2,1,0,1,0,22862,0.00579244,0.00548358,7.49846,12,0.000190918,10,4.11184e-05,-2.12503,0.0730535,0.807627,234.617,0.00548358,
2,1,0,1,0,22862,0.00779002,0.00746071,7.9216,12,0.000268177,10,5.91008e-05,-2.10119,0.0905808,0.651352,200.497,0.00746071,
2,1,0,1,0,22862,0.00977853,0.0094283,8.28936,12,0.000348526,10,7.81545e-05,-2.08148,0.11379,0.5185,166.919,0.0094283,
2,1,0,1,0,22862,0.0117761,0.0114351,8.585,12,0.000433018,10,9.817e-05,-2.06626,0.140303,0.420519,140.617,0.0114351,
2,1,0,1,0,22862,0.0137737,0.0134384,8.85325,12,0.000520243,10,0.000118973,-2.0529,0.1636,0.360635,124.284,0.0134384,
2,1,0,1,0,22862,0.0157713,0.0154226,9.08058,12,0.000609992,10,0.000140046,-2.04189,0.18659,0.316202,112.009,0.0154226,
2,1,0,1,0,22862,0.017778,0.0174597,9.30367,12,0.000701967,10,0.000162439,-2.03135,0.213461,0.276398,100.09,0.0174597,
2,1,0,1,0,22862.1,0.0197755,0.0194118,9.47987,12,0.000795904,10,0.000184022,-2.0232,0.242389,0.24341,90.0908,0.01941183,
2,1,0,1,0,22862.1,0.0217731,0.0214819,9.66604,12,0.000891609,10,0.000207645,-2.01475,0.272483,0.216527,81.4917,0.0214819,
2,1,0,1,0,22862.1,0.0237707,0.0234523,9.80913,12,0.000989036,10,0.000230046,-2.00837,0.29383,0.200797,76.9358,0.0234523,
2,1,0,1,0,22862.1,0.0257774,0.0254443,9.97088,12,0.00108792,10,0.000253702,-2.00127,0.307259,0.19202,74.6231,0.0254443,
2,1,0,1,0,22862.1,0.027775,0.0274563,10.1079,12,0.00118839,10,0.000277526,-1.99534,0.33132,0.178076,70.2874,0.0274563,
2,1,0,1,0,22862.1,0.0297726,0.0295272,10.2579,12,0.00129024,10,0.000302886,-1.98894,0.34961,0.168759,67.4572,0.0295272,
2,1,0,1,0,22862.1,0.0317701,0.0314577,10.3778,12,0.00139349,10,0.000326463,-1.98389,0.335189,0.17602,71.4242,0.0314577,
2,1,0,1,0,22862.1,0.0337586,0.0334481,10.5379,12,0.00149702,10,0.000352473,-1.97725,0.334066,0.176612,72.5224,0.0334481,
2,1,0,1,0,22862.1,0.0357562,0.0354451,10.667,12,0.00160307,10,0.000378094,-1.97196,0.373501,0.157965,65.7666,0.0354451,
2,1,0,1,0,22862.1,0.0377538,0.0374191,10.7991,12,0.00171038,10,0.000404091,-1.96661,0.374776,0.157427,66.3446,0.0374191,
2,1,0,1,0,22862.2,0.0397514,0.0394232,10.9309,12,0.00181904,10,0.000430933,-1.96134,0.349568,0.16878,72.0741,0.03942322,
2,1,0,1,0,22862.2,0.0417399,0.0414013,11.0861,12,0.00192798,10,0.000458978,-1.95522,0.353951,0.16669,72.0348,0.0414013,
2,1,0,1,0,22862.2,0.0437375,0.0433872,11.2165,12,0.00203952,10,0.000486653,-1.95014,0.397544,0.148411,64.9606,0.0433872,
2,1,0,1,0,22862.2,0.0457351,0.0454018,11.346,12,0.0021523,10,0.000515127,-1.94516,0.388587,0.151832,67.2582,0.0454018,
2,1,0,1,0,22862.2,0.0477327,0.0473904,11.4857,12,0.00226654,10,0.000544313,-1.93984,0.344835,0.171097,76.7865,0.0473904,
2,1,0,1,0,22862.2,0.0497393,0.0494197,11.6545,12,0.00238217,10,0.000575961,-1.93351,0.369188,0.15981,72.54,0.0494197,
2,1,0,1,0,22862.2,0.0517369,0.0514065,11.7771,12,0.00249931,10,0.000605418,-1.92896,0.388961,0.151686,69.8117,0.0514065,
2,1,0,1,0,22862.2,0.0537345,0.0533994,11.9323,12,0.00261785,10,0.000637178,-1.92328,0.371994,0.158605,73.8171,0.0533994,
2,1,0,1,0,22862.2,0.0557321,0.0554452,12.0752,12,0.00273794,10,0.000669512,-1.91811,0.381504,0.154651,72.8978,0.05544522,
2,1,0,1,0,22862.2,0.0577297,0.0574147,12.225,12,0.00285943,10,0.000701895,-1.91275,0.371126,0.158976,75.8451,0.0574147,
2,1,0,1,0,22862.3,0.0597364,0.0593998,12.3751,12,0.00298259,10,0.00073508,-1.90745,0.369506,0.159673,77.14,0.0593998,
2,1,0,1,0,22862.3,0.0617339,0.0614239,12.5343,12,0.00310714,10,0.000769904,-1.9019,0.391396,0.150743,73.6652,0.0614239,
2,1,0,1,0,22862.3,0.0637315,0.0633942,12.6694,12,0.00323321,10,0.000803165,-1.89724,0.397511,0.148424,73.4442,0.0633942,
2,1,0,1,0,22862.3,0.0657291,0.0653845,12.8252,12,0.00336068,10,0.000838567,-1.89194,0.377953,0.156104,78.1199,0.0653845,
2,1,0,1,0,22862.3,0.0677176,0.0673384,12.9775,12,0.0034885,10,0.000873884,-1.88681,0.412225,0.143126,72.4433,0.0673384,
2,1,0,1,0,22862.3,0.0697152,0.0693792,13.1146,12,0.00361897,10,0.000909877,-1.88225,0.417099,0.141453,72.4388,0.0693792,
2,1,0,1,0,22862.3,0.0717128,0.071338,13.2672,12,0.0037509,10,0.000946457,-1.87722,0.395379,0.149224,77.2774,0.071338,
2,1,0,1,0,22862.3,0.0737104,0.0734018,13.4254,12,0.00388437,10,0.00098545,-1.87207,0.404019,0.146033,76.4889,0.0734018,
2,1,0,1,0,22862.3,0.0756989,0.0753741,13.5759,12,0.0040181,10,0.00102327,-1.86723,0.411468,0.143389,75.9616,0.0753741,
2,1,0,1,0,22862.3,0.0776965,0.077334,13.7241,12,0.00415458,10,0.00106134,-1.86252,0.442685,0.133278,71.3542,0.077334,
2,1,0,1,0,22862.4,0.0796941,0.0793764,13.8615,12,0.00429255,10,0.00110028,-1.85819,0.459134,0.128503,69.5298,0.0793764,
2,1,0,1,0,22862.4,0.0816916,0.0813771,14.0052,12,0.00443188,10,0.0011397,-1.85371,0.457867,0.128858,70.4144,0.0813771,
2,1,0,1,0,22862.4,0.0836983,0.0833752,14.1431,12,0.00457267,10,0.00117918,-1.84946,0.473162,0.124693,68.8192,0.0833752,
2,1,0,1,0,22862.4,0.0856959,0.0853585,14.2792,12,0.00471478,10,0.00121885,-1.8453,0.493735,0.119497,66.5798,0.0853585,
2,1,0,1,0,22862.4,0.0876935,0.0873948,14.4107,12,0.00485828,10,0.00125942,-1.84131,0.516685,0.114189,64.2065,0.0873948,
2,1,0,1,0,22862.4,0.0896911,0.0893669,14.5366,12,0.00500299,10,0.00129909,-1.83754,0.504948,0.116844,66.306,0.0893669,
2,1,0,1,0,22862.4,0.0916978,0.091325,14.6713,12,0.00514908,10,0.00133986,-1.83353,0.503808,0.117108,67.049,0.091325,
2,1,0,1,0,22862.4,0.0936953,0.09337,14.805,12,0.00529643,10,0.00138234,-1.82959,0.567499,0.103965,60.0233,0.09337,
2,1,0,1,0,22862.4,0.0956929,0.0954054,14.9162,12,0.00544507,10,0.00142309,-1.82634,0.563259,0.104748,61.0208,0.0954054,
2,1,0,1,0,22862.4,0.0976905,0.0973775,15.0495,12,0.0055949,10,0.00146548,-1.82248,0.504093,0.117042,68.7476,0.0973775,
2,1,0,1,0,22862.5,0.099679,0.0993248,15.1857,12,0.00574458,10,0.00150831,-1.81857,0.516415,0.114249,67.6942,0.0993248,
2,1,0,1,0,22862.5,0.101677,0.101308,15.3156,12,0.00589712,10,0.0015516,-1.81487,0.522608,0.112895,67.504,0.101308,
2,1,0,1,0,22862.5,0.103674,0.103348,15.4573,12,0.00605098,10,0.00159748,-1.81087,0.48385,0.121939,73.5865,0.103348,
2,1,0,1,0,22862.5,0.105672,0.105326,15.6113,12,0.00620627,10,0.00164428,-1.80656,0.464373,0.127053,77.4127,0.105326,
2,1,0,1,0,22862.5,0.107656,0.107363,15.7681,12,0.00636161,10,0.0016929,-1.80222,0.442498,0.133334,82.0945,0.107363,
2,1,0,1,0,22862.5,0.109658,0.109364,15.9428,12,0.00652012,10,0.00174357,-1.79744,0.41524,0.142086,88.4158,0.109364,
2,1,0,1,0,22862.5,0.111655,0.111371,16.1225,12,0.00668047,10,0.00179557,-1.79257,0.389736,0.151385,95.2993,0.111371,
2,1,0,1,0,22862.5,0.113653,0.113316,16.3194,12,0.00684262,10,0.00184925,-1.7873,0.382628,0.154197,98.1914,0.113316,
2,1,0,1,0,22862.5,0.115651,0.115345,16.5126,12,0.00700679,10,0.00190464,-1.78218,0.353078,0.167102,107.824,0.115345,
2,1,0,1,0,22862.5,0.117657,0.11731,16.75,12,0.00717313,10,0.00196494,-1.77598,0.337437,0.174848,114.226,0.11731,
2,1,0,1,0,22862.6,0.119655,0.119336,16.9685,12,0.0073418,10,0.00202495,-1.77036,0.345125,0.170952,113.253,0.119336,
2,1,0,1,0,22862.6,0.121652,0.121301,17.202,12,0.00751265,10,0.00208662,-1.76442,0.339743,0.173661,116.569,0.121301,
2,1,0,1,0,22862.6,0.12365,0.123318,17.4327,12,0.0076859,10,0.00214977,-1.75863,0.32969,0.178956,121.853,0.123318,
2,1,0,1,0,22862.6,0.125657,0.125345,17.6948,12,0.00786164,10,0.00221795,-1.75216,0.338654,0.174219,120.166,0.125345,
2,1,0,1,0,22862.6,0.127654,0.127343,17.9164,12,0.00803976,10,0.00228152,-1.74675,0.349135,0.168989,118.243,0.127343,
2,1,0,1,0,22862.6,0.129652,0.129321,18.1649,12,0.00822019,10,0.00234911,-1.74077,0.351416,0.167892,118.936,0.129321,
2,1,0,1,0,22862.6,0.131649,0.131319,18.3893,12,0.00840303,10,0.00241486,-1.73544,0.369506,0.159673,114.624,0.131319,
2,1,0,1,0,22862.6,0.133638,0.133338,18.6254,12,0.00858632,10,0.00248348,-1.72989,0.387039,0.15244,110.705,0.133338,
2,1,0,1,0,22862.6,0.135636,0.135289,18.8288,12,0.00877363,10,0.00254734,-1.72518,0.411672,0.143318,105.341,0.135289,
2,1,0,1,0,22862.6,0.137633,0.137305,19.0433,12,0.008963,10,0.00261475,-1.72026,0.446364,0.132179,98.1504,0.137305,
2,1,0,1,0,22862.7,0.139631,0.139337,19.2261,12,0.00915441,10,0.00267892,-1.71611,0.47433,0.124386,93.3414,0.139337,
2,1,0,1,0,22862.7,0.141619,0.14128,19.4143,12,0.00934567,10,0.00274285,-1.71188,0.490145,0.120373,91.1653,0.14128,
2,1,0,1,0,22862.7,0.143617,0.143298,19.5872,12,0.00954075,10,0.00280681,-1.70803,0.548116,0.107641,82.2532,0.143298,
2,1,0,1,0,22862.7,0.145614,0.145317,19.7464,12,0.0097374,10,0.00286948,-1.70451,0.629114,0.0937828,72.2187,0.145317,
2,1,0,1,0,22862.7,0.147612,0.147307,19.8767,12,0.00993555,10,0.00292799,-1.70165,0.666136,0.0885704,68.7304,0.147307,
2,1,0,1,0,22862.7,0.149619,0.149322,20.0216,12,0.010135,10,0.00298966,-1.6985,0.807628,0.0730534,56.9953,0.149322,
2,1,0,1,0,22862.7,0.151616,0.151325,20.1057,12,0.0103357,10,0.00304251,-1.69668,1.20935,0.0487865,38.2648,0.151325,
2,1,0,1,0,22862.7,0.153614,0.153279,20.173,12,0.010537,10,0.0030921,-1.69523,1.73609,0.0339844,26.7368,0.153279,
2,1,0,1,0,22862.7,0.155611,0.155305,20.2122,12,0.010739,10,0.00313905,-1.69439,3.71675,0.0158741,12.513,0.155305,
2,1,0,1,0,22862.7,0.157618,0.157286,20.2232,12,0.0109412,10,0.00318083,-1.69415,-2.52146,-0.0233991,-18.4241,0.157286,
2,1,0,1,0,22862.8,0.159616,0.15929,20.1387,12,0.0111431,10,0.00320789,-1.69597,-0.970091,-0.060819,-47.7715,0.15929,
2,1,0,1,0,22862.8,0.161613,0.161332,20.0299,12,0.0113439,10,0.00323147,-1.69832,-0.600677,-0.0982226,-76.6081,0.161332,
2,1,0,1,0,22862.8,0.163611,0.163298,19.8317,12,0.0115433,10,0.00323847,-1.70264,-0.400968,-0.147144,-113.721,0.1632981,
2,1,0,1,0,22862.8,0.165618,0.165305,19.5781,12,0.0117403,10,0.00323636,-1.70823,-0.30543,-0.19317,-147.276,0.165305,
2,1,0,1,0,22862.8,0.167597,0.167298,19.2426,12,0.0119325,10,0.00321924,-1.71574,-0.238761,-0.247109,-185.249,0.167298,
2,1,0,1,0,22862.8,0.169595,0.169265,18.8444,12,0.0121229,10,0.00318971,-1.72482,-0.194901,-0.302717,-222.017,0.169265,
2,1,0,1,0,22862.8,0.171592,0.171321,18.3495,12,0.0123088,10,0.00314365,-1.73638,-0.162693,-0.362647,-259.335,0.171321,
2,1,0,1,0,22862.8,0.173572,0.173244,17.8126,12,0.0124878,10,0.00308593,-1.74927,-0.142845,-0.413034,-286.64,0.173244,
2,1,0,1,0,22862.8,0.175578,0.175237,17.2268,12,0.012663,10,0.00301878,-1.76379,-0.133466,-0.44206,-296.893,0.175237,
2,1,0,1,0,22862.8,0.177576,0.177264,16.6192,12,0.0128322,10,0.00294598,-1.77939,-0.123379,-0.478201,-309.698,0.177264,
2,1,0,1,0,22862.9,0.179573,0.17927,15.9779,12,0.0129951,10,0.00286436,-1.79648,-0.116801,-0.505131,-315.053,0.17927,
2,1,0,1,0,22862.9,0.181571,0.18126,15.3602,12,0.0131517,10,0.00278419,-1.8136,-0.114319,-0.516099,-309.292,0.18126,
2,1,0,1,0,22862.9,0.183578,0.18324,14.75,12,0.0133022,10,0.00270279,-1.83121,-0.114659,-0.51457,-296.357,0.18324,
2,1,0,1,0,22862.9,0.185575,0.185275,14.1705,12,0.0134467,10,0.00262543,-1.84862,-0.116476,-0.506543,-280.274,0.185275,
2,1,0,1,0,22862.9,0.187573,0.187271,13.6202,12,0.0135855,10,0.00255067,-1.86582,-0.120046,-0.491477,-261.615,0.187271,
2,1,0,1,0,22862.9,0.18957,0.189283,13.1218,12,0.0137191,10,0.00248374,-1.88201,-0.123913,-0.476142,-243.971,0.189283,
2,1,0,1,0,22862.9,0.191577,0.191247,12.6501,12,0.0138479,10,0.0024193,-1.8979,-0.131234,-0.44958,-222.376,0.191247,
2,1,0,1,0,22862.9,0.193575,0.193263,12.2366,12,0.0139723,10,0.0023649,-1.91234,-0.141146,-0.418008,-199.821,0.193263,
2,1,0,1,0,22862.9,0.195572,0.195222,11.856,12,0.0140927,10,0.00231454,-1.92606,-0.149031,-0.39589,-183.377,0.195222,
2,1,0,1,0,22862.9,0.19757,0.197235,11.5084,12,0.0142095,10,0.00226986,-1.93898,-0.165896,-0.355644,-160.058,0.1972345,
2,1,0,1,0,22863,0.199558,0.199234,11.2137,12,0.0143219,10,0.00223416,-1.95025,-0.181151,-0.325695,-142.608,0.199234,
2,1,0,1,0,22863,0.201556,0.201254,10.9352,12,0.0144325,10,0.00220076,-1.96117,-0.187914,-0.313974,-134.08,0.201254,
2,1,0,1,0,22863,0.203553,0.20325,10.6752,12,0.0145405,10,0.00216974,-1.97162,-0.20244,-0.291445,-121.61,0.20325,
2,1,0,1,0,22863,0.205551,0.205228,10.4519,12,0.014646,10,0.00214503,-1.9808,-0.235677,-0.250342,-102.288,0.205228,
2,1,0,1,0,22863,0.20754,0.207247,10.2665,12,0.0147485,10,0.00212769,-1.98858,-0.246495,-0.239356,-95.8419,0.207247,
2,1,0,1,0,22863,0.209537,0.209208,10.0705,12,0.0148501,10,0.00210682,-1.99695,-0.24247,-0.243329,-95.6743,0.209208,
2,1,0,1,0,22863,0.211535,0.211227,9.88561,12,0.0149499,10,0.00208811,-2.005,-0.27223,-0.216729,-83.7581,0.211227,
2,1,0,1,0,22863,0.213532,0.213196,9.73648,12,0.0150479,10,0.00207578,-2.0116,-0.319371,-0.184738,-70.2453,0.213196,
2,1,0,1,0,22863,0.215539,0.215265,9.60197,12,0.0151446,10,0.00206697,-2.01764,-0.324742,-0.181683,-68.0556,0.215265,
2,1,0,1,0,22863,0.217537,0.217242,9.46109,12,0.0152398,10,0.00205535,-2.02406,-0.321034,-0.183781,-67.9002,0.217242,
2,1,0,1,0,22863.1,0.219534,0.219226,9.33305,12,0.0153338,10,0.00204604,-2.02998,-0.380294,-0.155143,-56.593,0.219226,
2,1,0,1,0,22863.1,0.221532,0.221262,9.23361,12,0.0154266,10,0.00204305,-2.03463,-0.405408,-0.145532,-52.412,0.221262,
2,1,0,1,0,22863.1,0.223534,0.223219,9.12373,12,0.0155184,10,0.00203659,-2.03983,-0.41103,-0.143542,-51.1485,0.223219,
2,1,0,1,0,22863.1,0.225536,0.225282,9.02801,12,0.0156091,10,0.00203384,-2.04441,-0.428882,-0.137567,-48.4642,0.225282,
2,1,0,1,0,22863.1,0.227534,0.227197,8.93094,12,0.015699,10,0.00202909,-2.0491,-0.440735,-0.133867,-46.6828,0.227197,
2,1,0,1,0,22863.1,0.229531,0.229232,8.8436,12,0.0157878,10,0.00202724,-2.05337,-0.492242,-0.11986,-41.3888,0.229232,
2,1,0,1,0,22863.1,0.231529,0.231192,8.76562,12,0.0158759,10,0.00202654,-2.05722,-0.577299,-0.1022,-34.996,0.231192,
2,1,0,1,0,22863.1,0.233517,0.233192,8.70501,12,0.0159624,10,0.00202994,-2.06023,-0.590903,-0.0998471,-33.8938,0.233192,
2,1,0,1,0,22863.1,0.235515,0.235169,8.6308,12,0.0160491,10,0.0020297,-2.06395,-0.556955,-0.105933,-35.693,0.235169,
2,1,0,1,0,22863.1,0.237513,0.237188,8.56239,12,0.016135,10,0.00203089,-2.0674,-0.588828,-0.100199,-33.4876,0.237188,
2,1,0,1,0,22863.2,0.23951,0.239172,8.49676,12,0.0162203,10,0.00203219,-2.07075,-0.694816,-0.0849145,-28.1882,0.239172,
2,1,0,1,0,22863.2,0.241499,0.241186,8.4497,12,0.0163042,10,0.00203795,-2.07316,-0.656737,-0.0898382,-29.5829,0.241186,
2,1,0,1,0,22863.2,0.243496,0.243166,8.37862,12,0.0163883,10,0.00203739,-2.07683,-0.67955,-0.0868221,-28.4385,0.243166,
2,1,0,1,0,22863.2,0.245494,0.24517,8.3364,12,0.0164718,10,0.00204383,-2.07902,-0.77906,-0.0757323,-24.618,0.24517,
2,1,0,1,0,22863.2,0.247491,0.247166,8.28014,12,0.016555,10,0.00204657,-2.08196,-0.796169,-0.0741048,-23.9702,0.247166,
2,1,0,1,0,22863.2,0.249498,0.249181,8.24026,12,0.0166376,10,0.00205331,-2.08406,-0.830911,-0.0710064,-22.8181,0.2491806,
2,1,0,1,0,22863.2,0.251496,0.25119,8.18832,12,0.0167197,10,0.00205682,-2.08681,-0.845993,-0.0697405,-22.3062,0.25119,
2,1,0,1,0,22863.2,0.253493,0.253183,8.15098,12,0.0168014,10,0.00206369,-2.08879,-0.82823,-0.0712362,-22.6403,0.253183,
2,1,0,1,0,22863.2,0.255491,0.255131,8.0991,12,0.0168827,10,0.00206633,-2.09156,-0.911167,-0.0647521,-20.494,0.255131,
2,1,0,1,0,22863.2,0.257497,0.257196,8.06874,12,0.0169635,10,0.00207525,-2.09319,-1.13942,-0.0517806,-16.2997,0.257196,
2,1,0,1,0,22863.3,0.259495,0.25921,8.03261,12,0.017044,10,0.00208213,-2.09514,-0.88764,-0.0664684,-20.8229,0.25921,
2,1,0,1,0,22863.3,0.261493,0.261183,7.98571,12,0.0171241,10,0.00208573,-2.09769,-0.891824,-0.0661566,-20.6327,0.261183,
2,1,0,1,0,22863.3,0.26349,0.263203,7.95023,12,0.0172039,10,0.00209252,-2.09962,-1.56082,-0.0378006,-11.746,0.263203,
2,1,0,1,0,22863.3,0.265479,0.265196,7.93858,12,0.0172825,10,0.00210528,-2.10026,-1.10906,-0.0531983,-16.4379,0.265196,
2,1,0,1,0,22863.3,0.267476,0.267187,7.88474,12,0.0173616,10,0.0021067,-2.10321,-0.882773,-0.0668348,-20.5996,0.267187,
2,1,0,1,0,22863.3,0.269474,0.269172,7.85666,12,0.0174402,10,0.0021148,-2.10476,-1.27642,-0.0462229,-14.1724,0.269172,
2,1,0,1,0,22863.3,0.271471,0.27118,7.82815,12,0.0175187,10,0.00212284,-2.10634,-1.63489,-0.036088,-11.0343,0.27118,
2,1,0,1,0,22863.3,0.27346,0.27317,7.81255,12,0.017596,10,0.00213415,-2.10721,-1.09698,-0.0537838,-16.363,0.27317,
2,1,0,1,0,22863.3,0.275458,0.275158,7.76306,12,0.0176739,10,0.00213606,-2.10997,-0.935739,-0.0630518,-19.1309,0.2751576,
2,1,0,1,0,22863.3,0.277455,0.277138,7.73663,12,0.0177513,10,0.00214412,-2.11145,-1.21394,-0.0486019,-14.6689,0.277138,
2,1,0,1,0,22863.4,0.279453,0.27917,7.7042,12,0.0178286,10,0.00215078,-2.11327,-1.38609,-0.0425658,-12.8096,0.27917,
2,1,0,1,0,22863.4,0.281455,0.281135,7.68543,12,0.0179055,10,0.00216065,-2.11433,-1.41605,-0.0416652,-12.4869,0.281135,
2,1,0,1,0,22863.4,0.283457,0.28317,7.65425,12,0.0179822,10,0.00216745,-2.1161,-1.15226,-0.0512035,-15.2969,0.28317,
2,1,0,1,0,22863.4,0.285455,0.285119,7.62449,12,0.0180586,10,0.00217389,-2.11779,-1.05934,-0.0556953,-16.5661,0.285119,
2,1,0,1,0,22863.4,0.287452,0.287121,7.5888,12,0.0181347,10,0.0021789,-2.11983,-1.2791,-0.0461263,-13.6762,0.287121,
2,1,0,1,0,22863.4,0.28945,0.289105,7.56998,12,0.0182105,10,0.00218852,-2.12091,-1.62804,-0.0362399,-10.7028,0.289105,
2,1,0,1,0,22863.4,0.291456,0.291112,7.54609,12,0.0182862,10,0.00219676,-2.12228,-1.23018,-0.0479605,-14.1157,0.291112,
2,1,0,1,0,22863.4,0.293454,0.293143,7.51298,12,0.0183615,10,0.00220238,-2.12419,-1.2524,-0.0471095,-13.822,0.293143,
2,1,0,1,0,22863.4,0.295452,0.29518,7.48985,12,0.0184366,10,0.00221086,-2.12553,-1.6003,-0.036868,-10.7787,0.2951802,
2,1,0,1,0,22863.4,0.297449,0.297173,7.46954,12,0.0185113,10,0.00221975,-2.12671,-1.69282,-0.0348531,-10.1602,0.297173,
2,1,0,1,0,22863.5,0.299438,0.29916,7.44942,12,0.0185852,10,0.00222857,-2.12788,-0.0550524,-1.07171,-297.769,0.29916,
2,1,0,1,0,22863.5,0.299746,0.299488,6.78027,12,0.0186164,10,0.00203061,-2.16875,0.00576765,10.2295,2149.48,0.299488,
2,1,0,1,0,22863.5,0.29774,0.297435,3.74121,12,0.018667,10,0.00111277,-2.42699,0.00739474,7.97865,1202.24,0.297435,
2,1,0,1,0,22863.5,0.295742,0.295454,1.93104,12,0.0186945,10,0.000570533,-2.71421,0.00543276,10.86,766.042,0.295454,
2,1,0,1,0,22863.5,0.293745,0.293455,0.692581,12,0.0187071,10,0.000203242,-3.15953,0.00420842,14.0195,535.22,0.293455,
2,0,0,1,0,22863.5,0.291747,0.291444,-0.215239,12,0.0187092,10,-6.27301e-05,-3.66708,-0.0353165,-1.67061,397.985,0.291444,
2,0,0,1,0,22863.5,0.289745,0.289457,-0.898872,12,0.0187034,10,-0.000260184,-3.0463,-0.00486439,-12.129,304.372,0.289457,
2,0,0,1,0,22863.5,0.287743,0.287436,-1.43525,12,0.0186915,10,-0.000412542,-2.84307,-0.0129321,-4.5623,234.632,0.287436,
2,0,0,1,0,22863.5,0.285745,0.285402,-1.85014,12,0.0186749,10,-0.000528035,-2.73279,-0.0217056,-2.71819,189.549,0.285402,
2,0,0,1,0,22863.5,0.283748,0.283446,-2.19158,12,0.0186547,10,-0.000621194,-2.65924,-0.0316108,-1.86645,156.101,0.283446,
2,0,0,1,0,22863.5,0.28175,0.281462,-2.46529,12,0.0186313,10,-0.000693884,-2.60813,-0.0427575,-1.37987,131.605,0.2814616,
2,0,0,1,0,22863.6,0.279761,0.279471,-2.7147,12,0.0186055,10,-0.000758681,-2.56628,-0.0548491,-1.07568,112.678,0.279471,
2,0,0,1,0,22863.6,0.277764,0.277467,-2.91543,12,0.0185773,10,-0.000808934,-2.5353,-0.0693979,-0.850169,96.3223,0.277467,
2,0,0,1,0,22863.6,0.275766,0.275471,-3.09995,12,0.0185472,10,-0.000853948,-2.50864,-0.0857496,-0.688049,82.6546,0.275471,
2,0,0,1,0,22863.6,0.273769,0.273458,-3.24673,12,0.0185154,10,-0.000887846,-2.48855,-0.0971195,-0.607499,77.107,0.273458,
2,0,0,1,0,22863.6,0.27178,0.271457,-3.40946,12,0.0184824,10,-0.000925523,-2.46731,-0.108798,-0.542289,71.7057,0.271457,
2,0,0,1,0,22863.6,0.269783,0.269458,-3.53356,12,0.0184476,10,-0.000952147,-2.45179,-0.128602,-0.45878,63.2721,0.269458,
2,0,0,1,0,22863.6,0.267785,0.267479,-3.66116,12,0.0184117,10,-0.000979284,-2.43638,-0.147508,-0.39998,56.8921,0.267479,
2,0,0,1,0,22863.6,0.265787,0.265514,-3.75795,12,0.0183746,10,-0.000997789,-2.42505,-0.164207,-0.359302,52.7943,0.265514,
2,0,0,1,0,22863.6,0.263781,0.263509,-3.87076,12,0.0183364,10,-0.00101998,-2.4122,-0.178041,-0.331384,49.8974,0.263509,
2,0,0,1,0,22863.6,0.261783,0.261462,-3.96017,12,0.0182972,10,-0.00103543,-2.40229,-0.199049,-0.29641,45.8344,0.261462,
2,0,0,1,0,22863.7,0.259786,0.259489,-4.05504,12,0.0182571,10,-0.00105224,-2.39201,-0.205624,-0.286932,45.3553,0.259489,
2,0,0,1,0,22863.7,0.257788,0.257458,-4.14177,12,0.0182161,10,-0.00106633,-2.38281,-0.210974,-0.279655,45.236,0.257458,
2,0,0,1,0,22863.7,0.255781,0.255493,-4.23577,12,0.0181742,10,-0.00108221,-2.37307,-0.242731,-0.243067,40.0461,0.255493,
2,0,0,1,0,22863.7,0.253784,0.253448,-4.30232,12,0.0181315,10,-0.00109042,-2.3663,-0.284008,-0.20774,34.9122,0.253448,
2,0,0,1,0,22863.7,0.251786,0.251437,-4.37737,12,0.018088,10,-0.00110063,-2.35879,-0.28207,-0.209168,35.6996,0.251437,
2,0,0,1,0,22863.7,0.249789,0.249453,-4.44495,12,0.0180439,10,-0.00110881,-2.35213,-0.273114,-0.216027,37.5203,0.249453,
2,0,0,1,0,22863.7,0.2478,0.247525,-4.52416,12,0.0179994,10,-0.00111984,-2.34446,-0.28414,-0.207644,36.609,0.247525,
2,0,0,1,0,22863.7,0.245802,0.245464,-4.59097,12,0.0179538,10,-0.00112692,-2.3381,-0.313811,-0.188011,33.6967,0.245464,
2,0,0,1,0,22863.7,0.243805,0.243455,-4.66132,12,0.0179076,10,-0.00113482,-2.33149,-0.356729,-0.165392,30.0157,0.243455,
2,0,0,1,0,22863.7,0.241807,0.241501,-4.70992,12,0.0178607,10,-0.00113745,-2.32699,-0.336875,-0.175139,32.2944,0.241501,
2,0,0,1,0,22863.8,0.239819,0.239508,-4.78879,12,0.0178137,10,-0.00114695,-2.31977,-0.337825,-0.174647,32.5443,0.2395077,
2,0,0,1,0,22863.8,0.237821,0.237499,-4.84017,12,0.0177656,10,-0.00114954,-2.31514,-0.404983,-0.145685,27.5402,0.237499,
2,0,0,1,0,22863.8,0.235824,0.235495,-4.8993,12,0.0177169,10,-0.00115376,-2.30987,-0.417868,-0.141193,26.9667,0.235495,
2,0,0,1,0,22863.8,0.233826,0.233503,-4.94794,12,0.0176677,10,-0.00115536,-2.30558,-0.377313,-0.156369,30.267,0.233503,
2,0,0,1,0,22863.8,0.231824,0.231488,-5.02059,12,0.0176179,10,-0.0011622,-2.29925,-0.399855,-0.147554,28.8225,0.231488,
2,0,0,1,0,22863.8,0.229822,0.229516,-5.06284,12,0.0175674,10,-0.00116201,-2.29561,-0.481184,-0.122614,24.2536,0.229516,
2,0,0,1,0,22863.8,0.227824,0.227531,-5.11654,12,0.0175165,10,-0.00116417,-2.29102,-0.443868,-0.132922,26.5359,0.227531,
2,0,0,1,0,22863.8,0.225827,0.225548,-5.16815,12,0.017465,10,-0.00116567,-2.28666,-0.43987,-0.13413,27.069,0.225548,
2,0,0,1,0,22863.8,0.223829,0.223488,-5.22598,12,0.017413,10,-0.00116795,-2.28183,-0.456604,-0.129215,26.3298,0.223488,
2,0,0,1,0,22863.8,0.221822,0.221502,-5.27467,12,0.0173604,10,-0.00116835,-2.2778,-0.447724,-0.131778,27.1534,0.221502,
2,0,0,1,0,22863.9,0.219825,0.219509,-5.33402,12,0.0173073,10,-0.00117087,-2.27295,-0.481897,-0.122433,25.4449,0.219509,
2,0,0,1,0,22863.9,0.217827,0.217515,-5.37613,12,0.0172537,10,-0.00116939,-2.26953,-0.506383,-0.116513,24.4735,0.217515,
2,0,0,1,0,22863.9,0.21583,0.215561,-5.43066,12,0.0171996,10,-0.00117064,-2.26515,-0.442949,-0.133198,28.2415,0.2155609,
2,0,0,1,0,22863.9,0.213841,0.213486,-5.48991,12,0.0171455,10,-0.00117202,-2.26043,-0.449079,-0.13138,28.1305,0.213486,
2,0,0,1,0,22863.9,0.211843,0.211587,-5.54245,12,0.0170903,10,-0.00117271,-2.2563,-0.524773,-0.11243,24.2989,0.211587,
2,0,0,1,0,22863.9,0.209846,0.209527,-5.58611,12,0.0170347,10,-0.00117044,-2.25289,-0.55281,-0.106727,23.2811,0.209527,
2,0,0,1,0,22863.9,0.207848,0.207544,-5.63658,12,0.0169786,10,-0.00116984,-2.24898,-0.448904,-0.131431,28.9479,0.207544,
2,0,0,1,0,22863.9,0.20586,0.205543,-5.70145,12,0.0169224,10,-0.00117189,-2.24401,-0.431734,-0.136658,30.3822,0.205543,
2,0,0,1,0,22863.9,0.203862,0.203576,-5.75713,12,0.0168651,10,-0.00117201,-2.23979,-0.55506,-0.106295,23.8487,0.203576,
2,0,0,1,0,22863.9,0.201865,0.201547,-5.79675,12,0.0168074,10,-0.00116831,-2.23682,-0.541381,-0.108981,24.6964,0.201547,
2,0,0,1,0,22864,0.199867,0.199559,-5.85634,12,0.0167491,10,-0.00116868,-2.23237,-0.488918,-0.120675,27.5582,0.199559,
2,0,0,1,0,22864,0.19786,0.197556,-5.90671,12,0.0166903,10,-0.00116691,-2.22865,-0.540412,-0.109176,25.1647,0.197556,
2,0,0,1,0,22864,0.195863,0.195591,-5.95618,12,0.016631,10,-0.00116498,-2.22503,-0.499938,-0.118015,27.4591,0.195591,
2,0,0,1,0,22864,0.193865,0.193523,-6.01747,12,0.0165711,10,-0.00116452,-2.22059,-0.479181,-0.123127,28.8979,0.193523,
2,0,0,1,0,22864,0.191868,0.191589,-6.07184,12,0.0165106,10,-0.0011633,-2.21668,-0.490609,-0.120259,28.5095,0.191589,
2,0,0,1,0,22864,0.189861,0.18951,-6.13187,12,0.0164496,10,-0.00116205,-2.21241,-0.473859,-0.12451,29.8009,0.18951,
2,0,0,1,0,22864,0.187863,0.18748,-6.19429,12,0.016388,10,-0.0011613,-2.20801,-0.473013,-0.124732,30.1408,0.18748,
2,0,0,1,0,22864,0.185866,0.185525,-6.25198,12,0.0163257,10,-0.0011599,-2.20398,-0.493547,-0.119543,29.165,0.185525,
2,0,0,1,0,22864,0.183868,0.183554,-6.30879,12,0.0162629,10,-0.001158,-2.20005,-0.429998,-0.13721,33.8407,0.183554,
2,0,0,1,0,22864,0.18188,0.181514,-6.38772,12,0.0162,10,-0.00115946,-2.19465,-0.389776,-0.151369,37.7159,0.181514,
2,0,0,1,0,22864.1,0.179882,0.179526,-6.46072,12,0.0161358,10,-0.00115987,-2.18972,-0.458292,-0.128739,32.4149,0.1795257,
2,0,0,1,0,22864.1,0.177885,0.177557,-6.516,12,0.0160709,10,-0.00115696,-2.18602,-0.425347,-0.13871,35.3498,0.177557,
2,0,0,1,0,22864.1,0.175887,0.175591,-6.5998,12,0.0160054,10,-0.00115887,-2.18047,-0.38282,-0.154119,39.6686,0.175591,
2,0,0,1,0,22864.1,0.173908,0.173549,-6.67498,12,0.0159397,10,-0.00115844,-2.17555,-0.365538,-0.161406,42.1033,0.173549,
2,0,0,1,0,22864.1,0.171901,0.171577,-6.76882,12,0.0158724,10,-0.00116137,-2.16949,-0.364384,-0.161917,42.7113,0.171577,
2,0,0,1,0,22864.1,0.169903,0.169595,-6.84385,12,0.0158044,10,-0.00116068,-2.1647,-0.344651,-0.171188,45.828,0.169595,
2,0,0,1,0,22864.1,0.167906,0.167601,-6.95105,12,0.0157355,10,-0.001165,-2.15795,-0.318585,-0.185194,50.1858,0.167601,
2,0,0,1,0,22864.1,0.165908,0.165597,-7.04449,12,0.0156654,10,-0.00116655,-2.15215,-0.310645,-0.189927,52.3031,0.165597,
2,0,0,1,0,22864.1,0.163901,0.163556,-7.1626,12,0.0155944,10,-0.00117148,-2.14493,-0.287251,-0.205395,57.3853,0.163556,
2,0,0,1,0,22864.1,0.161904,0.161588,-7.27456,12,0.0155222,10,-0.00117548,-2.13819,-0.269406,-0.219001,62.2595,0.161588,
2,0,0,1,0,22864.2,0.159906,0.159619,-7.40768,12,0.0154488,10,-0.00118241,-2.13032,-0.255174,-0.231215,66.8242,0.159619,
2,0,0,1,0,22864.2,0.157909,0.157646,-7.538,12,0.0153741,10,-0.00118833,-2.12274,-0.23215,-0.254146,74.9587,0.157646,
2,0,0,1,0,22864.2,0.155902,0.155596,-7.70924,12,0.0152978,10,-0.00119953,-2.11299,-0.215066,-0.274334,82.4828,0.155596,
2,0,0,1,0,22864.2,0.153904,0.15359,-7.87256,12,0.0152198,10,-0.00120914,-2.10388,-0.212213,-0.278023,85.4941,0.15359,
2,0,0,1,0,22864.2,0.151907,0.151587,-8.052,12,0.0151402,10,-0.00122058,-2.0941,-0.193445,-0.304996,95.9747,0.151587,
2,0,0,1,0,22864.2,0.149909,0.149588,-8.25659,12,0.0150586,10,-0.00123509,-2.0832,-0.169159,-0.348785,112.647,0.149588,
2,0,0,1,0,22864.2,0.147921,0.147581,-8.50323,12,0.0149756,10,-0.00125492,-2.07042,-0.160583,-0.36741,121.812,0.147581,
2,0,0,1,0,22864.2,0.145923,0.145632,-8.73848,12,0.0148893,10,-0.0012726,-2.05856,-0.152087,-0.387935,132.701,0.145632,
2,0,0,1,0,22864.2,0.143926,0.143596,-9.03208,12,0.0148005,10,-0.00129697,-2.04421,-0.137407,-0.429382,151.447,0.143596,
2,0,0,1,0,22864.2,0.141928,0.141637,-9.34348,12,0.0147085,10,-0.00132339,-2.02949,-0.12969,-0.454932,166.188,0.1416374,
2,0,0,1,0,22864.3,0.139939,0.139599,-9.69629,12,0.0146142,10,-0.0013536,-2.01339,-0.126074,-0.467977,177.103,0.139599,
2,0,0,1,0,22864.3,0.137942,0.137595,-10.0594,12,0.0145154,10,-0.00138412,-1.99743,-0.120857,-0.488181,191.937,0.1375953,
2,0,0,1,0,22864.3,0.135944,0.13561,-10.462,12,0.0144128,10,-0.00141875,-1.98039,-0.113599,-0.519373,212.261,0.13561,
2,0,0,1,0,22864.3,0.133947,0.133655,-10.8956,12,0.014306,10,-0.00145626,-1.96275,-0.112215,-0.525774,223.708,0.133655,
2,0,0,1,0,22864.3,0.13194,0.131619,-11.3548,12,0.0141948,10,-0.00149451,-1.94482,-0.115133,-0.512449,226.981,0.131619,
2,0,0,1,0,22864.3,0.129942,0.129602,-11.8157,12,0.0140788,10,-0.00153133,-1.92754,-0.114046,-0.517333,238.665,0.129602,
2,0,0,1,0,22864.3,0.127945,0.127659,-12.2998,12,0.0139582,10,-0.00157019,-1.9101,-0.117133,-0.503699,241.626,0.127659,
2,0,0,1,0,22864.3,0.125947,0.12561,-12.7802,12,0.0138327,10,-0.00160532,-1.89346,-0.120394,-0.490059,244.576,0.12561,
2,0,0,1,0,22864.3,0.123941,0.123616,-13.2889,12,0.0137023,10,-0.00164271,-1.87651,-0.124759,-0.472912,244.744,0.123616,
2,0,0,1,0,22864.3,0.121943,0.121635,-13.7531,12,0.013567,10,-0.00167286,-1.8616,-0.13644,-0.432426,231.931,0.121635,
2,0,0,1,0,22864.4,0.119945,0.119655,-14.2075,12,0.0134272,10,-0.00169999,-1.84748,-0.14012,-0.421067,233.56,0.119655,
2,0,0,1,0,22864.4,0.117948,0.117654,-14.6829,12,0.0132826,10,-0.0017275,-1.83319,-0.1427,-0.413454,236.855,0.117654,
2,0,0,1,0,22864.4,0.115946,0.115631,-15.1606,12,0.0131333,10,-0.00175303,-1.81928,-0.156333,-0.3774,222.755,0.115631,
2,0,0,1,0,22864.4,0.113962,0.113655,-15.5736,12,0.012981,10,-0.00177003,-1.80761,-0.170962,-0.345106,209.735,0.113655,
2,0,0,1,0,22864.4,0.111964,0.111669,-15.9916,12,0.0128232,10,-0.00178576,-1.79611,-0.183274,-0.321922,200.667,0.111669,
2,0,0,1,0,22864.4,0.109967,0.10965,-16.3773,12,0.0126612,10,-0.00179578,-1.78576,-0.199787,-0.295314,188.581,0.10965,
2,0,0,1,0,22864.4,0.107969,0.107705,-16.7391,12,0.0124956,10,-0.00180288,-1.77627,-0.218907,-0.26952,175.902,0.107705,
2,0,0,1,0,22864.4,0.10598,0.105692,-17.0736,12,0.0123281,10,-0.00180454,-1.76767,-0.240362,-0.245463,163.499,0.105692,
2,0,0,1,0,22864.4,0.103983,0.103663,-17.3999,12,0.0121557,10,-0.00180373,-1.75945,-0.260481,-0.226504,153.624,0.103663,
2,0,0,1,0,22864.4,0.101985,0.101695,-17.6877,12,0.0119802,10,-0.00179874,-1.75233,-0.293592,-0.200959,138.627,0.101695,
2,0,0,1,0,22864.5,0.0999877,0.0996636,-17.9544,12,0.0118019,10,-0.0017894,-1.74583,-0.324381,-0.181885,127.347,0.0996636,
2,0,0,1,0,22864.5,0.0979811,0.0977097,-18.1952,12,0.0116211,10,-0.00177784,-1.74004,-0.36119,-0.163349,115.93,0.0977097,
2,0,0,1,0,22864.5,0.0959835,0.0956665,-18.4178,12,0.0114379,10,-0.00176196,-1.73476,-0.426453,-0.138351,99.3235,0.0956665,
2,0,0,1,0,22864.5,0.0939859,0.0936641,-18.597,12,0.0112528,10,-0.00174187,-1.73056,-0.506074,-0.116584,84.5621,0.0936641,
2,0,0,1,0,22864.5,0.0919883,0.0916868,-18.7543,12,0.0110659,10,-0.00171952,-1.7269,-0.588719,-0.100218,73.3104,0.0916868,
2,0,0,1,0,22864.5,0.0899816,0.0896479,-18.8914,12,0.0108776,10,-0.00169358,-1.72374,-0.801619,-0.0736011,54.1824,0.0896479,
2,0,0,1,0,22864.5,0.0879841,0.0876663,-18.9721,12,0.0106882,10,-0.00166322,-1.72188,-1.3928,-0.0423606,31.3358,0.08766634,
2,0,0,1,0,22864.5,0.0859865,0.0856093,-19.018,12,0.0104982,10,-0.00162811,-1.72084,-2.3887,-0.0246996,18.3236,0.0856093,
2,0,0,1,0,22864.5,0.0839889,0.0836493,-19.0457,12,0.0103079,10,-0.00159316,-1.7202,-12.1291,-0.00486434,3.6117,0.08364933,
2,0,0,1,0,22864.5,0.0820004,0.0817271,-19.032,12,0.0101194,10,-0.00155543,-1.72052,3.62348,0.0162827,-12.0876,0.0817271,
2,0,0,1,0,22864.6,0.0800028,0.0796895,-18.9979,12,0.00992926,10,-0.00151393,-1.7213,1.72588,0.0341854,-25.3229,0.07968951,
2,0,0,1,0,22864.6,0.0780052,0.0776702,-18.9293,12,0.0097396,10,-0.00147024,-1.72287,1.07481,0.0548934,-40.5246,0.0776702,
2,0,0,1,0,22864.6,0.0760076,0.0756676,-18.8349,12,0.00955083,10,-0.00142519,-1.72504,0.83195,0.0709178,-52.1034,0.0756676,
2,0,0,1,0,22864.6,0.0740191,0.073697,-18.7222,12,0.00936494,10,-0.00137977,-1.72764,0.75531,0.0781136,-57.0721,0.073697,
2,0,0,1,0,22864.6,0.0720215,0.071692,-18.608,12,0.00917832,10,-0.00133404,-1.7303,0.664348,0.0888089,-64.44,0.07169199,
2,0,0,1,0,22864.6,0.0700239,0.0696765,-18.4632,12,0.00899296,10,-0.00128645,-1.73369,0.602044,0.0979995,-70.6289,0.0696765,
2,0,0,1,0,22864.6,0.0680263,0.0677088,-18.3267,12,0.00880906,10,-0.00124088,-1.73692,0.63618,0.092741,-66.3468,0.06770882,
2,0,0,1,0,22864.6,0.0660197,0.0657003,-18.1993,12,0.00862652,10,-0.0011957,-1.73994,0.635956,0.0927737,-65.8786,0.0657003,
2,0,0,1,0,22864.6,0.0640221,0.0637265,-18.0643,12,0.00844525,10,-0.00115117,-1.74318,0.575733,0.102478,-72.2129,0.0637265,
2,0,0,1,0,22864.6,0.0620245,0.0617388,-17.9133,12,0.00826536,10,-0.00110594,-1.74683,0.592748,0.0995363,-69.6238,0.0617388,
2,0,0,1,0,22864.7,0.0600269,0.05968,-17.7826,12,0.00808687,10,-0.00106126,-1.75001,0.67068,0.0879704,-61.073,0.05968,
2,0,0,1,0,22864.7,0.0580248,0.0576758,-17.6651,12,0.00790962,10,-0.00101885,-1.75288,0.687482,0.0858205,-59.1643,0.0576758,
2,0,0,1,0,22864.7,0.0560227,0.0557029,-17.5473,12,0.00773353,10,-0.000977434,-1.75579,0.696637,0.0846926,-58.0043,0.0557029,
2,0,0,1,0,22864.7,0.0540251,0.0536788,-17.4333,12,0.00755862,10,-0.000935797,-1.75862,0.760001,0.0776315,-52.8415,0.0536788,
2,0,0,1,0,22864.7,0.0520275,0.051692,-17.3353,12,0.0073848,10,-0.000896097,-1.76107,0.7069,0.083463,-56.4185,0.051692,
2,0,0,1,0,22864.7,0.0500299,0.0496939,-17.2085,12,0.00721203,10,-0.000855155,-1.76426,0.744916,0.0792036,-53.2597,0.04969386,
2,0,0,1,0,22864.7,0.0480414,0.0477517,-17.1255,12,0.00704207,10,-0.000817769,-1.76636,0.822789,0.0717073,-47.8898,0.0477517,
2,0,0,1,0,22864.7,0.0460438,0.0456974,-17.0171,12,0.00687135,10,-0.000777636,-1.76912,0.776224,0.076009,-50.4965,0.0456974,
2,0,0,1,0,22864.7,0.0440462,0.0436964,-16.9207,12,0.00670168,10,-0.000739373,-1.77158,0.747941,0.0788832,-52.0663,0.0436964,
2,0,0,1,0,22864.7,0.0420486,0.0416898,-16.8084,12,0.00653306,10,-0.00070074,-1.77447,0.792574,0.074441,-48.8771,0.0416898,
2,0,0,1,0,22864.8,0.0400601,0.0397485,-16.7277,12,0.00636707,10,-0.000664902,-1.77656,0.810415,0.0728022,-47.4883,0.0397485,
2,0,0,1,0,22864.8,0.0380625,0.0377174,-16.6198,12,0.00620033,10,-0.000626855,-1.77937,0.708562,0.0832673,-54.011,0.0377174,
2,0,0,1,0,22864.8,0.036065,0.0357861,-16.5137,12,0.00603473,10,-0.000590962,-1.78216,0.699194,0.0843828,-54.3755,0.0357861,
2,0,0,1,0,22864.8,0.0340674,0.0337421,-16.4036,12,0.00587012,10,-0.000553492,-1.78506,0.764639,0.0771605,-49.4264,0.0337421,
2,0,0,1,0,22864.8,0.0320607,0.0317379,-16.3136,12,0.00570654,10,-0.00051776,-1.78745,0.688849,0.0856501,-54.4646,0.0317379,
2,0,0,1,0,22864.8,0.0300631,0.029719,-16.1845,12,0.00554405,10,-0.000480987,-1.7909,0.632015,0.0933523,-59.0031,0.029719,
2,0,0,1,0,22864.8,0.0280655,0.027733,-16.0773,12,0.00538277,10,-0.000445873,-1.79379,0.626251,0.0942115,-59.0744,0.027733,
2,0,0,1,0,22864.8,0.0260679,0.0257471,-15.9499,12,0.0052226,10,-0.000410662,-1.79724,0.60851,0.0969582,-60.3818,0.0257471,
2,0,0,1,0,22864.8,0.0240613,0.0237655,-15.8378,12,0.00506366,10,-0.000376392,-1.80031,0.569554,0.10359,-63.9674,0.0237655,
2,0,0,1,0,22864.8,0.0220637,0.0217787,-15.696,12,0.00490597,10,-0.000341838,-1.80421,0.522231,0.112977,-69.2233,0.0217787,
2,0,0,1,0,22864.9,0.0200661,0.019797,-15.5631,12,0.00474969,10,-0.000308102,-1.80791,0.497513,0.11859,-71.9689,0.019797,
2,0,0,1,0,22864.9,0.0180685,0.0177365,-15.4051,12,0.00459479,10,-0.000273232,-1.81234,0.512184,0.115193,-69.329,0.0177365,
2,0,0,1,0,22864.9,0.01608,0.0157247,-15.2807,12,0.00444294,10,-0.000240285,-1.81586,0.491511,0.120038,-71.5061,0.0157247,
2,0,0,1,0,22864.9,0.0140824,0.0137945,-15.1232,12,0.00429093,10,-0.000208618,-1.82036,0.435752,0.135398,-79.9047,0.01379452,
2,0,0,1,0,22864.9,0.0120848,0.0117546,-14.9635,12,0.00414056,10,-0.000175889,-1.82497,0.418712,0.140908,-82.2461,0.0117546,
2,0,0,1,0,22864.9,0.0100873,0.00974244,-14.79,12,0.00399184,10,-0.00014409,-1.83003,0.423805,0.139215,-80.4152,0.00974244,
2,0,0,1,0,22864.9,0.00810328,0.00772605,-14.6395,12,0.00384624,10,-0.000113106,-1.83447,0.421835,0.139865,-79.8657,0.00772605,
2,0,0,1,0,22864.9,0.00610116,0.00578696,-14.474,12,0.00370065,10,-8.37607e-05,-1.83941,0.389439,0.1515,-85.5669,0.00578696,
2,0,0,1,0,22864.9,0.00410357,0.00382617,-14.3058,12,0.00355684,10,-5.47365e-05,-1.84449,0.479486,0.123048,-68.8355,0.00382617,
2,0,0,1,0,22864.9,0.00210598,0.00173611,-14.1952,12,0.00341453,10,-2.46444e-05,-1.84786,0.492083,0.119898,-66.3093,0.00173611,
2,0,0,1,0,22865,0.00010174,-0.000230755,-14.0368,12,0.00327344,10,3.23906e-06,-1.85273,0.407075,0.144936,-79.3835,-0.000230755,
2,0,0,1,0,22865,-0.00189827,-0.00230346,-13.8745,12,0.00313388,10,3.19595e-05,-1.85778,0.413856,0.142562,-77.2274,-0.00230346,
2,0,0,1,0,22865,-0.00389586,-0.00426425,-13.7253,12,0.00299592,10,5.85283e-05,-1.86248,0.439945,0.134108,-71.873,-0.00426425,
2,0,0,1,0,22865,-0.00589345,-0.00624326,-13.5914,12,0.00285931,10,8.48545e-05,-1.86674,0.464273,0.12708,-67.4062,-0.00624326,
2,0,0,1,0,22865,-0.00789103,-0.00823095,-13.4579,12,0.00272408,10,0.000110772,-1.87102,0.515808,0.114384,-60.1319,-0.00823095,
2,0,0,1,0,22865,-0.0098977,-0.0102585,-13.3499,12,0.00258998,10,0.000136951,-1.87452,0.611551,0.096476,-50.2869,-0.0102585,
2,0,0,1,0,22865,-0.0118953,-0.0122809,-13.2543,12,0.00245696,10,0.000162775,-1.87764,0.599426,0.0984275,-50.8885,-0.01228093,
2,0,0,1,0,22865,-0.0138929,-0.0142669,-13.1459,12,0.0023249,10,0.000187552,-1.88121,0.672422,0.0877426,-45.0797,-0.01426688,
2,0,0,1,0,22865,-0.0158905,-0.016252,-13.0753,12,0.00219383,10,0.000212499,-1.88355,0.873142,0.067572,-34.4863,-0.016252,
2,0,0,1,0,22865,-0.017879,-0.0182435,-13.0088,12,0.00206467,10,0.000237327,-1.88576,0.945505,0.0624005,-31.6868,-0.0182435,
2,0,0,1,0,22865.1,-0.0198766,-0.0202724,-12.9479,12,0.00193493,10,0.000262484,-1.8878,0.916737,0.0643587,-32.5113,-0.0202724,
2,0,0,1,0,22865.1,-0.0218741,-0.022232,-12.8791,12,0.00180583,10,0.000286329,-1.89011,1.1537,0.0511399,-25.7402,-0.022232,
2,0,0,1,0,22865.1,-0.0238717,-0.0242219,-12.8462,12,0.00167724,10,0.000311159,-1.89122,1.83806,0.0320991,-16.0937,-0.02422186,
2,0,0,1,0,22865.1,-0.0258602,-0.0262329,-12.8147,12,0.00155018,10,0.000336168,-1.89229,2.08108,0.0283506,-14.182,-0.0262329,
2,0,0,1,0,22865.1,-0.0278578,-0.0282371,-12.7893,12,0.00142221,10,0.000361132,-1.89315,2.0861,0.0282824,-14.1133,-0.0282371,
2,0,0,1,0,22865.1,-0.0298554,-0.0302499,-12.758,12,0.00129443,10,0.00038593,-1.89422,3.77103,0.0156456,-7.7996,-0.0302499,
2,0,0,1,0,22865.1,-0.031853,-0.0322255,-12.7582,12,0.00116685,10,0.000411138,-1.89421,18.7192,0.00315184,-1.56894,-0.0322255,
2,0,0,1,0,22865.1,-0.0338597,-0.0342574,-12.7518,12,0.00103927,10,0.000436842,-1.89443,-14.3242,-0.0041189,2.0515,-0.0342574,
2,0,0,1,0,22865.1,-0.0358573,-0.0362138,-12.7663,12,0.000911711,10,0.000462318,-1.89393,-6.32787,-0.00932383,4.64347,-0.0362138,
2,0,0,1,0,22865.1,-0.0378549,-0.0382388,-12.7702,12,0.00078398,10,0.000488319,-1.8938,-5.82919,-0.0101215,5.0468,-0.0382388,
2,0,0,1,0,22865.2,-0.0398524,-0.0402066,-12.7865,12,0.000656182,10,0.000514101,-1.89325,-2.58476,-0.0228261,11.3964,-0.0402066,
2,0,0,1,0,22865.2,-0.0418591,-0.0422255,-12.8157,12,0.000528188,10,0.000541148,-1.89226,-2.02515,-0.0291336,14.5716,-0.0422255,
2,0,0,1,0,22865.2,-0.0438567,-0.044247,-12.8454,12,0.000399906,10,0.000568369,-1.89125,-2.45556,-0.0240271,12.0399,-0.044247,
2,0,0,1,0,22865.2,-0.0458543,-0.0462356,-12.864,12,0.000271324,10,0.000594772,-1.89063,-1.90133,-0.031031,15.5941,-0.04623555,
2,0,0,1,0,22865.2,-0.0478519,-0.0482571,-12.9079,12,0.000142505,10,0.000622898,-1.88914,-1.28722,-0.0458351,23.0932,-0.0482571,
2,0,0,1,0,22865.2,-0.0498585,-0.0502179,-12.9559,12,1.3192e-05,10,0.000650619,-1.88753,-1.13416,-0.052021,26.3117,-0.0502179,
2,0,0,1,0,22865.2,-0.051838,-0.0522262,-13.0123,12,-0.000115336,10,0.000679584,-1.88564,-1.27581,-0.0462452,23.467,-0.0522262,
2,0,0,1,0,22865.2,-0.0538355,-0.0541937,-13.0492,12,-0.000245584,10,0.000707186,-1.88442,-1.23443,-0.0477954,24.362,-0.0541937,
2,0,0,1,0,22865.2,-0.0558331,-0.0561923,-13.109,12,-0.000376311,10,0.000736623,-1.88243,-1.12253,-0.0525596,26.8768,-0.0561923,
2,0,0,1,0,22865.2,-0.0578126,-0.0581799,-13.1564,12,-0.000506347,10,0.000765436,-1.88086,-1.04562,-0.0564257,28.9956,-0.05817987,
2,0,0,1,0,22865.3,-0.0598192,-0.0602101,-13.2255,12,-0.000638293,10,0.000796306,-1.87859,-0.850759,-0.0693498,35.8012,-0.0602101,
2,0,0,1,0,22865.3,-0.0618168,-0.0621796,-13.2996,12,-0.000770921,10,0.00082696,-1.87616,-0.825152,-0.0715019,37.1111,-0.0621796,
2,0,0,1,0,22865.3,-0.0638144,-0.0641854,-13.373,12,-0.000904222,10,0.000858351,-1.87377,-0.870523,-0.0677754,35.3663,-0.0641854,
2,0,0,1,0,22865.3,-0.065812,-0.0662104,-13.4421,12,-0.00103826,10,0.000890008,-1.87153,-0.819669,-0.0719803,37.7783,-0.0662104,
2,0,0,1,0,22865.3,-0.0678187,-0.0681756,-13.5237,12,-0.00117308,10,0.000921988,-1.8689,-0.788202,-0.0748539,39.4983,-0.0681756,
2,0,0,1,0,22865.3,-0.0698163,-0.0701988,-13.5996,12,-0.00130876,10,0.000954679,-1.86647,-0.77226,-0.0763991,40.5632,-0.0701988,
2,0,0,1,0,22865.3,-0.0718138,-0.0721622,-13.6854,12,-0.00144517,10,0.000987572,-1.86374,-0.717128,-0.0822726,43.9465,-0.0721622,
2,0,0,1,0,22865.3,-0.0738114,-0.0741785,-13.7745,12,-0.00158253,10,0.00102178,-1.86092,-0.635998,-0.0927675,49.9119,-0.0741785,
2,0,0,1,0,22865.3,-0.0758181,-0.0762096,-13.8875,12,-0.00172086,10,0.00105836,-1.85738,-0.647767,-0.0910822,49.3124,-0.07620959,
2,0,0,1,0,22865.3,-0.0778157,-0.0781661,-13.9712,12,-0.00186024,10,0.00109207,-1.85477,-0.643713,-0.0916558,50.0273,-0.0781661,
2,0,0,1,0,22865.4,-0.0798133,-0.0801459,-14.0844,12,-0.0020005,10,0.00112881,-1.85126,-0.61078,-0.0965977,53.0713,-0.0801459,
2,0,0,1,0,22865.4,-0.0818108,-0.0821874,-14.1846,12,-0.00214191,10,0.0011658,-1.84818,-0.561374,-0.105099,58.248,-0.0821874,
2,0,0,1,0,22865.4,-0.0837994,-0.08416,-14.3182,12,-0.00228298,10,0.00120502,-1.84411,-0.548452,-0.107576,60.0523,-0.08416003,
2,0,0,1,0,22865.4,-0.0857969,-0.0861698,-14.4237,12,-0.00242665,10,0.00124289,-1.84092,-0.566573,-0.104135,58.6673,-0.0861698,
2,0,0,1,0,22865.4,-0.0877945,-0.0881747,-14.5537,12,-0.00257149,10,0.00128327,-1.83703,-0.537628,-0.109741,62.3046,-0.0881747,
2,0,0,1,0,22865.4,-0.0897921,-0.0901511,-14.6718,12,-0.00271763,10,0.00132268,-1.83352,-0.528658,-0.111603,63.9359,-0.0901511,
2,0,0,1,0,22865.4,-0.0917806,-0.0921128,-14.8055,12,-0.00286349,10,0.00136378,-1.82958,-0.51976,-0.113514,65.5775,-0.0921128,
2,0,0,1,0,22865.4,-0.0937782,-0.094156,-14.9344,12,-0.00301224,10,0.00140617,-1.82581,-0.526325,-0.112098,65.3488,-0.094156,
2,0,0,1,0,22865.4,-0.0957758,-0.0961619,-15.0701,12,-0.00316228,10,0.00144917,-1.82188,-0.504109,-0.117038,68.8403,-0.0961619,
2,0,0,1,0,22865.4,-0.0977734,-0.0981453,-15.2091,12,-0.0033137,10,0.0014927,-1.8179,-0.486255,-0.121335,72.0353,-0.0981453,
2,0,0,1,0,22865.5,-0.0997412,-0.100121,-15.3553,12,-0.00346342,10,0.00153739,-1.81374,0.0971928,0.607041,-352.061,-0.100121,
2,0,0,1,1,22865.5,-0.0996711,-0.10011,-14.5175,12,-0.00350843,10,0.00145334,-1.83811,-0.0139962,-4.21543,2139.19,-0.10011,
2,0,0,1,1,22865.5,-0.0976826,-0.0980405,-10.9042,12,-0.00363224,10,0.00106905,-1.96241,-0.0170348,-3.46349,1509.36,-0.0980405,
2,0,0,1,1,22865.5,-0.095685,-0.0960403,-8.3756,12,-0.00372779,10,0.000804395,-2.07698,-0.0166105,-3.55196,1164.99,-0.0960403,
2,0,0,1,1,22865.5,-0.0936874,-0.0941045,-6.31883,12,-0.00380072,10,0.000594631,-2.19936,-0.0151604,-3.89172,955.721,-0.0941045,
2,0,0,1,1,22865.5,-0.0916898,-0.0920765,-4.58731,12,-0.00385481,10,0.000422384,-2.33844,-0.0130823,-4.5099,795.808,-0.09207651,
2,0,0,1,1,22865.5,-0.0897013,-0.0900626,-3.10226,12,-0.00389254,10,0.000279398,-2.50832,-0.00977009,-6.03884,701.1,-0.0900626,
2,0,0,1,1,22865.5,-0.0877037,-0.0880915,-1.79339,12,-0.00391673,10,0.000157983,-2.74632,-0.00574613,-10.2678,620.907,-0.0880915,
2,0,0,1,1,22865.5,-0.0857062,-0.0860786,-0.628544,12,-0.00392858,10,5.41042e-05,-3.20166,-0.00601432,-9.80992,546.109,-0.0860786,
2,1,0,1,1,22865.5,-0.0837086,-0.0840961,0.388486,12,-0.0039295,10,-3.26702e-05,-3.41062,0.0121341,4.86234,492.836,-0.0840961,
2,1,0,1,1,22865.5,-0.0817019,-0.0820789,1.34263,12,-0.00392063,10,-0.000110202,-2.87204,0.00535217,11.0236,445.155,-0.0820789,
2,1,0,1,1,22865.6,-0.0797043,-0.0801008,2.16703,12,-0.00390291,10,-0.000173581,-2.66413,0.0117942,5.00244,396.584,-0.0801008,
2,1,0,1,1,22865.6,-0.0777067,-0.078094,2.92299,12,-0.00387728,10,-0.000228268,-2.53417,0.0180381,3.27086,360.185,-0.078094,
2,1,0,1,1,22865.6,-0.0757091,-0.0761324,3.5964,12,-0.00384455,10,-0.000273802,-2.44413,0.0246513,2.39338,331.288,-0.0761324,
2,1,0,1,1,22865.6,-0.0737025,-0.0740779,4.25349,12,-0.0038052,10,-0.00031509,-2.37125,0.0319674,1.84563,300.956,-0.0740779,
2,1,0,1,1,22865.6,-0.0717049,-0.0720676,4.81971,12,-0.00375972,10,-0.000347345,-2.31698,0.0397485,1.48433,276.748,-0.0720676,
2,1,0,1,1,22865.6,-0.0697073,-0.0701424,5.34262,12,-0.00370885,10,-0.000374745,-2.27225,0.0482518,1.22275,253.055,-0.0701424,
2,1,0,1,1,22865.6,-0.0677097,-0.0681252,5.81735,12,-0.00365294,10,-0.000396308,-2.23527,0.0577015,1.0225,231.239,-0.0681252,
2,1,0,1,1,22865.6,-0.0657212,-0.0661249,6.27163,12,-0.00359304,10,-0.000414711,-2.20262,0.067856,0.869488,211.402,-0.0661249,
2,1,0,1,1,22865.6,-0.0637236,-0.0641319,6.66156,12,-0.00352832,10,-0.000427218,-2.17642,0.080817,0.730045,189.345,-0.0641319,
2,1,0,1,1,22865.6,-0.061726,-0.0620967,7.03435,12,-0.00345981,10,-0.00043681,-2.15278,0.0922277,0.639721,174.979,-0.0620967,
2,1,0,1,1,22865.7,-0.0597284,-0.0600973,7.36753,12,-0.00338771,10,-0.000442768,-2.13268,0.105695,0.558212,160.167,-0.0600973,
2,1,0,1,1,22865.7,-0.0577399,-0.0580706,7.6792,12,-0.00331322,10,-0.000445936,-2.11468,0.12015,0.491052,146.713,-0.0580706,
2,1,0,1,1,22865.7,-0.0557423,-0.0561202,7.95102,12,-0.00323502,10,-0.000446213,-2.09958,0.135127,0.436625,135.372,-0.05612018,
2,1,0,1,1,22865.7,-0.0537447,-0.0541091,8.21548,12,-0.00315414,10,-0.000444532,-2.08537,0.158679,0.37182,118.796,-0.05410907,
2,1,0,1,1,22865.7,-0.0517472,-0.0521144,8.42689,12,-0.00307083,10,-0.000439163,-2.07433,0.17281,0.341415,112.425,-0.0521144,
2,1,0,1,1,22865.7,-0.049745,-0.0501224,8.66368,12,-0.00298536,10,-0.000434245,-2.0623,0.185983,0.317233,106.964,-0.0501224,
2,1,0,1,1,22865.7,-0.0477429,-0.0481026,8.85601,12,-0.0028977,10,-0.000425997,-2.05276,0.223524,0.263953,91.1224,-0.04810264,
2,1,0,1,1,22865.7,-0.0457453,-0.0460985,9.03035,12,-0.00280822,10,-0.000416285,-2.0443,0.25093,0.235125,82.7632,-0.0460985,
2,1,0,1,1,22865.7,-0.0437477,-0.0441316,9.18466,12,-0.00271713,10,-0.000405334,-2.03694,0.276279,0.213552,76.5318,-0.0441316,
2,1,0,1,1,22865.7,-0.0417501,-0.0420927,9.33692,12,-0.00262448,10,-0.000393016,-2.0298,0.299187,0.197201,71.7956,-0.0420927,
2,1,0,1,1,22865.8,-0.0397435,-0.0400964,9.47437,12,-0.00253034,10,-0.000379888,-2.02345,0.33611,0.175538,64.835,-0.0400964,
2,1,0,1,1,22865.8,-0.0377459,-0.0381547,9.59224,12,-0.00243505,10,-0.000365989,-2.01808,0.397366,0.148478,55.5441,-0.0381547,
2,1,0,1,1,22865.8,-0.0357483,-0.0360802,9.69745,12,-0.00233861,10,-0.000349886,-2.01334,0.443049,0.133168,50.386,-0.0360802,
2,1,0,1,1,22865.8,-0.0337507,-0.034063,9.7984,12,-0.00224114,10,-0.000333763,-2.00884,0.506257,0.116542,44.5041,-0.034063,
2,1,0,1,1,22865.8,-0.0317622,-0.0321391,9.87284,12,-0.00214372,10,-0.000317305,-2.00556,0.545229,0.108211,41.7282,-0.0321391,
2,1,0,1,1,22865.8,-0.0297646,-0.0301023,9.96368,12,-0.00204455,10,-0.00029993,-2.00158,0.642675,0.0918037,35.6266,-0.0301023,
2,1,0,1,1,22865.8,-0.027767,-0.0281483,10.015,12,-0.00194466,10,-0.000281906,-1.99935,0.802329,0.0735359,28.7557,-0.02814828,
2,1,0,1,1,22865.8,-0.0257694,-0.0261879,10.0762,12,-0.00184421,10,-0.000263875,-1.9967,0.830693,0.0710251,27.9159,-0.0261879,
2,1,0,1,1,22865.8,-0.0237809,-0.0241246,10.1273,12,-0.00174421,10,-0.000244318,-1.9945,0.9207,0.0640817,25.3281,-0.0241246,
2,1,0,1,1,22865.8,-0.0217833,-0.0221291,10.179,12,-0.00164267,10,-0.000225253,-1.99229,1.20543,0.0489452,19.4186,-0.0221291,
2,1,0,1,1,22865.9,-0.0197858,-0.020151,10.2045,12,-0.00154072,10,-0.000205631,-1.99121,1.4492,0.0407121,16.2242,-0.020151,
2,1,0,1,1,22865.9,-0.0177882,-0.018159,10.2435,12,-0.00143851,10,-0.00018601,-1.98955,1.37627,0.0428693,17.1297,-0.018159,
2,1,0,1,1,22865.9,-0.0157815,-0.0161713,10.2727,12,-0.00133593,10,-0.000166122,-1.98832,1.99679,0.0295474,11.8396,-0.0161713,
2,1,0,1,1,22865.9,-0.0137839,-0.0141324,10.2911,12,-0.0012331,10,-0.000145438,-1.98754,3.02938,0.0194759,7.82014,-0.0141324,
2,1,0,1,1,22865.9,-0.0117863,-0.0121213,10.3044,12,-0.00113013,10,-0.000124902,-1.98698,2.33568,0.0252603,10.1652,-0.0121213,
2,1,0,1,1,22865.9,-0.00978874,-0.0101536,10.3316,12,-0.00102698,10,-0.000104902,-1.98583,2.41659,0.0244146,9.8369,-0.0101536,
2,1,0,1,1,22865.9,-0.00778208,-0.00813898,10.3435,12,-0.000923634,10,-8.41858e-05,-1.98533,5.6295,0.0104805,4.2293,-0.00813898,
2,1,0,1,1,22865.9,-0.00578449,-0.00614436,10.3485,12,-0.000820202,10,-6.3585e-05,-1.98512,12.333,0.00478393,1.93188,-0.00614436,
2,1,0,1,1,22865.9,-0.0037869,-0.00411329,10.3513,12,-0.00071667,10,-4.25779e-05,-1.985,6.1193,0.00964163,3.89685,-0.00411329,
2,1,0,1,1,22865.9,-0.00178931,-0.00221237,10.3638,12,-0.000613073,10,-2.29286e-05,-1.98448,-17.9855,-0.00328042,-1.32489,-0.00221237,
2,1,0,1,1,22866,-2.55332e-05,-0.000229887,10.3462,12,-0.000522913,10,-2.37845e-06,-1.98522, , , ,-0.000229887,