File: Figure_codes/Fig_3-5/rawdata_trumpetplot_data/after 10th/20221101_1-115_003_TrumpetPlot_ParaChange_from10_every3_07_CV_C01_11.csv
mode,ox/red,error,control changes,counter inc.,time/s,control/V,Ewe/V,<I>/mA,cycle number,(Q-Qo)/C,I Range,P/W,log(|I|),Tafel slope mV/dec,alpha_eff,dI/d(E-IR),E-IR/V,
2,0,0,0,0,22836.5,2.44065e-05,-0.000344411,-2.73193,12,0.0000000E+000,10,9.40906e-07,-2.56353, , , ,-0.000344411,
2,0,0,1,0,22836.5,0.0013005,0.000962066,-1.01091,12,-3.61221e-05,10,-9.72559e-07,-2.99529, , , ,0.000962066,
2,0,0,1,0,22836.5,0.00279471,0.00248361,0.0906763,12,-4.60431e-05,10,2.25204e-07,-4.04251,-0.0177123,-3.33102,600.11,0.00248361,
2,1,0,1,0,22836.5,0.00429425,0.00396726,0.739906,12,-3.45942e-05,10,2.9354e-06,-3.13082,0.00515988,11.4344,368.17,0.00396726,
2,1,0,1,0,22836.5,0.00579379,0.0054669,1.17593,12,-9.86838e-06,10,6.4287e-06,-2.92962,0.00875135,6.74182,255.995,0.0054669,
2,1,0,1,0,22836.6,0.007288,0.00696327,1.48039,12,2.38042e-05,10,1.03083e-05,-2.82962,0.0174747,3.37631,181.233,0.00696327,
2,1,0,1,0,22836.6,0.00878882,0.00848925,1.70506,12,6.41989e-05,10,1.44747e-05,-2.76826,0.028109,2.09897,134.95,0.00848925,
2,1,0,1,0,22836.6,0.0102896,0.00996877,1.8776,12,0.00010958,10,1.87174e-05,-2.7264,0.0413899,1.42547,102.334,0.00996877,
2,1,0,1,0,22836.6,0.0117838,0.0114699,2.02091,12,0.000158599,10,2.31796e-05,-2.69445,0.0543959,1.08464,84.1406,0.0114699,
2,1,0,1,0,22836.7,0.0132834,0.0129166,2.1235,12,0.000210805,10,2.74285e-05,-2.67295,0.0654763,0.901089,74.3723,0.0129166,
2,1,0,1,0,22836.7,0.0147816,0.0144694,2.22213,12,0.000265681,10,3.2153e-05,-2.65323,0.0815072,0.723862,62.5757,0.01446941,
2,1,0,1,0,22836.7,0.0162811,0.015958,2.31108,12,0.000322945,10,3.68801e-05,-2.63619,0.0977877,0.603348,54.2308,0.015958,
2,1,0,1,0,22836.7,0.0177753,0.0174334,2.39668,12,0.000381966,10,4.17823e-05,-2.62039,0.118837,0.49648,46.1582,0.0174334,
2,1,0,1,0,22836.8,0.0192761,0.018973,2.45563,12,0.000442937,10,4.65905e-05,-2.60984,0.128262,0.459996,43.9607,0.018973,
2,1,0,1,0,22836.8,0.020777,0.0205072,2.51737,12,0.000505597,10,5.16242e-05,-2.59905,0.133924,0.440548,43.2904,0.0205072,
2,1,0,1,0,22836.8,0.0222712,0.021954,2.58022,12,0.000569534,10,5.66461e-05,-2.58834,0.15565,0.379056,38.2134,0.021954,
2,1,0,1,0,22836.8,0.0237707,0.0234536,2.64764,12,0.000635297,10,6.20967e-05,-2.57714,0.163803,0.360188,37.0504,0.0234536,
2,1,0,1,0,22836.9,0.0252703,0.0249218,2.69871,12,0.000702491,10,6.72566e-05,-2.56884,0.159334,0.370292,38.9877,0.0249218,
2,1,0,1,0,22836.9,0.0267645,0.0264464,2.75169,12,0.00077079,10,7.27723e-05,-2.5604,0.160755,0.367017,39.5019,0.0264464,
2,1,0,1,0,22836.9,0.0282653,0.0279417,2.81541,12,0.000840766,10,7.86676e-05,-2.55046,0.176422,0.334425,36.6955,0.0279417,
2,1,0,1,0,22836.9,0.0297648,0.0294645,2.87021,12,0.000912217,10,8.45693e-05,-2.54209,0.178009,0.331445,36.9799,0.0294645,
2,1,0,1,0,22837,0.031259,0.030973,2.92084,12,0.000984738,10,9.04672e-05,-2.53449,0.18234,0.323571,36.8352,0.030973,
2,1,0,1,0,22837,0.0327585,0.0324308,2.97168,12,0.00105879,10,9.63741e-05,-2.527,0.18728,0.315037,36.5993,0.0324308,
2,1,0,1,0,22837,0.034258,0.0339619,3.0253,12,0.00113419,10,0.000102745,-2.51923,0.198943,0.296567,35.0343,0.0339619,
2,1,0,1,0,22837,0.0357576,0.035426,3.08417,12,0.00121101,10,0.00010926,-2.51086,0.208345,0.283183,34.0017,0.035426,
2,1,0,1,0,22837.1,0.0372518,0.0369414,3.13515,12,0.00128887,10,0.000115817,-2.50374,0.205318,0.287359,35.1443,0.0369414,
2,1,0,1,0,22837.1,0.0387526,0.0384382,3.18011,12,0.00136822,10,0.000122238,-2.49756,0.202283,0.291671,36.328,0.0384382,
2,1,0,1,0,22837.1,0.0402534,0.0399123,3.24161,12,0.00144895,10,0.00012938,-2.48924,0.215278,0.274064,34.6261,0.03991225,
2,1,0,1,0,22837.1,0.0417476,0.0414419,3.30074,12,0.00153082,10,0.000136789,-2.48139,0.219743,0.268495,34.4834,0.0414419,
2,1,0,1,0,22837.2,0.0432472,0.0429833,3.35426,12,0.00161431,10,0.000144177,-2.4744,0.218475,0.270054,35.2369,0.0429833,
2,1,0,1,0,22837.2,0.0447467,0.044462,3.39554,12,0.00169901,10,0.000150972,-2.46909,0.21258,0.277542,36.8268,0.044462,
2,1,0,1,0,22837.2,0.0462463,0.0459305,3.44565,12,0.00178501,10,0.00015826,-2.46273,0.222907,0.264684,35.6332,0.0459305,
2,1,0,1,0,22837.2,0.0477391,0.0474553,3.50528,12,0.00187198,10,0.000166344,-2.45528,0.243981,0.241822,33.0298,0.0474553,
2,1,0,1,0,22837.3,0.0492399,0.0489473,3.55187,12,0.00196056,10,0.000173854,-2.44954,0.235514,0.250516,34.6707,0.0489473,
2,1,0,1,0,22837.3,0.0507408,0.0504417,3.5944,12,0.00205039,10,0.000181308,-2.44437,0.238266,0.247622,34.7955,0.0504417,
2,1,0,1,0,22837.3,0.052235,0.0519231,3.64486,12,0.00214101,10,0.000189253,-2.43832,0.259275,0.227558,32.424,0.0519231,
2,1,0,1,0,22837.3,0.0537345,0.0534093,3.70143,12,0.00223332,10,0.000197691,-2.43163,0.260506,0.226482,32.6557,0.0534093,
2,1,0,1,0,22837.4,0.0552341,0.0549423,3.75364,12,0.00232693,10,0.000206233,-2.42555,0.263339,0.224046,32.7447,0.0549423,
2,1,0,1,0,22837.4,0.0567283,0.056413,3.78522,12,0.00242132,10,0.000213535,-2.42191,0.273321,0.215863,32.0123,0.056413,
2,1,0,1,0,22837.4,0.0582291,0.0579174,3.84197,12,0.00251717,10,0.000222517,-2.41545,0.29705,0.198619,29.8198,0.05791736,
2,1,0,1,0,22837.4,0.0597299,0.0593999,3.89155,12,0.00261424,10,0.000231158,-2.40988,0.296996,0.198656,30.1176,0.0593999,
2,1,0,1,0,22837.5,0.0612228,0.0609032,3.93774,12,0.00271211,10,0.000239821,-2.40475,0.297083,0.198598,30.4473,0.0609032,
2,1,0,1,0,22837.5,0.0627223,0.06241,3.98008,12,0.00281151,10,0.000248397,-2.40011,0.305804,0.192934,29.9701,0.06241,
2,1,0,1,0,22837.5,0.0642218,0.0639043,4.01781,12,0.00291189,10,0.000256755,-2.39601,0.331379,0.178044,27.9581,0.0639043,
2,1,0,1,0,22837.5,0.0657214,0.0654318,4.07013,12,0.00301339,10,0.000266315,-2.39039,0.334161,0.176562,28.0178,0.0654318,
2,1,0,1,0,22837.6,0.0672156,0.06691,4.11386,12,0.00311567,10,0.000275259,-2.38575,0.291467,0.202424,32.4274,0.06691,
2,1,0,1,0,22837.6,0.0687164,0.0683965,4.15056,12,0.00321942,10,0.000283884,-2.38189,0.34866,0.169219,27.4285,0.0683965,
2,1,0,1,0,22837.6,0.0702172,0.0698851,4.19046,12,0.00332412,10,0.000292851,-2.37774,0.381172,0.154786,25.3312,0.0698851,
2,1,0,1,0,22837.6,0.0717114,0.071378,4.23515,12,0.00342938,10,0.000302296,-2.37313,0.398862,0.147921,24.3985,0.071378,
2,1,0,1,0,22837.7,0.073211,0.0729016,4.27269,12,0.00353607,10,0.000311486,-2.3693,0.355733,0.165855,27.6313,0.0729016,
2,1,0,1,0,22837.7,0.0747105,0.0744203,4.304,12,0.00364371,10,0.000320305,-2.36613,0.394418,0.149588,25.1642,0.0744203,
2,1,0,1,0,22837.7,0.0762101,0.0758511,4.33047,12,0.00375224,10,0.000328471,-2.36346,0.438208,0.134639,22.8265,0.07585112,
2,1,0,1,0,22837.7,0.0777042,0.077408,4.37739,12,0.00386117,10,0.000338845,-2.35879,0.456773,0.129167,22.0556,0.077408,
2,1,0,1,0,22837.8,0.0792037,0.078874,4.41314,12,0.00397145,10,0.000348082,-2.35525,0.395212,0.149287,25.6719,0.078874,
2,1,0,1,0,22837.8,0.0807046,0.0804042,4.4412,12,0.00408262,10,0.000357092,-2.3525,0.461966,0.127715,22.1395,0.0804042,
2,1,0,1,0,22837.8,0.0821988,0.081915,4.46688,12,0.00419408,10,0.000365905,-2.35,0.577147,0.102227,17.8577,0.081915,
2,1,0,1,0,22837.8,0.0836983,0.0833777,4.50341,12,0.00430668,10,0.000375484,-2.34646,0.552005,0.106883,18.7891,0.0833777,
2,1,0,1,0,22837.9,0.0851979,0.0849013,4.54364,12,0.00442012,10,0.000385761,-2.3426,0.436318,0.135222,23.9504,0.0849013,
2,1,0,1,0,22837.9,0.0866921,0.0863529,4.57108,12,0.00453398,10,0.000394726,-2.33998,0.46718,0.12629,22.5314,0.0863529,
2,1,0,1,0,22837.9,0.0881929,0.087905,4.6042,12,0.00464919,10,0.000404733,-2.33685,0.519354,0.113603,20.4246,0.087905,
2,1,0,1,0,22837.9,0.0896937,0.0893414,4.64645,12,0.00476515,10,0.00041512,-2.33288,0.491209,0.120112,21.7671,0.0893414,
2,1,0,1,0,22838,0.0911879,0.0908772,4.68137,12,0.00488154,10,0.00042543,-2.32963,0.360926,0.163468,29.8296,0.0908772,
2,1,0,1,0,22838,0.0926861,0.0924016,4.71312,12,0.00499943,10,0.0004355,-2.32669,0.352017,0.167606,30.8676,0.0924016,
2,1,0,1,0,22838,0.0941856,0.0938742,4.75478,12,0.00511829,10,0.000446351,-2.32287,0.380671,0.154989,28.8248,0.0938742,
2,1,0,1,0,22838,0.0956852,0.0953713,4.80304,12,0.00523818,10,0.000458072,-2.31848,0.341753,0.17264,32.3961,0.0953713,
2,1,0,1,0,22838.1,0.0971794,0.096855,4.85887,12,0.0053589,10,0.000470606,-2.31346,0.28039,0.210421,39.8642,0.096855,
2,1,0,1,0,22838.1,0.0986802,0.0983697,4.91352,12,0.00548147,10,0.000483341,-2.30861,0.275023,0.214528,41.1748,0.0983697,
2,1,0,1,0,22838.1,0.100181,0.0998575,4.97083,12,0.00560547,10,0.000496375,-2.30357,0.284962,0.207045,40.2118,0.0998575,
2,1,0,1,0,22838.1,0.101675,0.101354,5.0392,12,0.00573061,10,0.000510744,-2.29764,0.270492,0.218121,42.9017,0.1013541,
2,1,0,1,0,22838.2,0.103175,0.102852,5.11152,12,0.00585788,10,0.000525731,-2.29145,0.234203,0.251918,50.3145,0.102852,
2,1,0,1,0,22838.2,0.104674,0.104336,5.18899,12,0.00598705,10,0.000541399,-2.28492,0.221221,0.266702,54.0651,0.1043361,
2,1,0,1,0,22838.2,0.106169,0.105891,5.26892,12,0.00611768,10,0.00055793,-2.27828,0.234167,0.251957,51.8367,0.105891,
2,1,0,1,0,22838.2,0.107668,0.107371,5.35603,12,0.00625092,10,0.000575083,-2.27116,0.222676,0.264959,55.3507,0.1073711,
2,1,0,1,0,22838.3,0.109169,0.108865,5.43631,12,0.00638618,10,0.000591826,-2.2647,0.214311,0.275301,58.4548,0.108865,
2,1,0,1,0,22838.3,0.110663,0.110325,5.52135,12,0.00652306,10,0.000609143,-2.25795,0.211338,0.279174,60.2372,0.110325,
2,1,0,1,0,22838.3,0.112163,0.111808,5.60787,12,0.00666273,10,0.000627002,-2.2512,0.23411,0.252019,55.1589,0.1118075,
2,1,0,1,0,22838.3,0.113662,0.113383,5.70159,12,0.00680459,10,0.000646467,-2.244,0.243037,0.242762,53.9547,0.113383,
2,1,0,1,0,22838.4,0.115162,0.114801,5.78445,12,0.00694848,10,0.000664059,-2.23774,0.242354,0.243445,54.889,0.114801,
2,1,0,1,0,22838.4,0.116656,0.116326,5.86621,12,0.00709388,10,0.000682393,-2.23164,0.242635,0.243163,55.6115,0.116326,
2,1,0,1,0,22838.4,0.118157,0.117833,5.9398,12,0.00724191,10,0.000699903,-2.22623,0.27203,0.216888,50.257,0.117833,
2,1,0,1,0,22838.4,0.119657,0.119361,6.02006,12,0.00739184,10,0.00071856,-2.2204,0.320197,0.184262,43.1977,0.119361,
2,1,0,1,0,22838.5,0.121152,0.120844,6.08031,12,0.00754283,10,0.000734771,-2.21607,0.320959,0.183824,43.5582,0.120844,
2,1,0,1,0,22838.5,0.122651,0.122316,6.13743,12,0.00769597,10,0.000750707,-2.21201,0.330157,0.178703,42.7908,0.1223161,
2,1,0,1,0,22838.5,0.124151,0.123839,6.19742,12,0.00785065,10,0.000767484,-2.20779,0.387228,0.152365,36.8477,0.123839,
2,1,0,1,0,22838.5,0.125649,0.125315,6.25119,12,0.00800672,10,0.000783369,-2.20404,0.443612,0.132999,32.4157,0.125315,
2,1,0,1,0,22838.6,0.127143,0.126836,6.29312,12,0.0081634,10,0.000798194,-2.20113,0.470359,0.125436,30.8085,0.1268359,
2,1,0,1,0,22838.6,0.128644,0.128314,6.33466,12,0.00832175,10,0.000812828,-2.19828,0.486983,0.121154,29.9881,0.128314,
2,1,0,1,0,22838.6,0.130145,0.129855,6.38272,12,0.00848121,10,0.000828827,-2.19499,0.542891,0.108677,27.0734,0.129855,
2,1,0,1,0,22838.6,0.131639,0.131328,6.42841,12,0.00864112,10,0.000844231,-2.1919,0.665467,0.0886595,22.194,0.131328,
2,1,0,1,0,22838.7,0.133139,0.132854,6.46479,12,0.00880266,10,0.000858874,-2.18945,0.664496,0.088789,22.3806,0.132854,
2,1,0,1,0,22838.7,0.134638,0.134306,6.48994,12,0.00896494,10,0.000871635,-2.18776,0.658966,0.0895342,22.6991,0.134306,
2,1,0,1,0,22838.7,0.136132,0.135805,6.52294,12,0.00912743,10,0.00088585,-2.18556,0.785699,0.0750924,19.1144,0.135805,
2,1,0,1,0,22838.7,0.137633,0.137334,6.56111,12,0.00929138,10,0.000901066,-2.18302,1.0948,0.0538911,13.7648,0.137334,
2,1,0,1,0,22838.8,0.139133,0.13881,6.57702,12,0.00945593,10,0.000912957,-2.18197,1.67741,0.0351734,9.00475,0.13881,
2,1,0,1,0,22838.8,0.140627,0.140299,6.57494,12,0.00962008,10,0.000922457,-2.18211,4.1092,0.014358,3.68181,0.140299,
2,1,0,1,0,22838.8,0.142126,0.141748,6.57054,12,0.00978491,10,0.00093136,-2.1824,-2.02625,-0.0291179,-7.45485,0.141748,
2,1,0,1,0,22838.8,0.143626,0.143333,6.55802,12,0.00994954,10,0.000939978,-2.18323,-0.728682,-0.0809682,-20.6525,0.143333,
2,1,0,1,0,22838.9,0.145125,0.144812,6.5158,12,0.0101134,10,0.000943565,-2.18603,-0.384287,-0.153531,-38.8837,0.144812,
2,1,0,1,0,22838.9,0.14662,0.146314,6.43543,12,0.0102752,10,0.000941596,-2.19142,-0.278287,-0.212011,-53.1482,0.146314,
2,1,0,1,0,22838.9,0.14812,0.147798,6.3482,12,0.0104355,10,0.000938253,-2.19735,-0.200169,-0.29475,-72.7811,0.147798,
2,1,0,1,0,22838.9,0.149621,0.149327,6.23508,12,0.0105933,10,0.000931063,-2.20516,-0.157825,-0.373831,-90.4628,0.1493265,
2,1,0,1,0,22839,0.151116,0.150824,6.08885,12,0.010747,10,0.000918342,-2.21546,-0.129125,-0.456922,-107.931,0.150824,
2,1,0,1,0,22839,0.152615,0.152365,5.90147,12,0.0108974,10,0.000899177,-2.22904,-0.110491,-0.533981,-122.636,0.152365,
2,1,0,1,0,22839,0.154115,0.153795,5.70709,12,0.0110429,10,0.00087772,-2.24359,-0.0952982,-0.619109,-137.737,0.153795,
2,1,0,1,0,22839,0.155614,0.15528,5.49753,12,0.0111835,10,0.000853656,-2.25983,-0.088413,-0.667323,-142.931,0.15528,
2,1,0,1,0,22839.1,0.157107,0.156812,5.28282,12,0.0113182,10,0.000828408,-2.27713,-0.0820082,-0.71944,-147.898,0.156812,
2,1,0,1,0,22839.1,0.158608,0.158306,5.0521,12,0.0114479,10,0.000799776,-2.29653,-0.0793318,-0.743712,-146.743,0.158306,
2,1,0,1,0,22839.1,0.160109,0.159786,4.83209,12,0.0115718,10,0.000772099,-2.31586,-0.0768179,-0.76805,-145.098,0.159786,
2,1,0,1,0,22839.1,0.161603,0.161349,4.62843,12,0.0116899,10,0.00074679,-2.33457,-0.0778073,-0.758284,-136.964,0.161349,
2,1,0,1,0,22839.2,0.163102,0.162732,4.42937,12,0.0118035,10,0.000720798,-2.35366,-0.0817408,-0.721794,-124.9,0.162732,
2,1,0,1,0,22839.2,0.164602,0.164283,4.24773,12,0.0119123,10,0.000697828,-2.37184,-0.0842321,-0.700446,-116.372,0.164283,
2,1,0,1,0,22839.2,0.166096,0.16579,4.07572,12,0.0120164,10,0.000675713,-2.3898,-0.0898685,-0.656515,-104.989,0.16579,
2,1,0,1,0,22839.2,0.167597,0.167327,3.93355,12,0.0121169,10,0.000658189,-2.40521,-0.0973949,-0.605781,-93.2301,0.167327,
2,1,0,1,0,22839.3,0.169098,0.168792,3.80687,12,0.012214,10,0.000642569,-2.41943,-0.104995,-0.56193,-83.5148,0.168792,
2,1,0,1,0,22839.3,0.170592,0.170274,3.6821,12,0.0123076,10,0.000626966,-2.4339,-0.110442,-0.534218,-76.9201,0.170274,
2,1,0,1,0,22839.3,0.17209,0.171759,3.55995,12,0.0123986,10,0.000611455,-2.44856,-0.120117,-0.491188,-68.7047,0.171759,
2,1,0,1,0,22839.3,0.17359,0.173243,3.48067,12,0.012487,10,0.000603001,-2.45834,-0.128641,-0.458642,-62.2701,0.173243,
2,1,0,1,0,22839.4,0.175089,0.174802,3.3956,12,0.0125733,10,0.000593556,-2.46908,-0.148103,-0.398372,-52.7483,0.174802,
2,1,0,1,0,22839.4,0.176583,0.176302,3.31539,12,0.0126571,10,0.000584511,-2.47947,-0.156602,-0.376751,-48.7606,0.176302,
2,1,0,1,0,22839.4,0.178084,0.177775,3.23343,12,0.0127395,10,0.000574822,-2.49034,-0.161096,-0.366241,-46.4401,0.177775,
2,1,0,1,0,22839.4,0.179585,0.179308,3.17592,12,0.0128201,10,0.000569468,-2.49813,-0.176807,-0.333697,-41.467,0.179308,
2,1,0,1,0,22839.5,0.181079,0.180772,3.12657,12,0.0128989,10,0.000565198,-2.50493,-0.197547,-0.298663,-36.4039,0.180772,
2,1,0,1,0,22839.5,0.182579,0.182273,3.0722,12,0.0129768,10,0.000559978,-2.51255,-0.21697,-0.271927,-32.6228,0.182273,
2,1,0,1,0,22839.5,0.184078,0.183753,3.02216,12,0.0130533,10,0.00055533,-2.51968,-0.219835,-0.268383,-31.7494,0.183753,
2,1,0,1,0,22839.5,0.185578,0.185311,2.98267,12,0.0131287,10,0.000552724,-2.52539,-0.244455,-0.241353,-28.107,0.185311,
2,1,0,1,0,22839.6,0.187072,0.186776,2.94713,12,0.0132029,10,0.000550454,-2.5306,-0.270382,-0.218209,-25.0354,0.186776,
2,1,0,1,0,22839.6,0.188573,0.188267,2.90766,12,0.0132764,10,0.000547418,-2.53646,-0.32592,-0.181026,-20.5502,0.188267,
2,1,0,1,0,22839.6,0.190072,0.189734,2.87493,12,0.0133491,10,0.000545473,-2.54137,-0.31468,-0.187492,-21.0568,0.189734,
2,1,0,1,0,22839.6,0.191567,0.191242,2.84524,12,0.0134207,10,0.00054413,-2.54588,-0.305152,-0.193346,-21.4665,0.191242,
2,1,0,1,0,22839.7,0.193066,0.192749,2.82065,12,0.0134919,10,0.000543677,-2.54965,-0.468292,-0.12599,-13.8638,0.1927488,
2,1,0,1,0,22839.7,0.194566,0.194273,2.79512,12,0.0135625,10,0.000543017,-2.5536,-0.476526,-0.123813,-13.5119,0.194273,
2,1,0,1,0,22839.7,0.19606,0.195751,2.76816,12,0.0136322,10,0.00054187,-2.55781,-0.373848,-0.157818,-17.1023,0.1957514,
2,1,0,1,0,22839.7,0.197561,0.197248,2.74928,12,0.0137017,10,0.000542289,-2.56078,-0.433222,-0.136189,-14.6161,0.197248,
2,1,0,1,0,22839.8,0.199062,0.198782,2.73594,12,0.0137706,10,0.000543854,-2.56289,-0.499648,-0.118083,-12.5758,0.198782,
2,1,0,1,0,22839.8,0.200556,0.200251,2.71165,12,0.0138388,10,0.000543009,-2.56677,-0.750151,-0.0786508,-8.31907,0.200251,
2,1,0,1,0,22839.8,0.202055,0.201719,2.69282,12,0.0139068,10,0.000543192,-2.56979,-0.527872,-0.11177,-11.7594,0.201719,
2,1,0,1,0,22839.8,0.203553,0.203253,2.67764,12,0.0139744,10,0.000544238,-2.57225,-0.522233,-0.112976,-11.8167,0.203253,
2,1,0,1,0,22839.9,0.205053,0.204739,2.66674,12,0.0140415,10,0.000545985,-2.57402,-0.964216,-0.0611896,-6.38567,0.204739,
2,1,0,1,0,22839.9,0.206547,0.206245,2.64626,12,0.0141081,10,0.000545778,-2.57737,-1.12238,-0.0525668,-5.44483,0.206245,
2,1,0,1,0,22839.9,0.208048,0.207785,2.64339,12,0.0141748,10,0.000549259,-2.57784,-0.600969,-0.0981748,-10.1159,0.207785,
2,1,0,1,0,22839.9,0.209549,0.209239,2.63278,12,0.0142412,10,0.00055088,-2.57959,-0.509848,-0.115721,-11.8586,0.209239,
2,1,0,1,0,22840,0.211043,0.210727,2.61851,12,0.0143068,10,0.000551792,-2.58195,-0.813302,-0.0725437,-7.40566,0.210727,
2,1,0,1,0,22840,0.212543,0.212231,2.60596,12,0.0143725,10,0.000553066,-2.58403,-1.84187,-0.0320327,-3.25419,0.212231,
2,1,0,1,0,22840,0.214042,0.213733,2.59419,12,0.0144379,10,0.000554465,-2.586,-0.84604,-0.0697366,-7.06994,0.213733,
2,1,0,1,0,22840,0.215536,0.215239,2.59008,12,0.0145029,10,0.000557487,-2.58669,-0.73966,-0.0797664,-8.04806,0.215239,
2,1,0,1,0,22840.1,0.217036,0.216746,2.57429,12,0.0145678,10,0.000557968,-2.58934,-1.15664,-0.0510099,-5.12913,0.216746,
2,1,0,1,0,22840.1,0.218537,0.218227,2.56527,12,0.0146325,10,0.000559811,-2.59087,-2.49036,-0.0236914,-2.37491,0.218227,
2,1,0,1,0,22840.1,0.220031,0.219729,2.55844,12,0.0146968,10,0.000562164,-2.59203,-1.10883,-0.0532092,-5.31905,0.219729,
2,1,0,1,0,22840.1,0.22153,0.22126,2.55406,12,0.0147612,10,0.000565113,-2.59277,-0.655016,-0.0900741,-8.97165,0.22126,
2,1,0,1,0,22840.2,0.22303,0.222733,2.54509,12,0.0148253,10,0.000566877,-2.5943,-1.44747,-0.0407607,-4.05419,0.222733,
2,1,0,1,0,22840.2,0.224529,0.22425,2.53545,12,0.0148892,10,0.000568575,-2.59595,-1.88607,-0.031282,-3.09948,0.22425,
2,1,0,1,0,22840.2,0.226024,0.225714,2.52771,12,0.0149527,10,0.000570541,-2.59727,-1.2136,-0.0486157,-4.80514,0.225714,
2,1,0,1,0,22840.2,0.227525,0.227233,2.52825,12,0.0150164,10,0.000574501,-2.59718,-0.703777,-0.0838334,-8.25065,0.227233,
2,1,0,1,0,22840.3,0.229025,0.22875,2.52469,12,0.0150799,10,0.000577524,-2.59779,-1.28995,-0.0457381,-4.49247,0.22875,
2,1,0,1,0,22840.3,0.23052,0.230233,2.50859,12,0.0151428,10,0.000577561,-2.60057,-4.54828,-0.0129719,-1.27352,0.230233,
2,1,0,1,0,22840.3,0.232019,0.231737,2.50082,12,0.0152059,10,0.000579535,-2.60192,-1.10484,-0.0534016,-5.22462,0.231737,
2,1,0,1,0,22840.3,0.233519,0.23326,2.50416,12,0.015269,10,0.00058412,-2.60134,-1.02594,-0.0575084,-5.61668,0.23326,
2,1,0,1,0,22840.4,0.235018,0.23469,2.5034,12,0.0153319,10,0.000587523,-2.60147,-1.90105,-0.0310354,-3.02423,0.23469,
2,1,0,1,0,22840.4,0.236511,0.236226,2.48474,12,0.0153944,10,0.00058696,-2.60472,-8.38795,-0.0070339,-0.6841,0.236226,
2,1,0,1,0,22840.4,0.238012,0.237687,2.48095,12,0.0154569,10,0.000589689,-2.60538,-1.44497,-0.0408313,-3.95879,0.237687,
2,1,0,1,0,22840.4,0.239513,0.239216,2.47884,12,0.0155194,10,0.000592979,-2.60575,-1.27704,-0.0462007,-4.46561,0.239216,
2,1,0,1,0,22840.5,0.241007,0.240766,2.48115,12,0.0155816,10,0.000597377,-2.60535,-2.11845,-0.0278506,-2.68883,0.240766,
2,1,0,1,0,22840.5,0.242506,0.242209,2.46302,12,0.0156438,10,0.000596566,-2.60853,-3.90107,-0.015124,-1.45956,0.242209,
2,1,0,1,0,22840.5,0.244006,0.243658,2.46002,12,0.0157059,10,0.000599403,-2.60906,-3.78081,-0.0156051,-1.5031,0.243658,
2,1,0,1,0,22840.5,0.2455,0.245202,2.46834,12,0.0157677,10,0.000605241,-2.6076,-1.05241,-0.0560619,-5.38772,0.245202,
2,1,0,1,0,22840.6,0.247001,0.246717,2.46554,12,0.0158297,10,0.000608292,-2.60809,-1.60066,-0.0368597,-3.52946,0.246717,
2,1,0,1,0,22840.6,0.248502,0.248234,2.45419,12,0.0158915,10,0.000609214,-2.61009,-2.27299,-0.025957,-2.48536,0.248234,
2,1,0,1,0,22840.6,0.249995,0.249701,2.44362,12,0.0159529,10,0.000610174,-2.61197,-2.7645,-0.021342,-2.04265,0.249701,
2,1,0,1,0,22840.6,0.251494,0.251217,2.44326,12,0.0160145,10,0.00061379,-2.61203,-1.64579,-0.0358489,-3.41994,0.251217,
2,1,0,1,0,22840.7,0.252994,0.25264,2.44079,12,0.016076,10,0.000616641,-2.61247,-1.27337,-0.0463337,-4.40803,0.25264,
2,1,0,1,0,22840.7,0.254493,0.254198,2.43225,12,0.0161374,10,0.000618274,-2.61399,-7.28361,-0.00810038,-0.770773,0.254198,
2,1,0,1,0,22840.7,0.255988,0.255681,2.422,12,0.0161984,10,0.000619258,-2.61583,-2.02952,-0.0290709,-2.76496,0.255681,
2,1,0,1,0,22840.7,0.257488,0.257193,2.42646,12,0.0162595,10,0.000624069,-2.61503,-1.79547,-0.0328605,-3.11256,0.257193,
2,1,0,1,0,22840.8,0.258989,0.258709,2.43306,12,0.0163206,10,0.000629455,-2.61385,-1.96888,-0.0299662,-2.82875,0.2587094,
2,1,0,1,0,22840.8,0.260483,0.260185,2.42206,12,0.0163814,10,0.000630183,-2.61582,-4.78881,-0.0123204,-1.16266,0.260185,
2,1,0,1,0,22840.8,0.261983,0.261679,2.41179,12,0.0164422,10,0.000631116,-2.61766,-2.39745,-0.0246094,-2.3247,0.261679,
2,1,0,1,0,22840.8,0.263482,0.263196,2.41011,12,0.016503,10,0.000634332,-2.61796,-1.60857,-0.0366785,-3.45126,0.263196,
2,1,0,1,0,22840.9,0.264982,0.264743,2.40931,12,0.0165636,10,0.000637848,-2.61811,-2.80777,-0.0210132,-1.97507,0.264743,
2,1,0,1,0,22840.9,0.266476,0.266173,2.40486,12,0.016624,10,0.000640111,-2.61891,-4.6633,-0.012652,-1.18884,0.2661733,
2,1,0,1,0,22840.9,0.267976,0.267611,2.39083,12,0.0166844,10,0.000639812,-2.62145,-1.76918,-0.0333487,-3.12344,0.267611,
2,1,0,1,0,22840.9,0.269477,0.26916,2.39745,12,0.0167447,10,0.000645298,-2.62025,-1.77557,-0.0332288,-3.1029,0.26916,
2,1,0,1,0,22841,0.270971,0.27071,2.3988,12,0.0168048,10,0.000649378,-2.62001,-2.23279,-0.0264243,-2.46236,0.27071,
2,1,0,1,0,22841,0.27247,0.272198,2.38442,12,0.016865,10,0.000649034,-2.62262,-1.58638,-0.0371916,-3.4663,0.272198,
2,1,0,1,0,22841,0.27397,0.273671,2.37623,12,0.016925,10,0.000650305,-2.62411,-1.40544,-0.0419797,-3.9093,0.273671,
2,1,0,1,0,22841,0.275464,0.27519,2.3763,12,0.0169847,10,0.000653933,-2.6241,-0.941819,-0.0626447,-5.81527,0.27519,
2,1,0,1,0,22841.1,0.276965,0.276657,2.37662,12,0.0170445,10,0.000657508,-2.62404,-1.6861,-0.0349919,-3.24192,0.276657,
2,1,0,1,0,22841.1,0.278466,0.278215,2.37341,12,0.0171042,10,0.000660319,-2.62463,-4.27716,-0.0137942,-1.2755,0.278215,
2,1,0,1,0,22841.1,0.27996,0.279676,2.36401,12,0.0171636,10,0.000661157,-2.62635,-1.8375,-0.0321089,-2.9666,0.279676,
2,1,0,1,0,22841.1,0.281458,0.28116,2.36123,12,0.017223,10,0.000663884,-2.62686,-1.93659,-0.0304659,-2.8069,0.28116,
2,1,0,1,0,22841.2,0.282958,0.282644,2.35771,12,0.0172824,10,0.000666391,-2.62751,-8.37376,-0.00704582,-0.647361,0.282644,
2,1,0,1,0,22841.2,0.284457,0.284167,2.35177,12,0.0173417,10,0.000668298,-2.6286,-14.2093,-0.0041522,-0.381329,0.284167,
2,1,0,1,0,22841.2,0.285951,0.285634,2.33978,12,0.0174007,10,0.000668318,-2.63083,-1.0326,-0.0571371,-5.2366,0.285634,
2,1,0,1,0,22841.2,0.287452,0.287128,2.34101,12,0.0174598,10,0.000672169,-2.6306,-1.09215,-0.054022,-4.94615,0.287128,
2,1,0,1,0,22841.3,0.288953,0.288673,2.33881,12,0.0175187,10,0.000675151,-2.631,-3.81668,-0.0154585,-1.40864,0.288673,
2,1,0,1,0,22841.3,0.290447,0.290159,2.33256,12,0.0175772,10,0.000676811,-2.63217,-4.24268,-0.0139063,-1.26617,0.2901586,
2,1,0,1,0,22841.3,0.291947,0.291622,2.32518,12,0.017636,10,0.000678072,-2.63354,-1.98851,-0.0296704,-2.70002,0.291622,
2,1,0,1,0,22841.3,0.293446,0.293132,2.31952,12,0.0176946,10,0.000679924,-2.6346,-1.38897,-0.0424776,-3.85544,0.293132,
2,1,0,1,0,22841.4,0.29494,0.29464,2.32508,12,0.0177528,10,0.000685063,-2.63356,-2.00648,-0.0294048,-2.6622,0.29464,
2,1,0,1,0,22841.4,0.29644,0.296151,2.32176,12,0.0178112,10,0.000687591,-2.63418,-90.0808,-0.000654967,-0.0591472,0.296151,
2,1,0,1,0,22841.4,0.297941,0.297644,2.31169,12,0.0178695,10,0.00068806,-2.63607,-1.56567,-0.0376836,-3.39831,0.297644,
2,1,0,1,0,22841.4,0.29944,0.299138,2.30793,12,0.0179277,10,0.00069039,-2.63678,-0.00622693,-9.47497,-615.874,0.299138,
2,1,0,1,0,22841.5,0.299736,0.299437,1.77746,12,0.0179573,10,0.000532237,-2.7502,0.00112837,52.2878,1704.26,0.299437,
2,1,0,1,0,22841.5,0.298238,0.297924,0.408172,12,0.0179812,10,0.000121604,-3.38916,0.00394313,14.9627,695.918,0.297924,
2,0,0,1,0,22841.5,0.296744,0.296413,-0.135506,12,0.0179833,10,-4.01656e-05,-3.86804,0.0243953,2.41849,298.476,0.296413,
2,0,0,1,0,22841.5,0.295243,0.294887,-0.421582,12,0.0179753,10,-0.000124319,-3.37512,-0.00192755,-30.6088,155.147,0.294887,
2,0,0,1,0,22841.6,0.293742,0.293414,-0.593649,12,0.017962,10,-0.000174185,-3.22647,-0.0125603,-4.69735,94.441,0.293414,
2,0,0,1,0,22841.6,0.292248,0.291929,-0.701291,12,0.0179454,10,-0.000204727,-3.1541,-0.0225458,-2.6169,68.1292,0.291929,
2,0,0,1,0,22841.6,0.290748,0.290427,-0.779222,12,0.0179263,10,-0.000226307,-3.10834,-0.0334401,-1.76435,52.7377,0.290427,
2,0,0,1,0,22841.6,0.289249,0.288951,-0.852748,12,0.0179053,10,-0.000246403,-3.06918,-0.0472437,-1.24884,41.0279,0.288951,
2,0,0,1,0,22841.7,0.287754,0.287488,-0.913075,12,0.0178829,10,-0.000262498,-3.03949,-0.0609463,-0.968065,33.9521,0.287488,
2,0,0,1,0,22841.7,0.286254,0.285916,-0.956547,12,0.0178591,10,-0.000273492,-3.01929,-0.0701292,-0.841304,31.2958,0.285916,
2,0,0,1,0,22841.7,0.284754,0.284426,-0.996354,12,0.0178342,10,-0.000283389,-3.00159,-0.0767967,-0.768262,29.8264,0.2844258,
2,0,0,1,0,22841.7,0.28326,0.282951,-1.04039,12,0.0178084,10,-0.000294378,-2.98281,-0.0990815,-0.59547,24.0437,0.282951,
2,0,0,1,0,22841.8,0.28176,0.281435,-1.08191,12,0.0177815,10,-0.000304488,-2.96581,-0.108358,-0.544489,22.6578,0.281435,
2,0,0,1,0,22841.8,0.280261,0.279982,-1.10681,12,0.0177537,10,-0.000309888,-2.95593,-0.110993,-0.531565,22.8617,0.279982,
2,0,0,1,0,22841.8,0.278761,0.278443,-1.1331,12,0.0177253,10,-0.000315505,-2.94573,-0.132303,-0.445945,19.7915,0.278443,
2,0,0,1,0,22841.8,0.277267,0.276965,-1.16267,12,0.0176962,10,-0.000322018,-2.93454,-0.157951,-0.373533,16.9813,0.276965,
2,0,0,1,0,22841.9,0.275766,0.275474,-1.19313,12,0.0176662,10,-0.000328677,-2.92331,-0.174061,-0.338961,15.6999,0.275474,
2,0,0,1,0,22841.9,0.274265,0.273915,-1.22228,12,0.0176356,10,-0.000334801,-2.91283,-0.159699,-0.369445,17.5533,0.2739152,
2,0,0,1,0,22841.9,0.272771,0.272503,-1.23936,12,0.0176045,10,-0.000337729,-2.9068,-0.168871,-0.34938,16.9914,0.272503,
2,0,0,1,0,22841.9,0.271272,0.270947,-1.2639,12,0.0175727,10,-0.000342452,-2.89829,-0.191465,-0.30815,15.2292,0.270947,
2,0,0,1,0,22842,0.269772,0.269456,-1.29714,12,0.0175403,10,-0.000349522,-2.88701,-0.19394,-0.304219,15.2902,0.269456,
2,0,0,1,0,22842,0.268273,0.267907,-1.31744,12,0.0175073,10,-0.000352951,-2.88027,-0.195338,-0.30204,15.4379,0.267907,
2,0,0,1,0,22842,0.26678,0.266465,-1.32433,12,0.0174739,10,-0.000352887,-2.878,-0.215747,-0.273468,14.2332,0.266465,
2,0,0,1,0,22842,0.265279,0.264945,-1.34831,12,0.01744,10,-0.000357227,-2.87021,-0.216936,-0.27197,14.328,0.264945,
2,0,0,1,0,22842.1,0.263778,0.263472,-1.37701,12,0.0174055,10,-0.000362804,-2.86106,-0.240344,-0.245481,13.1135,0.263472,
2,0,0,1,0,22842.1,0.262284,0.261975,-1.38927,12,0.0173706,10,-0.000363954,-2.85721,-0.245145,-0.240674,13.0221,0.261975,
2,0,0,1,0,22842.1,0.260784,0.260508,-1.39488,12,0.0173352,10,-0.000363379,-2.85546,-0.280117,-0.210626,11.586,0.260508,
2,0,0,1,0,22842.1,0.259285,0.258958,-1.42103,12,0.0172994,10,-0.000367986,-2.8474,-0.278894,-0.21155,11.7833,0.258958,
2,0,0,1,0,22842.2,0.257791,0.257471,-1.45158,12,0.0172633,10,-0.000373741,-2.83816,-0.31445,-0.187629,10.5746,0.257471,
2,0,0,1,0,22842.2,0.25629,0.255983,-1.46439,12,0.0172265,10,-0.000374858,-2.83434,-0.295843,-0.19943,11.3182,0.255983,
2,0,0,1,0,22842.2,0.254789,0.254438,-1.47215,12,0.0171893,10,-0.00037457,-2.83205,-0.310112,-0.190254,10.9917,0.254438,
2,0,0,1,0,22842.2,0.253296,0.25294,-1.48786,12,0.017152,10,-0.000376339,-2.82744,-0.342192,-0.172418,10.0415,0.25294,
2,0,0,1,0,22842.3,0.251797,0.251402,-1.50821,12,0.0171141,10,-0.000379167,-2.82154,-0.293642,-0.200925,11.8043,0.251402,
2,0,0,1,0,22842.3,0.250297,0.249993,-1.52642,12,0.0170757,10,-0.000381593,-2.81633,-0.347537,-0.169766,10.0671,0.249993,
2,0,0,1,0,22842.3,0.248797,0.248469,-1.52992,12,0.017037,10,-0.000380138,-2.81533,-0.3407,-0.173173,10.404,0.248469,
2,0,0,1,0,22842.3,0.247303,0.246951,-1.55063,12,0.0169981,10,-0.000382928,-2.80949,-0.47711,-0.123661,7.50424,0.246951,
2,0,0,1,0,22842.4,0.245802,0.245524,-1.5686,12,0.0169587,10,-0.00038513,-2.80449,-0.345954,-0.170543,10.3971,0.245524,
2,0,0,1,0,22842.4,0.244302,0.243986,-1.58679,12,0.0169188,10,-0.000387155,-2.79948,-0.366624,-0.160928,9.90617,0.243986,
2,0,0,1,0,22842.4,0.242807,0.242454,-1.59905,12,0.0168788,10,-0.000387695,-2.79614,-0.409596,-0.144045,8.99815,0.242454,
2,0,0,1,0,22842.4,0.241308,0.240981,-1.60518,12,0.0168383,10,-0.000386819,-2.79448,-0.438495,-0.134551,8.46228,0.240981,
2,0,0,1,0,22842.5,0.239808,0.23946,-1.62627,12,0.0167975,10,-0.000389427,-2.78881,-0.362961,-0.162552,10.291,0.23946,
2,0,0,1,0,22842.5,0.238309,0.237968,-1.63667,12,0.0167562,10,-0.000389474,-2.78604,-0.386284,-0.152737,9.75783,0.237968,
2,0,0,1,0,22842.5,0.236815,0.236487,-1.64878,12,0.0167148,10,-0.000389917,-2.78284,-0.445103,-0.132554,8.53521,0.236487,
2,0,0,1,0,22842.5,0.235315,0.235023,-1.6578,12,0.016673,10,-0.000389622,-2.78047,-0.467417,-0.126226,8.20314,0.235023,
2,0,0,1,0,22842.6,0.233814,0.233497,-1.68199,12,0.0166308,10,-0.00039274,-2.77418,-0.526171,-0.112131,7.31917,0.233497,
2,0,0,1,0,22842.6,0.23232,0.231966,-1.69606,12,0.0165884,10,-0.000393427,-2.77056,-0.38646,-0.152668,10.0448,0.231966,
2,0,0,1,0,22842.6,0.230821,0.230497,-1.70223,12,0.0165455,10,-0.000392359,-2.76898,-0.490592,-0.120263,7.97905,0.230497,
2,0,0,1,0,22842.6,0.229321,0.228988,-1.71066,12,0.0165024,10,-0.000391721,-2.76684,-0.678018,-0.0870183,5.8433,0.228988,
2,0,0,1,0,22842.7,0.227827,0.227505,-1.73048,12,0.0164591,10,-0.000393692,-2.76183,-0.504903,-0.116854,7.87796,0.227505,
2,0,0,1,0,22842.7,0.226326,0.226049,-1.74711,12,0.0164152,10,-0.000394932,-2.75768,-0.406538,-0.145128,9.85225,0.226049,
2,0,0,1,0,22842.7,0.224825,0.224501,-1.75463,12,0.0163711,10,-0.000393915,-2.75582,-0.507904,-0.116164,7.94213,0.224501,
2,0,0,1,0,22842.7,0.223331,0.223033,-1.76682,12,0.0163268,10,-0.00039406,-2.75281,-0.49589,-0.118978,8.20752,0.223033,
2,0,0,1,0,22842.8,0.221831,0.221527,-1.78024,12,0.0162821,10,-0.000394372,-2.74952,-0.550942,-0.107089,7.43404,0.221527,
2,0,0,1,0,22842.8,0.220333,0.220029,-1.79329,12,0.016237,10,-0.000394577,-2.74635,-0.331245,-0.178116,12.4517,0.220029,
2,0,0,1,0,22842.8,0.218834,0.218514,-1.80104,12,0.0161916,10,-0.000393551,-2.74448,-0.333468,-0.176928,12.4947,0.218514,
2,0,0,1,0,22842.8,0.217339,0.217014,-1.81468,12,0.016146,10,-0.000393813,-2.7412,-0.650085,-0.0907574,6.44904,0.217014,
2,0,0,1,0,22842.9,0.215839,0.215546,-1.82966,12,0.0161,10,-0.000394377,-2.73763,-0.611108,-0.096546,6.88159,0.215546,
2,0,0,1,0,22842.9,0.214338,0.214025,-1.84601,12,0.0160537,10,-0.000395094,-2.73377,-0.451518,-0.13067,9.37625,0.214025,
2,0,0,1,0,22842.9,0.212844,0.212528,-1.85519,12,0.0160072,10,-0.00039428,-2.73161,-0.421778,-0.139884,10.1397,0.212528,
2,0,0,1,0,22842.9,0.211344,0.211056,-1.86892,12,0.0159602,10,-0.000394448,-2.72841,-0.695896,-0.0847828,6.18237,0.211056,
2,0,0,1,0,22843,0.209845,0.209517,-1.87987,12,0.0159129,10,-0.000393864,-2.72587,-0.668363,-0.0882753,6.4787,0.209517,
2,0,0,1,0,22843,0.20835,0.20808,-1.89602,12,0.0158655,10,-0.000394522,-2.72216,-0.352872,-0.167199,12.3806,0.20808,
2,0,0,1,0,22843,0.206851,0.206531,-1.90846,12,0.0158176,10,-0.000394155,-2.71932,-0.357252,-0.16515,12.291,0.206531,
2,0,0,1,0,22843,0.20535,0.205015,-1.92142,12,0.0157691,10,-0.000393919,-2.71638,-0.641541,-0.0919661,6.8849,0.205015,
2,0,0,1,0,22843.1,0.203856,0.203561,-1.93834,12,0.0157206,10,-0.00039457,-2.71257,-0.664141,-0.0888366,6.70584,0.203561,
2,0,0,1,0,22843.1,0.202356,0.202032,-1.94612,12,0.0156717,10,-0.000393179,-2.71083,-0.456961,-0.129114,9.81814,0.202032,
2,0,0,1,0,22843.1,0.200857,0.200506,-1.9569,12,0.0156225,10,-0.000392371,-2.70843,-0.410741,-0.143643,10.9802,0.200506,
2,0,0,1,0,22843.1,0.199357,0.199042,-1.97288,12,0.0155729,10,-0.000392686,-2.7049,-0.634017,-0.0930575,7.18107,0.199042,
2,0,0,1,0,22843.2,0.197863,0.197558,-1.99134,12,0.0155231,10,-0.000393405,-2.70085,-0.66787,-0.0883405,6.84107,0.197558,
2,0,0,1,0,22843.2,0.196362,0.196026,-2.00718,12,0.0154728,10,-0.000393458,-2.69741,-0.46721,-0.126281,9.85306,0.196026,
2,0,0,1,0,22843.2,0.194861,0.194552,-2.01548,12,0.0154222,10,-0.000392117,-2.69562,-0.408473,-0.14444,11.3571,0.194552,
2,0,0,1,0,22843.2,0.193367,0.193028,-2.02955,12,0.0153714,10,-0.000391761,-2.6926,-0.51145,-0.115358,9.149,0.193028,
2,0,0,1,0,22843.3,0.191868,0.191539,-2.04895,12,0.0153199,10,-0.000392454,-2.68847,-0.60096,-0.0981762,7.82937,0.191539,
2,0,0,1,0,22843.3,0.190368,0.190003,-2.06075,12,0.0152681,10,-0.000391548,-2.68597,-0.430694,-0.136988,11.025,0.190003,
2,0,0,1,0,22843.3,0.18887,0.188541,-2.07121,12,0.0152159,10,-0.000390508,-2.68378,-0.349082,-0.169015,13.7318,0.188541,
2,0,0,1,0,22843.3,0.187376,0.187065,-2.09196,12,0.0151636,10,-0.000391332,-2.67945,-0.480311,-0.122837,10.0622,0.187065,
2,0,0,1,0,22843.4,0.185875,0.185543,-2.11232,12,0.0151105,10,-0.000391926,-2.67524,-0.530331,-0.111251,9.14627,0.185543,
2,0,0,1,0,22843.4,0.184374,0.184031,-2.13186,12,0.015057,10,-0.000392328,-2.67124,-0.389663,-0.151413,12.5694,0.184031,
2,0,0,1,0,22843.4,0.18288,0.182579,-2.14168,12,0.0150034,10,-0.000391025,-2.66925,-0.361476,-0.16322,13.6879,0.182579,
2,0,0,1,0,22843.4,0.18138,0.181083,-2.1597,12,0.014949,10,-0.000391086,-2.66561,-0.394261,-0.149647,12.6701,0.181083,
2,0,0,1,0,22843.5,0.179881,0.179581,-2.1894,12,0.0148941,10,-0.000393175,-2.65968,-0.478735,-0.123241,10.5107,0.179581,
2,0,0,1,0,22843.5,0.178387,0.178058,-2.21041,12,0.0148389,10,-0.000393582,-2.65553,-0.369484,-0.159682,13.7461,0.178058,
2,0,0,1,0,22843.5,0.176886,0.176578,-2.22817,12,0.0147831,10,-0.000393445,-2.65205,-0.301243,-0.195855,17.062,0.1765777,
2,0,0,1,0,22843.5,0.175385,0.175087,-2.25363,12,0.0147266,10,-0.000394581,-2.64712,-0.356818,-0.16535,14.5314,0.175087,
2,0,0,1,0,22843.6,0.173892,0.173537,-2.28004,12,0.0146698,10,-0.000395671,-2.64206,-0.337904,-0.174606,15.5033,0.173537,
2,0,0,1,0,22843.6,0.172392,0.172093,-2.30984,12,0.0146121,10,-0.000397507,-2.63642,-0.28229,-0.209005,18.7448,0.172093,
2,0,0,1,0,22843.6,0.170893,0.1706,-2.32607,12,0.0145538,10,-0.000396828,-2.63338,-0.286895,-0.20565,18.6954,0.1706,
2,0,0,1,0,22843.6,0.169393,0.169053,-2.34958,12,0.0144948,10,-0.000397203,-2.62901,-0.274005,-0.215325,19.8364,0.169053,
2,0,0,1,0,22843.7,0.167899,0.167566,-2.39443,12,0.0144353,10,-0.000401226,-2.6208,-0.288488,-0.204515,19.0669,0.167566,
2,0,0,1,0,22843.7,0.166398,0.166053,-2.42607,12,0.0143747,10,-0.000402854,-2.6151,-0.258956,-0.227838,21.5008,0.166053,
2,0,0,1,0,22843.7,0.164898,0.164551,-2.45035,12,0.0143134,10,-0.000403208,-2.61077,-0.224937,-0.262296,25.1543,0.164551,
2,0,0,1,0,22843.7,0.163403,0.163072,-2.48799,12,0.0142514,10,-0.000405722,-2.60415,-0.224872,-0.262372,25.5567,0.1630719,
2,0,0,1,0,22843.8,0.161904,0.161578,-2.53614,12,0.0141882,10,-0.000409785,-2.59583,-0.208075,-0.283551,28.0503,0.161578,
2,0,0,1,0,22843.8,0.160404,0.160137,-2.5842,12,0.0141239,10,-0.000413825,-2.58767,-0.188675,-0.312706,31.4277,0.160137,
2,0,0,1,0,22843.8,0.158905,0.158595,-2.61683,12,0.0140584,10,-0.000415016,-2.58223,-0.171038,-0.344952,35.3554,0.158595,
2,0,0,1,0,22843.8,0.157411,0.157066,-2.67042,12,0.013992,10,-0.000419434,-2.57342,-0.168661,-0.349813,36.688,0.157066,
2,0,0,1,0,22843.9,0.155911,0.155614,-2.73504,12,0.013924,10,-0.00042561,-2.56304,-0.156781,-0.37632,40.2042,0.155614,
2,0,0,1,0,22843.9,0.15441,0.154064,-2.80412,12,0.0138543,10,-0.000432015,-2.5522,-0.144573,-0.408098,44.5194,0.154064,
2,0,0,1,0,22843.9,0.152916,0.152586,-2.86058,12,0.0137834,10,-0.000436485,-2.54355,-0.134377,-0.439063,49.2396,0.152586,
2,0,0,1,0,22843.9,0.151417,0.151096,-2.93362,12,0.0137104,10,-0.000443258,-2.5326,-0.132878,-0.444018,51.0768,0.1510959,
2,0,0,1,0,22844,0.149917,0.149568,-3.02727,12,0.0136354,10,-0.000452783,-2.51895,-0.121095,-0.48722,57.6088,0.149568,
2,0,0,1,0,22844,0.148423,0.148108,-3.12039,12,0.0135585,10,-0.000462155,-2.50579,-0.106641,-0.55326,67.4107,0.148108,
2,0,0,1,0,22844,0.146922,0.146647,-3.22021,12,0.0134788,10,-0.000472234,-2.49212,-0.101314,-0.582346,73.3715,0.146647,
2,0,0,1,0,22844,0.145421,0.145118,-3.32346,12,0.0133965,10,-0.000482293,-2.47841,-0.0993866,-0.593641,77.4391,0.145118,
2,0,0,1,0,22844.1,0.143927,0.143618,-3.45809,12,0.0133116,10,-0.000496643,-2.46116,-0.0924863,-0.637932,86.1878,0.143618,
2,0,0,1,0,22844.1,0.142429,0.14208,-3.59578,12,0.0132231,10,-0.000510889,-2.44421,-0.0865009,-0.682074,95.6754,0.14208,
2,0,0,1,0,22844.1,0.140929,0.14058,-3.73441,12,0.013131,10,-0.000524985,-2.42778,-0.0850895,-0.693388,101.271,0.14058,
2,0,0,1,0,22844.1,0.13943,0.139079,-3.88013,12,0.0130352,10,-0.000539644,-2.41115,-0.0873727,-0.675268,102.627,0.139079,
2,0,0,1,0,22844.2,0.137935,0.13758,-4.05485,12,0.0129359,10,-0.000557867,-2.39203,-0.0854825,-0.6902,109.24,0.13758,
2,0,0,1,0,22844.2,0.136435,0.136117,-4.22068,12,0.0128321,10,-0.000574505,-2.37462,-0.084606,-0.69735,114.7,0.136117,
2,0,0,1,0,22844.2,0.134934,0.13461,-4.39869,12,0.0127239,10,-0.000592107,-2.35668,-0.0842889,-0.699973,119.925,0.1346097,
2,0,0,1,0,22844.2,0.13344,0.133122,-4.56691,12,0.0126118,10,-0.000607954,-2.34038,-0.0907164,-0.650378,115.964,0.133122,
2,0,0,1,0,22844.3,0.13194,0.13162,-4.74874,12,0.0124949,10,-0.000625029,-2.32342,-0.0973091,-0.606315,112.236,0.13162,
2,0,0,1,0,22844.3,0.13044,0.13013,-4.91847,12,0.0123736,10,-0.00064004,-2.30817,-0.0971169,-0.607515,116.637,0.13013,
2,0,0,1,0,22844.3,0.128941,0.128609,-5.10019,12,0.0122479,10,-0.000655932,-2.29241,-0.101895,-0.57903,114.886,0.128609,
2,0,0,1,0,22844.3,0.127447,0.12713,-5.26101,12,0.0121184,10,-0.000668831,-2.27893,-0.110362,-0.534604,109.669,0.12713,
2,0,0,1,0,22844.4,0.125946,0.125644,-5.42571,12,0.0119843,10,-0.000681707,-2.26554,-0.122803,-0.480446,101.535,0.125644,
2,0,0,1,0,22844.4,0.124446,0.124126,-5.58361,12,0.0118463,10,-0.00069307,-2.25309,-0.125867,-0.468748,101.77,0.124126,
2,0,0,1,0,22844.4,0.122952,0.122675,-5.72356,12,0.0117051,10,-0.000702135,-2.24233,-0.134792,-0.437712,97.5706,0.122675,
2,0,0,1,0,22844.4,0.121453,0.121117,-5.85577,12,0.0115598,10,-0.000709234,-2.23242,-0.160378,-0.367882,83.9746,0.1211172,
2,0,0,1,0,22844.5,0.119953,0.11961,-5.97527,12,0.0114113,10,-0.000714699,-2.22364,-0.175282,-0.336601,78.4953,0.11961,
2,0,0,1,0,22844.5,0.118459,0.118169,-6.10179,12,0.0112604,10,-0.000721045,-2.21454,-0.186573,-0.316231,75.1143,0.1181695,
2,0,0,1,0,22844.5,0.116958,0.116631,-6.21667,12,0.0111061,10,-0.000725057,-2.20644,-0.209144,-0.282102,68.202,0.1166312,
2,0,0,1,0,22844.5,0.115457,0.115137,-6.29949,12,0.0109492,10,-0.000725306,-2.20069,-0.252497,-0.233666,57.3386,0.115137,
2,0,0,1,0,22844.6,0.113963,0.113678,-6.37622,12,0.0107909,10,-0.000724836,-2.19544,-0.298542,-0.197627,49.1399,0.113678,
2,0,0,1,0,22844.6,0.112464,0.11216,-6.46572,12,0.01063,10,-0.000725195,-2.18938,-0.329177,-0.179235,45.0769,0.11216,
2,0,0,1,0,22844.6,0.110965,0.110669,-6.5182,12,0.0104673,10,-0.000721364,-2.18587,-0.379199,-0.155591,39.5059,0.110669,
2,0,0,1,0,22844.6,0.109466,0.109157,-6.56736,12,0.0103032,10,-0.000716871,-2.18261,-0.503178,-0.117255,30.0307,0.109157,
2,0,0,1,0,22844.7,0.107972,0.107647,-6.61102,12,0.0101385,10,-0.000711654,-2.17973,-0.6857,-0.0860435,22.1781,0.107647,
2,0,0,1,0,22844.7,0.106471,0.106167,-6.64671,12,0.00997238,10,-0.000705662,-2.17739,-0.923265,-0.0639037,16.5427,0.106167,
2,0,0,1,0,22844.7,0.10497,0.104652,-6.66143,12,0.00980552,10,-0.00069713,-2.17643,-1.17668,-0.0501411,13.0223,0.104652,
2,0,0,1,0,22844.7,0.103476,0.103166,-6.67441,12,0.00963892,10,-0.000688573,-2.17559,-23.5023,-0.00251039,0.65273,0.1031661,
2,0,0,1,0,22844.8,0.101976,0.101641,-6.67466,12,0.00947158,10,-0.00067842,-2.17557,1.39338,0.042343,-11.006,0.101641,
2,0,0,1,0,22844.8,0.100477,0.100164,-6.65366,12,0.00930461,10,-0.000666457,-2.17694,1.21079,0.0487286,-12.6414,0.100164,
2,0,0,1,0,22844.8,0.0989825,0.0986773,-6.62934,12,0.00913879,10,-0.000654165,-2.17853,0.98967,0.0596158,-15.4048,0.0986773,
2,0,0,1,0,22844.8,0.0974817,0.0971566,-6.59694,12,0.00897295,10,-0.000640936,-2.18066,0.617085,0.0956109,-24.6105,0.0971566,
2,0,0,1,0,22844.9,0.0959822,0.0956666,-6.55671,12,0.00880802,10,-0.000627258,-2.18331,0.470797,0.125319,-32.0374,0.09566655,
2,0,0,1,0,22844.9,0.094488,0.0941695,-6.51072,12,0.00864492,10,-0.000613112,-2.18637,0.419208,0.140742,-35.7022,0.0941695,
2,0,0,1,0,22844.9,0.0929884,0.092664,-6.45145,12,0.00848248,10,-0.000597817,-2.19034,0.424282,0.139058,-34.994,0.092664,
2,0,0,1,0,22844.9,0.0914889,0.0911981,-6.39117,12,0.00832142,10,-0.000582863,-2.19442,0.376926,0.156529,-39.0389,0.0911981,
2,0,0,1,0,22845,0.0899893,0.0896391,-6.33708,12,0.00816178,10,-0.00056805,-2.19811,0.323564,0.182344,-45.0189,0.08963912,
2,0,0,1,0,22845,0.0884951,0.0881577,-6.2634,12,0.00800446,10,-0.000552167,-2.20319,0.312501,0.188799,-46.1914,0.0881577,
2,0,0,1,0,22845,0.0869943,0.0866927,-6.19653,12,0.00784829,10,-0.000537195,-2.20785,0.345715,0.170661,-41.3382,0.0866927,
2,0,0,1,0,22845,0.0854935,0.085165,-6.13994,12,0.00769361,10,-0.000522908,-2.21184,0.341222,0.172908,-41.4329,0.085165,
2,0,0,1,0,22845.1,0.0839993,0.0836932,-6.07682,12,0.00754101,10,-0.000508588,-2.21632,0.320279,0.184214,-43.6708,0.0836932,
2,0,0,1,0,22845.1,0.0824998,0.0822026,-6.02363,12,0.00738932,10,-0.000495158,-2.22014,0.363805,0.162175,-38.1097,0.0822026,
2,0,0,1,0,22845.1,0.0810002,0.0806753,-5.96004,12,0.00723918,10,-0.000480828,-2.22475,0.415604,0.141962,-33.0579,0.0806753,
2,0,0,1,0,22845.1,0.0795007,0.0791548,-5.90653,12,0.00709032,10,-0.00046753,-2.22867,0.452984,0.130247,-30.0845,0.0791548,
2,0,0,1,0,22845.2,0.0780078,0.0776868,-5.87246,12,0.00694317,10,-0.000456213,-2.23118,0.438826,0.13445,-30.8036,0.0776868,
2,0,0,1,0,22845.2,0.076507,0.0761641,-5.83225,12,0.0067965,10,-0.000444208,-2.23416,0.466184,0.126559,-28.7792,0.0761641,
2,0,0,1,0,22845.2,0.0750062,0.0746675,-5.78086,12,0.00665099,10,-0.000431642,-2.23801,0.538197,0.109625,-24.7565,0.0746675,
2,0,0,1,0,22845.2,0.073512,0.0732153,-5.74465,12,0.00650702,10,-0.000420596,-2.24074,0.596485,0.0989127,-22.1877,0.0732153,
2,0,0,1,0,22845.3,0.0720124,0.0716965,-5.71217,12,0.0063633,10,-0.000409543,-2.2432,0.539255,0.10941,-24.4049,0.0716965,
2,0,0,1,0,22845.3,0.0705129,0.0702075,-5.68479,12,0.00622041,10,-0.000399114,-2.24529,0.569819,0.103542,-22.9535,0.0702075,
2,0,0,1,0,22845.3,0.0690187,0.068708,-5.64676,12,0.00607897,10,-0.000387978,-2.2482,0.622306,0.0948087,-20.8983,0.068708,
2,0,0,1,0,22845.3,0.0675179,0.0672172,-5.61644,12,0.00593777,10,-0.000377521,-2.25054,0.696952,0.0846544,-18.573,0.0672172,
2,0,0,1,0,22845.4,0.066017,0.0657017,-5.59636,12,0.00579724,10,-0.00036769,-2.25209,0.691362,0.0853388,-18.608,0.0657017,
2,0,0,1,0,22845.4,0.0645242,0.06418,-5.56935,12,0.00565787,10,-0.000357441,-2.2542,0.642832,0.0917814,-19.8911,0.06418,
2,0,0,1,0,22845.4,0.0630246,0.0626855,-5.52802,12,0.00551874,10,-0.000346527,-2.25743,0.681131,0.0866206,-18.6923,0.0626855,
2,0,0,1,0,22845.4,0.0615251,0.0611776,-5.49697,12,0.00538045,10,-0.000336291,-2.25988,0.691463,0.0853263,-18.3353,0.0611776,
2,0,0,1,0,22845.5,0.0600256,0.0597159,-5.4695,12,0.00524285,10,-0.000326616,-2.26205,0.592292,0.099613,-21.286,0.0597159,
2,0,0,1,0,22845.5,0.0585314,0.0581793,-5.44795,12,0.00510651,10,-0.000316958,-2.26377,0.587866,0.100363,-21.2932,0.0581793,
2,0,0,1,0,22845.5,0.0570305,0.0566732,-5.41718,12,0.0049703,10,-0.000307009,-2.26623,0.637227,0.0925887,-19.5475,0.0566732,
2,0,0,1,0,22845.5,0.0555297,0.0552032,-5.37557,12,0.00483501,10,-0.000296749,-2.26958,0.580364,0.10166,-21.3527,0.0552032,
2,0,0,1,0,22845.6,0.0540355,0.0537815,-5.35161,12,0.00470094,10,-0.000287818,-2.27152,0.574263,0.10274,-21.4514,0.0537815,
2,0,0,1,0,22845.6,0.052536,0.0522053,-5.32876,12,0.00456701,10,-0.00027819,-2.27337,0.625625,0.0943056,-19.582,0.0522053,
2,0,0,1,0,22845.6,0.0510364,0.0507358,-5.29506,12,0.00443386,10,-0.000268649,-2.27613,0.605052,0.0975123,-20.1391,0.05073582,
2,0,0,1,0,22845.6,0.0495369,0.0492403,-5.25243,12,0.00430157,10,-0.000258631,-2.27964,0.54836,0.107594,-22.098,0.04924031,
2,0,0,1,0,22845.7,0.0480427,0.047728,-5.22518,12,0.0041706,10,-0.000249387,-2.2819,0.545503,0.108157,-22.0546,0.047728,
2,0,0,1,0,22845.7,0.0465432,0.0462216,-5.19803,12,0.0040399,10,-0.000240261,-2.28416,0.547402,0.107782,-21.8371,0.04622161,
2,0,0,1,0,22845.7,0.0450424,0.0447112,-5.16279,12,0.00390996,10,-0.000230835,-2.28712,0.573399,0.102895,-20.7055,0.0447112,
2,0,0,1,0,22845.7,0.0435482,0.0432319,-5.11751,12,0.00378143,10,-0.00022124,-2.29094,0.519264,0.113622,-22.736,0.0432319,
2,0,0,1,0,22845.8,0.0420486,0.0417684,-5.08535,12,0.0036533,10,-0.000212407,-2.29368,0.466577,0.126453,-25.1398,0.0417684,
2,0,0,1,0,22845.8,0.0405491,0.0402172,-5.0645,12,0.00352598,10,-0.00020368,-2.29546,0.500274,0.117935,-23.2901,0.0402172,
2,0,0,1,0,22845.8,0.0390549,0.0387341,-5.02486,12,0.00339997,10,-0.000194634,-2.29888,0.496596,0.118809,-23.2519,0.0387341,
2,0,0,1,0,22845.8,0.0375541,0.037177,-4.98097,12,0.00327439,10,-0.000185177,-2.30269,0.436906,0.135041,-26.2788,0.037177,
2,0,0,1,0,22845.9,0.0360532,0.0357163,-4.94159,12,0.00314989,10,-0.000176495,-2.30613,0.380226,0.155171,-29.9597,0.0357163,
2,0,0,1,0,22845.9,0.034559,0.0342421,-4.91083,12,0.0030268,10,-0.000168157,-2.30885,0.438286,0.134615,-25.7361,0.03424206,
2,0,0,1,0,22845.9,0.0330595,0.0327543,-4.86988,12,0.00290419,10,-0.000159509,-2.31248,0.422458,0.139659,-26.5008,0.0327543,
2,0,0,1,0,22845.9,0.0315613,0.0312072,-4.81981,12,0.00278259,10,-0.000150413,-2.31697,0.399085,0.147838,-27.8425,0.0312072,
2,0,0,1,0,22846,0.0300618,0.0297491,-4.77533,12,0.00266212,10,-0.000142062,-2.321,0.360287,0.163758,-30.563,0.0297491,
2,0,0,1,0,22846,0.0285676,0.0282265,-4.74295,12,0.00254313,10,-0.000133877,-2.32395,0.393893,0.149787,-27.6788,0.0282265,
2,0,0,1,0,22846,0.0270667,0.0267041,-4.69973,12,0.0024247,10,-0.000125502,-2.32793,0.413001,0.142857,-26.1875,0.0267041,
2,0,0,1,0,22846,0.0255659,0.0252487,-4.65073,12,0.00230731,10,-0.000117425,-2.33248,0.373984,0.157761,-28.6663,0.0252487,
2,0,0,1,0,22846.1,0.0240717,0.0237642,-4.60752,12,0.0021915,10,-0.000109494,-2.33653,0.343032,0.171995,-30.981,0.0237642,
2,0,0,1,0,22846.1,0.0225722,0.0222374,-4.56907,12,0.00207629,10,-0.000101604,-2.34017,0.380302,0.15514,-27.6762,0.0222374,
2,0,0,1,0,22846.1,0.0210726,0.0207404,-4.53131,12,0.00196209,10,-9.3981e-05,-2.34378,0.419005,0.14081,-24.9044,0.0207404,
2,0,0,1,0,22846.1,0.0195784,0.0192678,-4.49101,12,0.00184933,10,-8.65318e-05,-2.34766,0.361178,0.163355,-28.629,0.0192678,
2,0,0,1,0,22846.2,0.0180789,0.0177544,-4.44381,12,0.00173713,10,-7.88972e-05,-2.35224,0.377184,0.156422,-27.1871,0.0177544,
2,0,0,1,0,22846.2,0.0165781,0.0162289,-4.41584,12,0.00162598,10,-7.16642e-05,-2.35499,0.402138,0.146716,-25.2746,0.0162289,
2,0,0,1,0,22846.2,0.0150839,0.0147851,-4.38333,12,0.00151608,10,-6.48081e-05,-2.3582,0.534532,0.110377,-18.8551,0.0147851,
2,0,0,1,0,22846.2,0.0135844,0.0132102,-4.34262,12,0.00140651,10,-5.73667e-05,-2.36225,0.435842,0.13537,-22.9588,0.0132102,
2,0,0,1,0,22846.3,0.0120848,0.0117608,-4.30881,12,0.00129781,10,-5.06751e-05,-2.36564,0.421173,0.140085,-23.6084,0.0117608,
2,0,0,1,0,22846.3,0.0105853,0.0102454,-4.28194,12,0.00119001,10,-4.38704e-05,-2.36836,0.475236,0.124149,-20.7535,0.0102454,
2,0,0,1,0,22846.3,0.00909108,0.00879088,-4.25335,12,0.00108332,10,-3.73907e-05,-2.37127,0.643481,0.0916888,-15.2182,0.00879088,
2,0,0,1,0,22846.3,0.00759027,0.0072428,-4.22208,12,0.00097687,10,-3.05797e-05,-2.37447,0.579781,0.101763,-16.7985,0.0072428,
2,0,0,1,0,22846.4,0.00608945,0.00575926,-4.20908,12,0.000871019,10,-2.42412e-05,-2.37581,0.526973,0.11196,-18.3708,0.00575926,
2,0,0,1,0,22846.4,0.00459524,0.00425821,-4.18549,12,0.000766249,10,-1.78227e-05,-2.37825,0.688243,0.0857255,-13.9898,0.00425821,
2,0,0,1,0,22846.4,0.0030957,0.00276295,-4.16539,12,0.000661538,10,-1.15088e-05,-2.38034,5.20514,0.0113349,-1.84583,0.00276295,
2,0,0,1,0,22846.4,0.00159616,0.00122101,-4.17668,12,0.000556711,10,-5.09976e-06,-2.37917, , , ,0.001221007,
2,0,0,1,0,22846.4,0.000199195,-0.000157355,-4.14532,12,0.000459267,10,6.52287e-07,-2.38244, , , ,-0.000157355,