File: Figure_codes/Fig_3-5/rawdata_trumpetplot_data/after 10th/20221101_1-115_003_TrumpetPlot_ParaChange_from10_every3_04_CV_C01_31.csv
mode,ox/red,error,control changes,counter inc.,time/s,control/V,Ewe/V,<I>/mA,cycle number,(Q-Qo)/C,I Range,P/W,log(|I|),Tafel slope mV/dec,alpha_eff,dI/d(E-IR),E-IR/V,
2,0,0,1,0,62134.1,2.44065e-05,-0.000325324,-0.390697,32,0.0000000E+000,10,1.27103e-07,-3.40816, , , ,-0.000325324,
2,1,0,1,0,62134.2,0.00129787,0.000879298,0.069334,32,-9.67188e-06,10,6.09653e-08,-4.15905, , , ,0.000879298,
2,1,0,1,0,62134.3,0.00279606,0.00243704,0.222612,32,1.61538e-05,10,5.42513e-07,-3.65245,0.00429785,13.7278,79.6803,0.00243704,
2,1,0,1,0,62134.5,0.00429425,0.00398947,0.275008,32,5.58437e-05,10,1.09714e-06,-3.56065,0.0181865,3.24417,31.4177,0.00398947,
2,1,0,1,0,62134.6,0.00579244,0.00547192,0.306792,32,0.000101697,10,1.67874e-06,-3.51316,0.0348485,1.69304,19.7724,0.00547192,
2,1,0,1,0,62134.8,0.00729063,0.00695649,0.333187,32,0.000151703,10,2.31781e-06,-3.47731,0.05207,1.13309,14.5239,0.00695649,
2,1,0,1,0,62134.9,0.00878882,0.00840182,0.353802,32,0.000205051,10,2.97258e-06,-3.45124,0.0640072,0.921772,12.5926,0.00840182,
2,1,0,1,0,62135.1,0.010287,0.00993941,0.370136,32,0.00026117,10,3.67893e-06,-3.43164,0.086201,0.684447,9.80155,0.00993941,
2,1,0,1,0,62135.2,0.0117852,0.0113657,0.382686,32,0.000319565,10,4.34947e-06,-3.41716,0.093648,0.630019,9.40743,0.0113657,
2,1,0,1,0,62135.4,0.0132838,0.0129421,0.396964,32,0.00037993,10,5.13754e-06,-3.40125,0.101281,0.58254,9.05198,0.0129421,
2,1,0,1,0,62135.5,0.0147814,0.0144331,0.408956,32,0.000442295,10,5.90251e-06,-3.38832,0.108259,0.544989,8.69848,0.0144331,
2,1,0,1,0,62135.7,0.0162789,0.0159423,0.421902,32,0.000506682,10,6.72609e-06,-3.37479,0.130745,0.451261,7.40279,0.0159423,
2,1,0,1,0,62135.8,0.017778,0.0174354,0.432376,32,0.000572663,10,7.53865e-06,-3.36414,0.144822,0.407396,6.85764,0.0174354,
2,1,0,1,0,62136,0.0192761,0.018903,0.442323,32,0.000639954,10,8.36123e-06,-3.35426,0.15334,0.384765,6.64192,0.018903,
2,1,0,1,0,62136.1,0.0207743,0.0204247,0.451801,32,0.000708806,10,9.22791e-06,-3.34505,0.140758,0.41916,7.38026,0.0204247,
2,1,0,1,0,62136.3,0.0222725,0.0218955,0.463597,32,0.00077933,10,1.01507e-05,-3.33386,0.159229,0.370536,6.68851,0.0218955,
2,1,0,1,0,62136.4,0.0237707,0.023432,0.472549,32,0.000851388,10,1.10728e-05,-3.32555,0.178334,0.33084,6.0859,0.023432,
2,1,0,1,0,62136.6,0.0252689,0.0249113,0.481247,32,0.000924699,10,1.19885e-05,-3.31763,0.170092,0.34687,6.53626,0.0249113,
2,1,0,1,0,62136.7,0.0267671,0.0263969,0.493326,32,0.000999548,10,1.30223e-05,-3.30687,0.151079,0.390523,7.49794,0.0263969,
2,1,0,1,0,62136.9,0.0282662,0.0278993,0.504206,32,0.00107614,10,1.4067e-05,-3.29739,0.156837,0.376187,7.38188,0.0278993,
2,1,0,1,0,62137,0.0297635,0.0294076,0.513649,32,0.00115417,10,1.51052e-05,-3.28933,0.17372,0.339627,6.78596,0.0294076,
2,1,0,1,0,62137.2,0.031261,0.030885,0.52028,32,0.00123364,10,1.60688e-05,-3.28376,0.173864,0.339345,6.91406,0.030885,
2,1,0,1,0,62137.3,0.0327599,0.0323978,0.531738,32,0.00131439,10,1.72271e-05,-3.2743,0.191732,0.307722,6.39398,0.0323978,
2,1,0,1,0,62137.5,0.034258,0.0339247,0.541973,32,0.00139667,10,1.83863e-05,-3.26602,0.191487,0.308114,6.49981,0.0339247,
2,1,0,1,0,62137.6,0.0357562,0.035403,0.550477,32,0.00148046,10,1.94885e-05,-3.25926,0.216302,0.272766,5.85493,0.03540295,
2,1,0,1,0,62137.8,0.0372544,0.0369289,0.559591,32,0.00156555,10,2.06651e-05,-3.25213,0.224551,0.262747,5.74499,0.0369289,
2,1,0,1,0,62137.9,0.0387526,0.0383922,0.569016,32,0.00165189,10,2.18458e-05,-3.24488,0.206159,0.286187,6.37306,0.0383922,
2,1,0,1,0,62138.1,0.0402508,0.0399213,0.57745,32,0.00173976,10,2.30526e-05,-3.23849,0.221995,0.265772,6.00879,0.0399213,
2,1,0,1,0,62138.2,0.041749,0.0413964,0.590933,32,0.00182929,10,2.44625e-05,-3.22846,0.223166,0.264377,6.06731,0.0413964,
2,1,0,1,0,62138.4,0.0432472,0.0428937,0.598143,32,0.00192018,10,2.56565e-05,-3.2232,0.229559,0.257014,6.00007,0.0428937,
2,1,0,1,0,62138.5,0.0447458,0.0443916,0.60627,32,0.00201233,10,2.69133e-05,-3.21733,0.230058,0.256457,6.07575,0.0443916,
2,1,0,1,0,62138.7,0.0462433,0.04585,0.615674,32,0.00210583,10,2.82286e-05,-3.21065,0.202805,0.29092,6.99044,0.04585,
2,1,0,1,0,62138.8,0.0477409,0.0473784,0.625433,32,0.00220085,10,2.9632e-05,-3.20382,0.224695,0.262578,6.40126,0.0473784,
2,1,0,1,0,62139,0.0492399,0.0488998,0.633724,32,0.00229728,10,3.0989e-05,-3.1981,0.253706,0.232553,5.75451,0.0488998,
2,1,0,1,0,62139.1,0.0507381,0.0503907,0.641548,32,0.00239483,10,3.23281e-05,-3.19277,0.252785,0.2334,5.86142,0.0503907,
2,1,0,1,0,62139.3,0.0522363,0.0518721,0.651138,32,0.00249364,10,3.37759e-05,-3.18633,0.227792,0.259008,6.5793,0.0518721,
2,1,0,1,0,62139.4,0.0537345,0.053345,0.662937,32,0.00259391,10,3.53644e-05,-3.17853,0.255068,0.231311,5.95854,0.053345,
2,1,0,1,0,62139.6,0.0552327,0.0548794,0.669459,32,0.00269543,10,3.67396e-05,-3.17428,0.319953,0.184402,4.80212,0.0548794,
2,1,0,1,0,62139.7,0.0567309,0.0564001,0.674674,32,0.00279807,10,3.80517e-05,-3.17091,0.306688,0.192378,5.07631,0.0564001,
2,1,0,1,0,62139.9,0.0582291,0.0578528,0.684115,32,0.00290163,10,3.9578e-05,-3.16487,0.309196,0.190817,5.09682,0.05785282,
2,1,0,1,0,62140,0.0597282,0.0593573,0.69378,32,0.00300671,10,4.1181e-05,-3.15878,0.302136,0.195277,5.26677,0.0593573,
2,1,0,1,0,62140.2,0.0612255,0.0608601,0.699796,32,0.00311276,10,4.25897e-05,-3.15503,0.396083,0.148959,4.0575,0.0608601,
2,1,0,1,0,62140.3,0.062723,0.0623619,0.706224,32,0.00321992,10,4.40414e-05,-3.15106,0.354921,0.166234,4.57176,0.0623619,
2,1,0,1,0,62140.5,0.0642218,0.0638865,0.711912,32,0.00332791,10,4.54816e-05,-3.14757,0.368755,0.159998,4.4472,0.0638865,
2,1,0,1,0,62140.6,0.06572,0.0653785,0.719367,32,0.00343704,10,4.70312e-05,-3.14305,0.320407,0.184141,5.17221,0.0653785,
2,1,0,1,0,62140.8,0.0672182,0.0669299,0.726105,32,0.00354733,10,4.85981e-05,-3.139,0.421545,0.139961,3.95539,0.0669299,
2,1,0,1,0,62140.9,0.0687164,0.0683975,0.733286,32,0.00365863,10,5.0155e-05,-3.13473,0.483783,0.121955,3.48381,0.0683975,
2,1,0,1,0,62141.1,0.0702146,0.0698556,0.735869,32,0.0037705,10,5.14045e-05,-3.1332,0.454158,0.129911,3.74164,0.0698556,
2,1,0,1,0,62141.2,0.0717128,0.0713582,0.743492,32,0.0038833,10,5.30542e-05,-3.12872,0.417642,0.141269,4.0967,0.0713582,
2,1,0,1,0,62141.4,0.073211,0.072882,0.748501,32,0.00399706,10,5.45522e-05,-3.12581,0.444386,0.132768,3.88389,0.072882,
2,1,0,1,0,62141.5,0.0747092,0.074357,0.755056,32,0.00411172,10,5.61437e-05,-3.12202,0.456686,0.129192,3.80134,0.074357,
2,1,0,1,0,62141.7,0.0762078,0.0758336,0.758032,32,0.00422718,10,5.74843e-05,-3.12031,0.499917,0.11802,3.50062,0.0758336,
2,1,0,1,0,62141.8,0.0777053,0.0773163,0.765307,32,0.00434334,10,5.91707e-05,-3.11616,0.392289,0.150399,4.49491,0.0773163,
2,1,0,1,0,62142,0.0792029,0.0788332,0.771296,32,0.00446038,10,6.08038e-05,-3.11278,0.463492,0.127294,3.82783,0.0788332,
2,1,0,1,0,62142.1,0.0807019,0.080343,0.776537,32,0.0045784,10,6.23893e-05,-3.10984,0.585891,0.100701,3.04448,0.080343,
2,1,0,1,0,62142.3,0.0822001,0.0818774,0.779514,32,0.00469699,10,6.38245e-05,-3.10818,0.539165,0.109428,3.33897,0.0818774,
2,1,0,1,0,62142.4,0.0836983,0.0833386,0.786581,32,0.00481621,10,6.55526e-05,-3.10426,0.459073,0.12852,3.95144,0.0833386,
2,1,0,1,0,62142.6,0.0851965,0.0848412,0.793271,32,0.0049365,10,6.73021e-05,-3.10058,0.427156,0.138123,4.27483,0.0848412,
2,1,0,1,0,62142.7,0.0866947,0.086364,0.800423,32,0.00505773,10,6.91277e-05,-3.09668,0.506686,0.116443,3.62932,0.086364,
2,1,0,1,0,62142.9,0.0881929,0.0878347,0.807617,32,0.00517997,10,7.09368e-05,-3.09279,0.395872,0.149038,4.69639,0.0878347,
2,1,0,1,0,62143,0.0896911,0.0893745,0.813721,32,0.00530299,10,7.27259e-05,-3.08952,0.389216,0.151587,4.82438,0.08937446,
2,1,0,1,0,62143.2,0.0911902,0.0908224,0.824065,32,0.00542751,10,7.48435e-05,-3.08404,0.284659,0.207265,6.64673,0.0908224,
2,1,0,1,0,62143.3,0.0926875,0.0923298,0.832677,32,0.00555344,10,7.68809e-05,-3.07952,0.271755,0.217107,7.04993,0.09232983,
2,1,0,1,0,62143.5,0.094185,0.0938498,0.841988,32,0.00568081,10,7.90205e-05,-3.07469,0.26967,0.218786,7.20307,0.0938498,
2,1,0,1,0,62143.6,0.0956838,0.0953244,0.851067,32,0.00580964,10,8.11275e-05,-3.07004,0.255092,0.231289,7.71412,0.0953244,
2,1,0,1,0,62143.8,0.097182,0.0968577,0.863965,32,0.0059403,10,8.36817e-05,-3.0635,0.211274,0.279259,9.42991,0.0968577,
2,1,0,1,0,62143.9,0.0986802,0.0983434,0.878829,32,0.00607291,10,8.6427e-05,-3.0561,0.221206,0.266719,9.15267,0.0983434,
2,1,0,1,0,62144.1,0.100178,0.0998375,0.892936,32,0.00620771,10,8.91485e-05,-3.04918,0.213905,0.275824,9.60938,0.0998375,
2,1,0,1,0,62144.2,0.101677,0.1013,0.905466,32,0.00634454,10,9.17235e-05,-3.04313,0.206883,0.285185,10.1038,0.1013,
2,1,0,1,0,62144.4,0.103175,0.102853,0.92374,32,0.00648352,10,9.50097e-05,-3.03445,0.207676,0.284097,10.2435,0.102853,
2,1,0,1,0,62144.5,0.104673,0.10431,0.940974,32,0.00662497,10,9.81533e-05,-3.02642,0.205345,0.287321,10.5233,0.10431,
2,1,0,1,0,62144.7,0.106171,0.105797,0.954532,32,0.00676891,10,0.000100987,-3.02021,0.221737,0.26608,9.89643,0.105797,
2,1,0,1,0,62144.8,0.10767,0.107313,0.969118,32,0.00691505,10,0.000103999,-3.01362,0.226236,0.26079,9.86122,0.107313,
2,1,0,1,0,62145,0.109167,0.108809,0.983175,32,0.00706322,10,0.000106978,-3.00737,0.223102,0.264453,10.1583,0.108809,
2,1,0,1,0,62145.1,0.110665,0.110286,0.998305,32,0.00721364,10,0.000110099,-3.00074,0.235327,0.250715,9.76167,0.110286,
2,1,0,1,0,62145.3,0.112164,0.111807,1.01111,32,0.00736639,10,0.00011305,-2.9952,0.281239,0.209786,8.26652,0.111807,
2,1,0,1,0,62145.4,0.113662,0.113299,1.02422,32,0.00752094,10,0.000116043,-2.98961,0.333304,0.177016,7.06345,0.113299,
2,1,0,1,0,62145.6,0.11516,0.114753,1.0341,32,0.00767692,10,0.000118666,-2.98544,0.370912,0.159068,6.41279,0.114753,
2,1,0,1,0,62145.7,0.116658,0.11632,1.04398,32,0.00783446,10,0.000121436,-2.98131,0.355763,0.165841,6.74589,0.11632,
2,1,0,1,0,62145.9,0.118157,0.117823,1.05499,32,0.00799359,10,0.000124303,-2.97675,0.44918,0.13135,5.39486,0.117823,
2,1,0,1,0,62146,0.119655,0.119297,1.06021,32,0.00815391,10,0.000126479,-2.97461,0.643158,0.0917348,3.7974,0.119297,
2,1,0,1,0,62146.2,0.121153,0.120785,1.06406,32,0.00831499,10,0.000128522,-2.97303,0.682238,0.0864801,3.60038,0.120785,
2,1,0,1,0,62146.3,0.122652,0.122305,1.07276,32,0.00847708,10,0.000131204,-2.9695,0.577527,0.10216,4.26954,0.122305,
2,1,0,1,0,62146.5,0.124149,0.123802,1.07958,32,0.00863997,10,0.000133654,-2.96675,0.634639,0.0929663,3.90643,0.123802,
2,1,0,1,0,62146.6,0.125647,0.125308,1.08273,32,0.00880369,10,0.000135674,-2.96548,0.975242,0.0604978,2.55031,0.125308,
2,1,0,1,0,62146.8,0.127146,0.126839,1.0834,32,0.00896812,10,0.000137416,-2.96521,1.15114,0.0512537,2.16929,0.126839,
2,1,0,1,0,62146.9,0.128644,0.128296,1.0865,32,0.00913263,10,0.000139394,-2.96397,1.64918,0.0357754,1.51865,0.1282956,
2,1,0,1,0,62147.1,0.130142,0.129833,1.09115,32,0.00929776,10,0.000141667,-2.96212,2.3828,0.0247608,1.05181,0.129833,
2,1,0,1,0,62147.2,0.13164,0.131301,1.09049,32,0.00946314,10,0.000143182,-2.96238,-1.82946,-0.03225,-1.36828,0.131301,
2,1,0,1,0,62147.4,0.133139,0.132769,1.0891,32,0.00962838,10,0.0001446,-2.96293,-0.884038,-0.0667392,-2.82908,0.132769,
2,1,0,1,0,62147.5,0.134637,0.134265,1.08133,32,0.00979277,10,0.000145185,-2.96604,-0.473746,-0.124539,-5.2551,0.134265,
2,1,0,1,0,62147.7,0.136135,0.135797,1.07468,32,0.0099563,10,0.000145939,-2.96872,-0.373343,-0.158032,-6.60504,0.135797,
2,1,0,1,0,62147.8,0.137633,0.137283,1.06351,32,0.0101183,10,0.000146002,-2.97326,-0.231981,-0.254331,-10.4943,0.137283,
2,1,0,1,0,62148,0.139132,0.138746,1.04646,32,0.0102781,10,0.000145193,-2.98028,-0.179086,-0.329451,-13.3591,0.1387462,
2,1,0,1,0,62148.1,0.140629,0.140235,1.02188,32,0.0104347,10,0.000143303,-2.9906,-0.140882,-0.41879,-16.6209,0.140235,
2,1,0,1,0,62148.3,0.142127,0.141766,0.994351,32,0.0105876,10,0.000140965,-3.00246,-0.122371,-0.48214,-18.6166,0.141766,
2,1,0,1,0,62148.4,0.143626,0.143292,0.963556,32,0.0107363,10,0.00013807,-3.01612,-0.102197,-0.577319,-21.6249,0.143292,
2,1,0,1,0,62148.6,0.145124,0.14481,0.928999,32,0.01088,10,0.000134529,-3.03198,-0.0898076,-0.65696,-23.7549,0.14481,
2,1,0,1,0,62148.7,0.146622,0.146279,0.88869,32,0.0110181,10,0.000129997,-3.05125,-0.0811836,-0.726748,-25.2518,0.146279,
2,1,0,1,0,62148.9,0.14812,0.147754,0.853982,32,0.0111507,10,0.000126179,-3.06855,-0.0799679,-0.737796,-24.6019,0.147754,
2,1,0,1,0,62149,0.149619,0.149247,0.818783,32,0.0112778,10,0.000122201,-3.08683,-0.077929,-0.7571,-24.1636,0.149247,
2,1,0,1,0,62149.2,0.151117,0.150744,0.782815,32,0.0113995,10,0.000118005,-3.10634,-0.0774161,-0.762115,-23.2672,0.150744,
2,1,0,1,0,62149.3,0.152615,0.152242,0.747415,32,0.011516,10,0.000113788,-3.12644,-0.080952,-0.728827,-21.3423,0.152242,
2,1,0,1,0,62149.5,0.154114,0.153717,0.721066,32,0.0116277,10,0.00011084,-3.14203,-0.0946169,-0.623567,-17.6019,0.153717,
2,1,0,1,0,62149.6,0.155612,0.155217,0.695162,32,0.0117354,10,0.000107901,-3.15791,-0.102555,-0.575299,-15.6416,0.155217,
2,1,0,1,0,62149.8,0.157109,0.156779,0.673309,32,0.0118397,10,0.000105561,-3.17179,-0.108101,-0.545788,-14.3668,0.156779,
2,1,0,1,0,62149.9,0.158608,0.158284,0.651645,32,0.0119408,10,0.000103145,-3.18599,-0.126453,-0.466575,-11.9297,0.1582839,
2,1,0,1,0,62150.1,0.160106,0.159729,0.6359,32,0.012039,10,0.000101572,-3.19661,-0.141598,-0.416673,-10.386,0.159729,
2,1,0,1,0,62150.2,0.161604,0.161298,0.621183,32,0.0121351,10,0.000100195,-3.20678,-0.159054,-0.370942,-9.01778,0.161298,
2,1,0,1,0,62150.4,0.163102,0.162766,0.610503,32,0.0122291,10,9.93693e-05,-3.21431,-0.172921,-0.341196,-8.12279,0.162766,
2,1,0,1,0,62150.5,0.164601,0.164284,0.599472,32,0.0123216,10,9.84835e-05,-3.22223,-0.214158,-0.275498,-6.44931,0.164284,
2,1,0,1,0,62150.7,0.166099,0.165767,0.588822,32,0.0124123,10,9.76073e-05,-3.23002,-0.216509,-0.272506,-6.28643,0.165767,
2,1,0,1,0,62150.8,0.167597,0.167217,0.581681,32,0.0125018,10,9.72668e-05,-3.23531,-0.297719,-0.198173,-4.51055,0.167217,
2,1,0,1,0,62151,0.169095,0.168755,0.575805,32,0.0125904,10,9.71702e-05,-3.23972,-0.33466,-0.176299,-3.96686,0.168755,
2,1,0,1,0,62151.1,0.170594,0.170267,0.569317,32,0.0126781,10,9.6936e-05,-3.24465,-0.365245,-0.161536,-3.59845,0.170267,
2,1,0,1,0,62151.3,0.172091,0.171726,0.561861,32,0.0127646,10,9.64858e-05,-3.25037,-0.420932,-0.140165,-3.09133,0.1717255,
2,1,0,1,0,62151.4,0.173589,0.173241,0.558428,32,0.0128506,10,9.67429e-05,-3.25303,-0.489478,-0.120537,-2.63115,0.173241,
2,1,0,1,0,62151.6,0.175088,0.174748,0.555489,32,0.0129359,10,9.70705e-05,-3.25532,-0.50065,-0.117847,-2.55471,0.174748,
2,1,0,1,0,62151.7,0.176586,0.176267,0.551314,32,0.0130206,10,9.71786e-05,-3.2586,-0.445616,-0.132401,-2.8426,0.176267,
2,1,0,1,0,62151.9,0.178084,0.17773,0.547668,32,0.0131048,10,9.73369e-05,-3.26148,-0.438362,-0.134592,-2.88243,0.17773,
2,1,0,1,0,62152,0.179582,0.179255,0.543552,32,0.0131883,10,9.74341e-05,-3.26476,-0.690804,-0.0854077,-1.82177,0.1792545,
2,1,0,1,0,62152.2,0.181081,0.180722,0.541935,32,0.0132715,10,9.79397e-05,-3.26605,-0.65898,-0.0895324,-1.89647,0.1807221,
2,1,0,1,0,62152.3,0.182579,0.182207,0.539429,32,0.0133545,10,9.82876e-05,-3.26807,-0.550032,-0.107266,-2.25631,0.182207,
2,1,0,1,0,62152.5,0.184077,0.183744,0.537498,32,0.013437,10,9.87621e-05,-3.26962,-0.809317,-0.072901,-1.53132,0.183744,
2,1,0,1,0,62152.6,0.185576,0.185189,0.535604,32,0.0135191,10,9.91877e-05,-3.27116,-0.921051,-0.0640572,-1.33854,0.185189,
2,1,0,1,0,62152.8,0.187074,0.186722,0.532939,32,0.0136009,10,9.95115e-05,-3.27332,-1.36215,-0.0433138,-0.900854,0.186722,
2,1,0,1,0,62152.9,0.188571,0.188206,0.532135,32,0.0136825,10,0.000100151,-3.27398,-0.93988,-0.062774,-1.30245,0.188206,
2,1,0,1,0,62153.1,0.19007,0.189709,0.531075,32,0.0137639,10,0.00010075,-3.27484,-1.53325,-0.0384804,-0.796177,0.189709,
2,1,0,1,0,62153.2,0.191568,0.191198,0.527683,32,0.0138449,10,0.000100892,-3.27763,-1.19025,-0.0495693,-1.02276,0.191198,
2,1,0,1,0,62153.4,0.193066,0.192692,0.525713,32,0.0139257,10,0.000101301,-3.27925,-3.01514,-0.0195679,-0.402356,0.192692,
2,1,0,1,0,62153.5,0.194564,0.194213,0.525861,32,0.0140064,10,0.000102129,-3.27913,-1.39435,-0.0423138,-0.868331,0.194213,
2,1,0,1,0,62153.7,0.196063,0.195718,0.524615,32,0.0140869,10,0.000102677,-3.28016,-0.958112,-0.0615795,-1.26214,0.195718,
2,1,0,1,0,62153.8,0.197561,0.197224,0.522106,32,0.014167,10,0.000102972,-3.28224,-1.02445,-0.0575918,-1.17497,0.197224,
2,1,0,1,0,62154,0.199059,0.198707,0.522772,32,0.0142471,10,0.000103878,-3.28169,-1.68449,-0.0350254,-0.713339,0.198707,
2,1,0,1,0,62154.1,0.200557,0.200221,0.521578,32,0.014327,10,0.000104431,-3.28268,-2.54231,-0.0232072,-0.472403,0.200221,
2,1,0,1,0,62154.3,0.202056,0.201697,0.518948,32,0.0144067,10,0.00010467,-3.28488,-0.8581,-0.0687566,-1.39176,0.201697,
2,1,0,1,0,62154.4,0.203553,0.203228,0.51747,32,0.0144863,10,0.000105164,-3.28612,-3.04229,-0.0193933,-0.392436,0.203228,
2,1,0,1,0,62154.6,0.205051,0.204707,0.517306,32,0.0145655,10,0.000105896,-3.28625,2.92859,0.0201462,0.409075,0.204707,
2,1,0,1,0,62154.7,0.20655,0.206201,0.516938,32,0.0146448,10,0.000106593,-3.28656,-2.04005,-0.0289209,-0.584488,0.206201,
2,1,0,1,0,62154.9,0.208048,0.207687,0.516329,32,0.0147243,10,0.000107235,-3.28707,-1.15524,-0.0510715,-1.027,0.207687,
2,1,0,1,0,62155,0.209546,0.209198,0.51493,32,0.0148034,10,0.000107723,-3.28825,-0.968708,-0.0609059,-1.22563,0.209198,
2,1,0,1,0,62155.2,0.211044,0.210699,0.51382,32,0.0148821,10,0.000108261,-3.28919,-2.00703,-0.0293967,-0.59014,0.210699,
2,1,0,1,0,62155.3,0.212543,0.212176,0.513643,32,0.0149608,10,0.000108983,-3.28934,-4.38775,-0.0134465,-0.269331,0.212176,
2,1,0,1,0,62155.5,0.214041,0.213687,0.513158,32,0.0150395,10,0.000109655,-3.28975,-1.73489,-0.0340079,-0.680843,0.213687,
2,1,0,1,0,62155.6,0.215539,0.215196,0.512424,32,0.0151181,10,0.000110272,-3.29037,-1.877,-0.0314332,-0.627725,0.215196,
2,1,0,1,0,62155.8,0.217038,0.216676,0.509991,32,0.0151965,10,0.000110503,-3.29244,-2.63141,-0.0224214,-0.447658,0.216676,
2,1,0,1,0,62155.9,0.218535,0.218228,0.510114,32,0.0152747,10,0.000111321,-3.29233,5.19175,0.0113642,0.226642,0.218228,
2,1,0,1,0,62156.1,0.220033,0.219692,0.510351,32,0.015353,10,0.00011212,-3.29213,-6.90227,-0.00854791,-0.170195,0.219692,
2,1,0,1,0,62156.2,0.221532,0.221213,0.509739,32,0.0154313,10,0.000112761,-3.29265,-1.9347,-0.0304957,-0.606792,0.221213,
2,1,0,1,0,62156.4,0.22303,0.222681,0.506992,32,0.0155093,10,0.000112898,-3.295,-1.86771,-0.0315895,-0.626764,0.222681,
2,1,0,1,0,62156.5,0.224528,0.224183,0.508093,32,0.0155872,10,0.000113906,-3.29406,-2.62915,-0.0224407,-0.444724,0.224183,
2,1,0,1,0,62156.7,0.226026,0.225693,0.507074,32,0.015665,10,0.000114443,-3.29493,-2.39395,-0.0246455,-0.48719,0.225693,
2,1,0,1,0,62156.8,0.227524,0.227136,0.507389,32,0.0157428,10,0.000115246,-3.29466,-1.1363,-0.0519229,-1.02537,0.227136,
2,1,0,1,0,62157,0.229023,0.228681,0.505422,32,0.0158205,10,0.00011558,-3.29635,-1.27242,-0.0463684,-0.915334,0.228681,
2,1,0,1,0,62157.1,0.230521,0.230169,0.506462,32,0.0158979,10,0.000116572,-3.29545,-3.79148,-0.0155612,-0.307346,0.230169,
2,1,0,1,0,62157.3,0.232019,0.231687,0.505337,32,0.0159754,10,0.00011708,-3.29642,-4.13337,-0.0142741,-0.280945,0.231687,
2,1,0,1,0,62157.4,0.233518,0.233198,0.504917,32,0.0160529,10,0.000117745,-3.29678,-2.61161,-0.0225914,-0.444525,0.233198,
2,1,0,1,0,62157.6,0.235015,0.234672,0.504402,32,0.0161302,10,0.000118369,-3.29722,-1.5446,-0.0381976,-0.749234,0.234672,
2,1,0,1,0,62157.7,0.236513,0.2362,0.503472,32,0.0162074,10,0.00011892,-3.29802,-213.177,-0.000276765,-0.00544313,0.2362,
2,1,0,1,0,62157.9,0.238012,0.237673,0.502581,32,0.0162845,10,0.00011945,-3.29879,3.00115,0.0196591,0.385192,0.237673,
2,1,0,1,0,62158,0.23951,0.239165,0.500973,32,0.0163616,10,0.000119815,-3.30019,-2.39006,-0.0246855,-0.484196,0.239165,
2,1,0,1,0,62158.2,0.241008,0.240659,0.501588,32,0.0164387,10,0.000120712,-3.29965,-3.03837,-0.0194183,-0.380451,0.240659,
2,1,0,1,0,62158.3,0.242506,0.24218,0.50092,32,0.0165155,10,0.000121313,-3.30023,-1.50528,-0.0391954,-0.767335,0.24218,
2,1,0,1,0,62158.5,0.244005,0.243645,0.500257,32,0.0165922,10,0.000121885,-3.30081,-5.0848,-0.0116032,-0.226305,0.243645,
2,1,0,1,0,62158.6,0.245503,0.245162,0.502221,32,0.016669,10,0.000123126,-3.2991,-2.97594,-0.0198257,-0.387279,0.245162,
2,1,0,1,0,62158.8,0.247001,0.246643,0.500932,32,0.0167457,10,0.000123551,-3.30022,-1.76931,-0.0333463,-0.648556,0.246643,
2,1,0,1,0,62158.9,0.2485,0.248154,0.498081,32,0.0168223,10,0.000123601,-3.3027,-2.64929,-0.0222701,-0.43362,0.248154,
2,1,0,1,0,62159.1,0.249997,0.249665,0.498122,32,0.0168987,10,0.000124363,-3.30266,-5.77065,-0.0102242,-0.198775,0.2496645,
2,1,0,1,0,62159.2,0.251495,0.251145,0.49815,32,0.0169751,10,0.000125108,-3.30264,-5.06178,-0.011656,-0.22661,0.251145,
2,1,0,1,0,62159.4,0.252994,0.252658,0.495723,32,0.0170515,10,0.000125248,-3.30476,-1.87655,-0.0314406,-0.608378,0.252658,
2,1,0,1,0,62159.5,0.254492,0.25416,0.497345,32,0.0171277,10,0.000126405,-3.30334,-23.7727,-0.00248184,-0.0481219,0.25416,
2,1,0,1,0,62159.7,0.25599,0.255655,0.494981,32,0.0172037,10,0.000126544,-3.30541,-1.71541,-0.0343942,-0.665933,0.255655,
2,1,0,1,0,62159.8,0.257488,0.257157,0.495944,32,0.0172797,10,0.000127535,-3.30457,-1.77365,-0.0332648,-0.64248,0.257157,
2,1,0,1,0,62160,0.258987,0.258666,0.494598,32,0.0173557,10,0.000127936,-3.30575,-1.97994,-0.0297988,-0.574813,0.258666,
2,1,0,1,0,62160.1,0.260485,0.260192,0.49478,32,0.0174315,10,0.000128738,-3.30559,-1.88555,-0.0312906,-0.604168,0.260192,
2,1,0,1,0,62160.3,0.261983,0.261651,0.492922,32,0.0175071,10,0.000128974,-3.30722,-2.49737,-0.0236249,-0.455181,0.261651,
2,1,0,1,0,62160.4,0.263481,0.263115,0.492277,32,0.0175827,10,0.000129525,-3.30779,35.8418,0.00164612,0.0316142,0.2631146,
2,1,0,1,0,62160.6,0.26498,0.264616,0.492537,32,0.0176584,10,0.000130333,-3.30756,-6.67603,-0.00883759,-0.169935,0.2646156,
2,1,0,1,0,62160.7,0.266477,0.266127,0.491514,32,0.0177339,10,0.000130805,-3.30846,-4.31937,-0.0136594,-0.262622,0.266127,
2,1,0,1,0,62160.9,0.267976,0.267599,0.489474,32,0.0178092,10,0.000130983,-3.31027,-2.69215,-0.0219155,-0.420543,0.267599,
2,1,0,1,0,62161,0.269474,0.269146,0.48951,32,0.0178844,10,0.00013175,-3.31024,22.5828,0.00261261,0.0500454,0.2691462,
2,1,0,1,0,62161.2,0.270972,0.270576,0.490596,32,0.0179596,10,0.000132743,-3.30928,-3.70678,-0.0159168,-0.303973,0.270576,
2,1,0,1,0,62161.3,0.27247,0.272134,0.490475,32,0.0180349,10,0.000133475,-3.30938,-2.14601,-0.0274929,-0.52456,0.272134,
2,1,0,1,0,62161.5,0.273968,0.273673,0.487657,32,0.0181099,10,0.000133459,-3.31189,-1.23504,-0.0477717,-0.910891,0.273673,
2,1,0,1,0,62161.6,0.275467,0.275145,0.487496,32,0.0181847,10,0.000134132,-3.31203,-2.18975,-0.0269437,-0.513954,0.275145,
2,1,0,1,0,62161.8,0.276965,0.276658,0.486871,32,0.0182594,10,0.000134697,-3.31259,-2.11453,-0.0279021,-0.530879,0.276658,
2,1,0,1,0,62161.9,0.278463,0.278093,0.48731,32,0.0183341,10,0.000135517,-3.31219,-1.07835,-0.0547135,-1.03603,0.278093,
2,1,0,1,0,62162.1,0.279962,0.279622,0.48598,32,0.0184087,10,0.000135891,-3.31338,-5.27974,-0.0111748,-0.211322,0.279622,
2,1,0,1,0,62162.2,0.281459,0.281076,0.484493,32,0.0184829,10,0.000136179,-3.31471,-2.16014,-0.027313,-0.51631,0.281076,
2,1,0,1,0,62162.4,0.282957,0.282596,0.484,32,0.0185571,10,0.000136776,-3.31515,9.17974,0.0064272,0.121141,0.282596,
2,1,0,1,0,62162.5,0.284456,0.284155,0.483205,32,0.0186313,10,0.000137305,-3.31587,-4.35901,-0.0135352,-0.254983,0.284155,
2,1,0,1,0,62162.7,0.285954,0.285601,0.482743,32,0.0187055,10,0.000137872,-3.31628,-3.94575,-0.0149528,-0.281495,0.285601,
2,1,0,1,0,62162.8,0.287452,0.287133,0.480508,32,0.0187793,10,0.00013797,-3.3183,-1.84526,-0.0319739,-0.600647,0.287133,
2,1,0,1,0,62163,0.28895,0.288615,0.479377,32,0.0188531,10,0.000138356,-3.31932,-6.28364,-0.00938946,-0.175818,0.288615,
2,1,0,1,0,62163.1,0.290449,0.290087,0.479831,32,0.0189267,10,0.000139193,-3.31891,-3.31817,-0.0177809,-0.333104,0.290087,
2,1,0,1,0,62163.3,0.291947,0.291599,0.47938,32,0.0190003,10,0.000139787,-3.31932,-1.22631,-0.0481116,-0.899588,0.291599,
2,1,0,1,0,62163.4,0.293445,0.29308,0.47648,32,0.0190737,10,0.000139647,-3.32196,-1.41325,-0.0417478,-0.779117,0.29308,
2,1,0,1,0,62163.6,0.294943,0.294608,0.477744,32,0.019147,10,0.000140747,-3.3208,-8.62069,-0.006844,-0.127844,0.294608,
2,1,0,1,0,62163.7,0.296442,0.296096,0.478002,32,0.0192202,10,0.000141534,-3.32057,-2.19773,-0.0268459,-0.498221,0.296096,
2,1,0,1,0,62163.8,0.297939,0.297615,0.476859,32,0.0192934,10,0.00014192,-3.32161,-1.4748,-0.0400055,-0.741467,0.2976146,
2,1,0,1,0,62164,0.299437,0.299086,0.474665,32,0.0193663,10,0.000141966,-3.32361,-0.00345557,-17.0739,-184.729,0.299086,
2,1,0,1,0,62164.1,0.299738,0.299459,0.292218,32,0.0194027,10,8.75075e-05,-3.53429,0.000804713,73.3181,376.943,0.299459,
2,1,0,1,0,62164.2,0.29824,0.297893,0.0386593,32,0.0194197,10,1.15163e-05,-4.41275,0.00313988,18.7905,129.558,0.297893,
2,1,0,1,0,62164.4,0.296741,0.296455,-0.0154143,32,0.0194191,10,-4.56964e-06,-4.81208,0.0233038,2.53178,32.2282,0.296455,
2,0,0,1,0,62164.5,0.295243,0.294878,-0.0452459,32,0.0194126,10,-1.3342e-05,-4.34442,-0.00293821,-20.0803,16.2533,0.294878,
2,0,0,1,0,62164.7,0.293745,0.293397,-0.0637763,32,0.0194026,10,-1.87117e-05,-4.19534,-0.0113798,-5.18464,11.5366,0.293397,
2,0,0,1,0,62164.8,0.292246,0.291913,-0.0790587,32,0.0193903,10,-2.30783e-05,-4.10205,-0.0187589,-3.14518,9.24457,0.291913,
2,0,0,1,0,62165,0.290748,0.290412,-0.0923506,32,0.0193757,10,-2.68197e-05,-4.03456,-0.0244667,-2.41144,8.37099,0.290412,
2,0,0,1,0,62165.1,0.28925,0.28888,-0.103664,32,0.0193592,10,-2.99464e-05,-3.98437,-0.0314457,-1.87625,7.45359,0.28888,
2,0,0,1,0,62165.3,0.287752,0.287403,-0.113525,32,0.0193412,10,-3.26275e-05,-3.94491,-0.043856,-1.34531,5.91209,0.287403,
2,0,0,1,0,62165.4,0.286253,0.285957,-0.121163,32,0.0193219,10,-3.46474e-05,-3.91663,-0.0455814,-1.29439,6.1536,0.285957,
2,0,0,1,0,62165.6,0.284755,0.284381,-0.130956,32,0.0193011,10,-3.72414e-05,-3.88287,-0.048124,-1.226,6.16038,0.284381,
2,0,0,1,0,62165.7,0.283258,0.282949,-0.138855,32,0.0192792,10,-3.92888e-05,-3.85744,-0.0581035,-1.01543,5.48473,0.282949,
2,0,0,1,0,62165.9,0.281759,0.281419,-0.146128,32,0.019256,10,-4.11232e-05,-3.83527,-0.0798184,-0.739178,4.17755,0.281419,
2,0,0,1,0,62166,0.280261,0.279922,-0.150347,32,0.0192319,10,-4.20855e-05,-3.8229,-0.0886624,-0.665445,3.96089,0.279922,
2,0,0,1,0,62166.2,0.278763,0.278453,-0.157544,32,0.0192069,10,-4.38686e-05,-3.8026,-0.0867701,-0.679958,4.19794,0.278453,
2,0,0,1,0,62166.3,0.277264,0.276888,-0.164729,32,0.0191808,10,-4.56114e-05,-3.78323,-0.0972812,-0.606489,3.91139,0.276888,
2,0,0,1,0,62166.5,0.275766,0.275407,-0.17111,32,0.0191539,10,-4.71248e-05,-3.76673,-0.126907,-0.464909,3.08961,0.275407,
2,0,0,1,0,62166.6,0.274268,0.273952,-0.176236,32,0.019126,10,-4.82802e-05,-3.75391,-0.103429,-0.570437,3.93484,0.273952,
2,0,0,1,0,62166.8,0.27277,0.272445,-0.180803,32,0.0190975,10,-4.92589e-05,-3.74279,-0.122007,-0.483578,3.43787,0.272445,
2,0,0,1,0,62166.9,0.271272,0.270937,-0.189116,32,0.0190681,10,-5.12385e-05,-3.72327,-0.109591,-0.538366,3.92911,0.270937,
2,0,0,1,0,62167.1,0.269773,0.269414,-0.193592,32,0.0190378,10,-5.21563e-05,-3.71311,-0.121059,-0.487364,3.64524,0.269414,
2,0,0,1,0,62167.2,0.268275,0.26795,-0.198767,32,0.0190067,10,-5.32597e-05,-3.70165,-0.129883,-0.454255,3.49217,0.26795,
2,0,0,1,0,62167.4,0.266778,0.266439,-0.201208,32,0.018975,10,-5.36097e-05,-3.69635,-0.126442,-0.466616,3.683,0.266439,
2,0,0,1,0,62167.5,0.265279,0.26495,-0.207908,32,0.0189425,10,-5.50853e-05,-3.68213,-0.140053,-0.42127,3.38684,0.26495,
2,0,0,1,0,62167.7,0.263781,0.263421,-0.211344,32,0.0189093,10,-5.56726e-05,-3.67501,-0.173653,-0.339758,2.80658,0.263421,
2,0,0,1,0,62167.8,0.262283,0.261888,-0.216397,32,0.0188754,10,-5.66718e-05,-3.66475,-0.16919,-0.348721,2.93852,0.261888,
2,0,0,1,0,62168,0.260784,0.26044,-0.219583,32,0.0188409,10,-5.71884e-05,-3.6584,-0.187469,-0.314718,2.70788,0.26044,
2,0,0,1,0,62168.1,0.259286,0.258918,-0.224036,32,0.0188058,10,-5.80068e-05,-3.64968,-0.17955,-0.328599,2.88386,0.258918,
2,0,0,1,0,62168.3,0.257788,0.257421,-0.231053,32,0.01877,10,-5.94779e-05,-3.63629,-0.199096,-0.29634,2.64849,0.257421,
2,0,0,1,0,62168.4,0.25629,0.255941,-0.233623,32,0.0187336,10,-5.97938e-05,-3.63148,-0.220253,-0.267873,2.43113,0.255941,
2,0,0,1,0,62168.6,0.254791,0.254456,-0.236274,32,0.0186966,10,-6.01214e-05,-3.62658,-0.202458,-0.291418,2.67936,0.254456,
2,0,0,1,0,62168.7,0.253293,0.252968,-0.240728,32,0.0186592,10,-6.08965e-05,-3.61847,-0.188577,-0.312869,2.94127,0.252968,
2,0,0,1,0,62168.9,0.251796,0.251457,-0.244096,32,0.0186211,10,-6.13797e-05,-3.61244,-0.197283,-0.299063,2.84743,0.251457,
2,0,0,1,0,62169,0.250297,0.24994,-0.247878,32,0.0185824,10,-6.19547e-05,-3.60576,-0.320322,-0.184189,1.78293,0.24994,
2,0,0,1,0,62169.2,0.248799,0.248444,-0.250734,32,0.0185432,10,-6.22934e-05,-3.60079,-0.247454,-0.238428,2.33736,0.248444,
2,0,0,1,0,62169.3,0.247301,0.246967,-0.253052,32,0.0185036,10,-6.24954e-05,-3.59679,-0.228885,-0.257771,2.56653,0.246967,
2,0,0,1,0,62169.5,0.245802,0.245445,-0.258991,32,0.0184635,10,-6.35681e-05,-3.58672,-0.247277,-0.238599,2.39807,0.245445,
2,0,0,1,0,62169.6,0.244304,0.243955,-0.2618,32,0.0184227,10,-6.38675e-05,-3.58203,-0.307832,-0.191663,1.95341,0.243955,
2,0,0,1,0,62169.8,0.242806,0.242405,-0.26503,32,0.0183815,10,-6.42446e-05,-3.5767,-0.353643,-0.166835,1.7261,0.242405,
2,0,0,1,0,62169.9,0.241308,0.24096,-0.266732,32,0.0183399,10,-6.42717e-05,-3.57392,-0.325626,-0.181189,1.89475,0.24096,
2,0,0,1,0,62170.1,0.23981,0.239452,-0.271226,32,0.0182978,10,-6.49454e-05,-3.56667,-0.226302,-0.260713,2.75428,0.239452,
2,0,0,1,0,62170.2,0.238311,0.238006,-0.274774,32,0.0182552,10,-6.53978e-05,-3.56102,-0.353499,-0.166903,1.7872,0.238006,
2,0,0,1,0,62170.4,0.236814,0.236474,-0.276842,32,0.0182121,10,-6.54661e-05,-3.55777,-0.32133,-0.183612,1.98703,0.236474,
2,0,0,1,0,62170.5,0.235316,0.234978,-0.278907,32,0.0181686,10,-6.55371e-05,-3.55454,-0.311298,-0.189529,2.07354,0.234978,
2,0,0,1,0,62170.7,0.233817,0.233482,-0.282542,32,0.0181247,10,-6.59683e-05,-3.54892,-0.314595,-0.187542,2.07353,0.233482,
2,0,0,1,0,62170.8,0.232319,0.231994,-0.287091,32,0.0180802,10,-6.66034e-05,-3.54198,-0.316466,-0.186434,2.07631,0.231994,
2,0,0,1,0,62171,0.230821,0.230469,-0.288225,32,0.0180353,10,-6.64269e-05,-3.54027,-0.470208,-0.125476,1.4111,0.230469,
2,0,0,1,0,62171.1,0.229322,0.228988,-0.291423,32,0.01799,10,-6.67322e-05,-3.53548,-0.335059,-0.176089,2.0082,0.228988,
2,0,0,1,0,62171.3,0.227824,0.227456,-0.294515,32,0.0179444,10,-6.69892e-05,-3.53089,-0.355305,-0.166055,1.91911,0.227456,
2,0,0,1,0,62171.4,0.226326,0.226016,-0.297406,32,0.0178982,10,-6.72186e-05,-3.52665,-0.359732,-0.164011,1.90682,0.226016,
2,0,0,1,0,62171.6,0.224828,0.2245,-0.301402,32,0.0178514,10,-6.76647e-05,-3.52085,-0.487756,-0.120962,1.41513,0.2245,
2,0,0,1,0,62171.7,0.223329,0.222986,-0.304474,32,0.0178043,10,-6.78935e-05,-3.51645,-0.41649,-0.14166,1.67715,0.222986,
2,0,0,1,0,62171.9,0.221831,0.221499,-0.306155,32,0.0177568,10,-6.78128e-05,-3.51406,-0.390708,-0.151008,1.80672,0.221499,
2,0,0,1,0,62172,0.220334,0.219953,-0.309252,32,0.0177089,10,-6.8021e-05,-3.50969,-0.300778,-0.196158,2.36908,0.219953,
2,0,0,1,0,62172.2,0.218835,0.218477,-0.312491,32,0.0176603,10,-6.82721e-05,-3.50516,-0.329903,-0.17884,2.17918,0.218477,
2,0,0,1,0,62172.3,0.217337,0.217022,-0.314502,32,0.0176114,10,-6.82539e-05,-3.50238,-0.461807,-0.127759,1.5761,0.217022,
2,0,0,1,0,62172.5,0.215839,0.215524,-0.316593,32,0.0175622,10,-6.82333e-05,-3.4995,-0.377935,-0.156112,1.93556,0.215524,
2,0,0,1,0,62172.6,0.21434,0.213968,-0.320124,32,0.0175125,10,-6.84962e-05,-3.49468,-0.338017,-0.174547,2.1782,0.213968,
2,0,0,1,0,62172.8,0.212842,0.212505,-0.324131,32,0.0174622,10,-6.88794e-05,-3.48928,-0.386953,-0.152473,1.92622,0.212505,
2,0,0,1,0,62172.9,0.211344,0.210984,-0.327494,32,0.0174116,10,-6.9096e-05,-3.4848,-0.506794,-0.116418,1.4823,0.210984,
2,0,0,1,0,62173.1,0.209846,0.209499,-0.327989,32,0.0173606,10,-6.87134e-05,-3.48414,-0.43709,-0.134984,1.73415,0.2094994,
2,0,0,1,0,62173.2,0.208348,0.207986,-0.332164,32,0.0173092,10,-6.90855e-05,-3.47865,-0.329908,-0.178838,2.32678,0.207986,
2,0,0,1,0,62173.4,0.206849,0.206456,-0.337933,32,0.0172572,10,-6.97683e-05,-3.47117,-0.365962,-0.161219,2.11038,0.206456,
2,0,0,1,0,62173.5,0.205352,0.204999,-0.337849,32,0.0172046,10,-6.92588e-05,-3.47128,-0.436166,-0.13527,1.78161,0.204999,
2,0,0,1,0,62173.7,0.203854,0.203468,-0.341477,32,0.0171517,10,-6.94796e-05,-3.46664,-0.418391,-0.141016,1.8819,0.203468,
2,0,0,1,0,62173.8,0.202355,0.202017,-0.344325,32,0.0170986,10,-6.95596e-05,-3.46303,-0.327062,-0.180394,2.43051,0.202017,
2,0,0,1,0,62174,0.200857,0.200475,-0.346336,32,0.017045,10,-6.94319e-05,-3.4605,-0.332972,-0.177192,2.40546,0.200475,
2,0,0,1,0,62174.1,0.199359,0.19903,-0.349982,32,0.0169908,10,-6.96569e-05,-3.45595,-0.398091,-0.148207,2.01879,0.19903,
2,0,0,1,0,62174.3,0.19786,0.197503,-0.353733,32,0.0169362,10,-6.98634e-05,-3.45132,-0.509091,-0.115893,1.59737,0.197503,
2,0,0,1,0,62174.4,0.196362,0.195996,-0.356316,32,0.0168813,10,-6.98365e-05,-3.44817,-0.393025,-0.150118,2.08597,0.1959962,
2,0,0,1,0,62174.6,0.194864,0.1945,-0.360205,32,0.0168257,10,-7.00599e-05,-3.44345,-0.352683,-0.167289,2.35294,0.1945,
2,0,0,1,0,62174.7,0.193366,0.19305,-0.363795,32,0.0167697,10,-7.02307e-05,-3.43914,-0.436225,-0.135251,1.91776,0.1930504,
2,0,0,1,0,62174.9,0.191867,0.191513,-0.366176,32,0.0167131,10,-7.01274e-05,-3.43631,-0.498718,-0.118303,1.69584,0.191513,
2,0,0,1,0,62175,0.190369,0.190043,-0.366437,32,0.0166562,10,-6.96388e-05,-3.436,-0.351095,-0.168046,2.42242,0.190043,
2,0,0,1,0,62175.2,0.188872,0.188478,-0.371562,32,0.0165988,10,-7.00313e-05,-3.42997,-0.276843,-0.213118,3.10527,0.188478,
2,0,0,1,0,62175.3,0.187373,0.187032,-0.376053,32,0.0165409,10,-7.03338e-05,-3.42475,-0.381989,-0.154455,2.26501,0.187032,
2,0,0,1,0,62175.5,0.185875,0.185495,-0.379657,32,0.0164824,10,-7.04245e-05,-3.42061,-0.373622,-0.157914,2.3255,0.185495,
2,0,0,1,0,62175.6,0.184377,0.183996,-0.380726,32,0.0164235,10,-7.0052e-05,-3.41939,-0.375968,-0.156928,2.34071,0.183996,
2,0,0,1,0,62175.8,0.182878,0.182541,-0.387204,32,0.0163642,10,-7.06806e-05,-3.41206,-0.34235,-0.172338,2.6059,0.1825407,
2,0,0,1,0,62175.9,0.18138,0.181041,-0.390379,32,0.0163042,10,-7.06746e-05,-3.40851,-0.382748,-0.154148,2.34625,0.181041,
2,0,0,1,0,62176.1,0.179882,0.179575,-0.394383,32,0.0162436,10,-7.08213e-05,-3.40408,-0.619511,-0.0952363,1.46068,0.179575,
2,0,0,1,0,62176.2,0.178384,0.178076,-0.397136,32,0.0161825,10,-7.07206e-05,-3.40106,-0.431977,-0.136581,2.11743,0.1780764,
2,0,0,1,0,62176.4,0.176886,0.176557,-0.401477,32,0.0161211,10,-7.08835e-05,-3.39634,-0.336942,-0.175104,2.7456,0.176557,
2,0,0,1,0,62176.5,0.175387,0.175012,-0.405963,32,0.0160589,10,-7.10485e-05,-3.39151,-0.289058,-0.204112,3.22445,0.175012,
2,0,0,1,0,62176.7,0.17389,0.173525,-0.410215,32,0.015996,10,-7.11826e-05,-3.38699,-0.276593,-0.21331,3.41354,0.173525,
2,0,0,1,0,62176.8,0.172392,0.172032,-0.411937,32,0.0159325,10,-7.08664e-05,-3.38517,-0.319484,-0.184673,2.98039,0.172032,
2,0,0,1,0,62177,0.170893,0.170521,-0.417531,32,0.0158684,10,-7.11978e-05,-3.37931,-0.33285,-0.177257,2.89401,0.170521,
2,0,0,1,0,62177.1,0.169395,0.169037,-0.422784,32,0.0158036,10,-7.14663e-05,-3.37388,-0.238012,-0.247887,4.08531,0.169037,
2,0,0,1,0,62177.3,0.167897,0.167562,-0.42769,32,0.0157379,10,-7.16647e-05,-3.36887,-0.273549,-0.215684,3.6105,0.167562,
2,0,0,1,0,62177.4,0.166398,0.166048,-0.432377,32,0.0156714,10,-7.17955e-05,-3.36414,-0.357935,-0.164834,2.79297,0.1660482,
2,0,0,1,0,62177.6,0.1649,0.164538,-0.437739,32,0.0156043,10,-7.20249e-05,-3.35878,-0.28879,-0.204301,3.50808,0.164538,
2,0,0,1,0,62177.7,0.163402,0.16299,-0.444241,32,0.0155363,10,-7.24069e-05,-3.35238,-0.24446,-0.241348,4.18543,0.16299,
2,0,0,1,0,62177.9,0.161904,0.161539,-0.452474,32,0.0154673,10,-7.30924e-05,-3.34441,-0.221229,-0.266692,4.70661,0.161539,
2,0,0,1,0,62178,0.160405,0.16006,-0.45899,32,0.0153972,10,-7.34662e-05,-3.3382,-0.247606,-0.238281,4.25274,0.16006,
2,0,0,1,0,62178.2,0.158907,0.158526,-0.464221,32,0.015326,10,-7.35913e-05,-3.33328,-0.199566,-0.295642,5.3853,0.158526,
2,0,0,1,0,62178.3,0.15741,0.157007,-0.472573,32,0.0152538,10,-7.41975e-05,-3.32553,-0.182028,-0.324126,6.00556,0.157007,
2,0,0,1,0,62178.5,0.155911,0.155547,-0.483228,32,0.0151802,10,-7.51646e-05,-3.31585,-0.16637,-0.354631,6.70851,0.155547,
2,0,0,1,0,62178.6,0.154413,0.154051,-0.492382,32,0.0151051,10,-7.58519e-05,-3.3077,-0.183862,-0.320893,6.16402,0.154051,
2,0,0,1,0,62178.8,0.152915,0.152533,-0.502788,32,0.0150286,10,-7.6692e-05,-3.29861,-0.166496,-0.354363,6.97937,0.152533,
2,0,0,1,0,62178.9,0.151417,0.150992,-0.513837,32,0.0149507,10,-7.7585e-05,-3.28917,-0.156614,-0.376722,7.5697,0.150992,
2,0,0,1,0,62179.1,0.149918,0.149519,-0.52719,32,0.0148709,10,-7.88247e-05,-3.27803,-0.134426,-0.438903,9.01708,0.149519,
2,0,0,1,0,62179.2,0.14842,0.148072,-0.541204,32,0.0147891,10,-8.01372e-05,-3.26664,-0.126755,-0.465463,9.83221,0.1480722,
2,0,0,1,0,62179.4,0.146922,0.146564,-0.556348,32,0.014705,10,-8.15407e-05,-3.25465,-0.118068,-0.49971,10.8578,0.1465643,
2,0,0,1,0,62179.5,0.145424,0.145066,-0.573061,32,0.0146186,10,-8.31317e-05,-3.2418,-0.104151,-0.566483,12.7177,0.145066,
2,0,0,1,0,62179.7,0.143925,0.143574,-0.593213,32,0.0145292,10,-8.51701e-05,-3.22679,-0.0907125,-0.650406,15.0652,0.143574,
2,0,0,1,0,62179.8,0.142428,0.14208,-0.615728,32,0.0144365,10,-8.74825e-05,-3.21061,-0.0938122,-0.628916,15.1248,0.14208,
2,0,0,1,0,62180,0.14093,0.140578,-0.637469,32,0.0143406,10,-8.96141e-05,-3.19554,-0.0960942,-0.613981,15.3532,0.140578,
2,0,0,1,0,62180.1,0.139431,0.139084,-0.660156,32,0.0142411,10,-9.18173e-05,-3.18035,-0.0891721,-0.661642,17.1456,0.139084,
2,0,0,1,0,62180.3,0.137933,0.137584,-0.690044,32,0.0141379,10,-9.49388e-05,-3.16112,-0.0869754,-0.678353,18.3003,0.137584,
2,0,0,1,0,62180.4,0.136435,0.136068,-0.717611,32,0.0140304,10,-9.76442e-05,-3.14411,-0.0860151,-0.685926,19.1978,0.1360684,
2,0,0,1,0,62180.6,0.134936,0.134561,-0.748326,32,0.0139185,10,-0.000100695,-3.12591,-0.090821,-0.649629,18.9122,0.134561,
2,0,0,1,0,62180.7,0.133438,0.133113,-0.775658,32,0.0138024,10,-0.00010325,-3.11033,-0.0895931,-0.658533,19.9807,0.133113,
2,0,0,1,0,62180.9,0.13194,0.131605,-0.806903,32,0.0136818,10,-0.000106193,-3.09318,-0.0899524,-0.655902,20.6895,0.131605,
2,0,0,1,0,62181,0.130442,0.130106,-0.838301,32,0.0135566,10,-0.000109068,-3.0766,-0.0957223,-0.616366,20.1326,0.130106,
2,0,0,1,0,62181.2,0.128943,0.128577,-0.869134,32,0.0134265,10,-0.00011175,-3.06091,-0.102493,-0.575649,19.4443,0.128577,
2,0,0,1,0,62181.3,0.127445,0.12713,-0.89775,32,0.0132922,10,-0.000114131,-3.04684,-0.108627,-0.543143,18.9854,0.12713,
2,0,0,1,0,62181.5,0.125948,0.125603,-0.922834,32,0.013154,10,-0.000115911,-3.03488,-0.11709,-0.503887,18.1715,0.125603,
2,0,0,1,0,62181.6,0.124449,0.124097,-0.951206,32,0.0130114,10,-0.000118042,-3.02173,-0.120202,-0.49084,18.1668,0.124097,
2,0,0,1,0,62181.8,0.122951,0.122617,-0.977598,32,0.0128649,10,-0.00011987,-3.00984,-0.134266,-0.439428,16.7034,0.122617,
2,0,0,1,0,62181.9,0.121453,0.121103,-0.999818,32,0.0127148,10,-0.000121081,-3.00008,-0.157528,-0.374537,14.5773,0.121103,
2,0,0,1,0,62182.1,0.119955,0.119608,-1.01837,32,0.0125615,10,-0.000121805,-2.99209,-0.180454,-0.326952,13.0049,0.1196077,
2,0,0,1,0,62182.2,0.118456,0.118111,-1.0393,32,0.0124052,10,-0.000122753,-2.98326,-0.18891,-0.312319,12.6484,0.118111,
2,0,0,1,0,62182.4,0.116958,0.116616,-1.05768,32,0.012246,10,-0.000123343,-2.97565,-0.24781,-0.238086,9.78634,0.1166163,
2,0,0,1,0,62182.5,0.11546,0.115073,-1.07019,32,0.0120845,10,-0.000123151,-2.97054,-0.323765,-0.182231,7.59156,0.115073,
2,0,0,1,0,62182.7,0.113962,0.113638,-1.08001,32,0.0119213,10,-0.00012273,-2.96657,-0.388817,-0.151742,6.38733,0.113638,
2,0,0,1,0,62182.8,0.112463,0.112114,-1.09028,32,0.0117567,10,-0.000122236,-2.96246,-0.493282,-0.119607,5.07673,0.112114,
2,0,0,1,0,62183,0.110966,0.110563,-1.09673,32,0.0115909,10,-0.000121258,-2.9599,-0.628223,-0.0939157,4.00727,0.110563,
2,0,0,1,0,62183.1,0.109468,0.109179,-1.09804,32,0.0114244,10,-0.000119882,-2.95938,-1.68396,-0.0350365,1.49918,0.109179,
2,0,0,1,0,62183.3,0.107969,0.107639,-1.10119,32,0.0112574,10,-0.000118531,-2.95814,-3.41219,-0.0172909,0.741937,0.1076389,
2,0,0,1,0,62183.4,0.106471,0.106164,-1.09982,32,0.0110906,10,-0.000116761,-2.95868,20.1289,0.00293111,-0.125952,0.106164,
2,0,0,1,0,62183.6,0.104973,0.104701,-1.10026,32,0.0109238,10,-0.000115198,-2.9585,3.31466,0.0177997,-0.76374,0.104701,
2,0,0,1,0,62183.7,0.103474,0.103132,-1.09971,32,0.010757,10,-0.000113416,-2.95872,1.31926,0.044722,-1.91372,0.103132,
2,0,0,1,0,62183.9,0.101976,0.10164,-1.09563,32,0.0105907,10,-0.00011136,-2.96034,0.879456,0.0670869,-2.86455,0.10164,
2,0,0,1,0,62184,0.100478,0.10008,-1.0892,32,0.0104252,10,-0.000109008,-2.96289,0.738685,0.0798717,-3.39884,0.10008,
2,0,0,1,0,62184.2,0.0989798,0.0986169,-1.08582,32,0.0102602,10,-0.00010708,-2.96424,1.28521,0.0459069,-1.94393,0.09861695,
2,0,0,1,0,62184.3,0.0974808,0.0971192,-1.08293,32,0.0100957,10,-0.000105173,-2.9654,0.908415,0.0649483,-2.7427,0.0971192,
2,0,0,1,0,62184.5,0.0959833,0.0955862,-1.07737,32,0.00993204,10,-0.000102982,-2.96763,0.807109,0.0731004,-3.07292,0.0955862,
2,0,0,1,0,62184.6,0.0944857,0.0941506,-1.07031,32,0.00976919,10,-0.00010077,-2.97049,0.917731,0.064289,-2.69124,0.0941506,
2,0,0,1,0,62184.8,0.0929871,0.0926225,-1.06669,32,0.00960686,10,-9.87992e-05,-2.97196,1.39679,0.0422396,-1.76128,0.0926225,
2,0,0,1,0,62184.9,0.0914889,0.0911188,-1.0653,32,0.00944506,10,-9.70686e-05,-2.97253,0.896861,0.065785,-2.73143,0.0911188,
2,0,0,1,0,62185.1,0.0899907,0.0896321,-1.05976,32,0.0092838,10,-9.49881e-05,-2.97479,0.662314,0.0890816,-3.67754,0.0896321,
2,0,0,1,0,62185.2,0.0884925,0.0881465,-1.05336,32,0.00912338,10,-9.285e-05,-2.97742,0.72738,0.081113,-3.34215,0.0881465,
2,0,0,1,0,62185.4,0.0869943,0.0866397,-1.04996,32,0.00896393,10,-9.09686e-05,-2.97883,0.809329,0.0728999,-2.9899,0.0866397,
2,0,0,1,0,62185.5,0.0854961,0.085136,-1.04631,32,0.0088049,10,-8.90784e-05,-2.98034,0.765343,0.0770896,-3.14543,0.085136,
2,0,0,1,0,62185.7,0.083998,0.0836058,-1.04213,32,0.00864652,10,-8.71281e-05,-2.98208,0.601036,0.0981638,-3.98452,0.0836058,
2,0,0,1,0,62185.8,0.0824998,0.0821064,-1.03832,32,0.0084888,10,-8.52526e-05,-2.98367,0.583602,0.101096,-4.09096,0.0821064,
2,0,0,1,0,62186,0.0810011,0.0806564,-1.03081,32,0.00833204,10,-8.31414e-05,-2.98682,0.722441,0.0816676,-3.29255,0.0806564,
2,0,0,1,0,62186.1,0.0795036,0.0791534,-1.0282,32,0.00817592,10,-8.13853e-05,-2.98792,0.960933,0.0613986,-2.46246,0.0791534,
2,0,0,1,0,62186.3,0.0780061,0.0776514,-1.02192,32,0.00802042,10,-7.93539e-05,-2.99058,0.865133,0.0681976,-2.71938,0.0776514,
2,0,0,1,0,62186.4,0.076507,0.076183,-1.01773,32,0.00786548,10,-7.75335e-05,-2.99237,0.676108,0.0872642,-3.46244,0.076183,
2,0,0,1,0,62186.6,0.0750088,0.0746603,-1.01007,32,0.00771168,10,-7.54117e-05,-2.99565,0.59807,0.0986506,-3.89516,0.0746603,
2,0,0,1,0,62186.7,0.0735106,0.0731195,-1.00565,32,0.0075586,10,-7.35323e-05,-2.99756,0.802747,0.0734976,-2.88515,0.0731195,
2,0,0,1,0,62186.9,0.0720124,0.0716434,-1.00053,32,0.0074063,10,-7.16812e-05,-2.99977,0.685176,0.0861092,-3.36504,0.0716434,
2,0,0,1,0,62187,0.0705142,0.0701684,-0.99556,32,0.00725481,10,-6.98568e-05,-3.00193,0.550171,0.107239,-4.16678,0.0701684,
2,0,0,1,0,62187.2,0.069016,0.0686743,-0.987368,32,0.00710428,10,-6.78068e-05,-3.00552,0.587579,0.100412,-3.88276,0.0686743,
2,0,0,1,0,62187.3,0.0675179,0.0671685,-0.98412,32,0.00695458,10,-6.61019e-05,-3.00695,0.660186,0.0893687,-3.43627,0.0671685,
2,0,0,1,0,62187.5,0.0660188,0.0656692,-0.980751,32,0.00680551,10,-6.44051e-05,-3.00844,0.638921,0.0923432,-3.52693,0.0656692,
2,0,0,1,0,62187.6,0.0645213,0.0641685,-0.97485,32,0.00665716,10,-6.25546e-05,-3.01106,0.591724,0.0997087,-3.78112,0.0641685,
2,0,0,1,0,62187.8,0.0630237,0.0626843,-0.965346,32,0.00650983,10,-6.05121e-05,-3.01532,0.526964,0.111962,-4.22595,0.0626843,
2,0,0,1,0,62187.9,0.0615251,0.0611655,-0.959836,32,0.00636347,10,-5.87089e-05,-3.0178,0.555346,0.10624,-3.99039,0.0611655,
2,0,0,1,0,62188.1,0.0600269,0.0596937,-0.955007,32,0.00621795,10,-5.70079e-05,-3.01999,0.623277,0.094661,-3.52856,0.0596937,
2,0,0,1,0,62188.2,0.0585287,0.0581497,-0.951329,32,0.00607313,10,-5.53195e-05,-3.02167,0.481616,0.122504,-4.53533,0.0581497,
2,0,0,1,0,62188.4,0.0570305,0.0566344,-0.943953,32,0.00592922,10,-5.34602e-05,-3.02505,0.490834,0.120204,-4.42554,0.0566344,
2,0,0,1,0,62188.5,0.0555323,0.0551912,-0.936524,32,0.00578642,10,-5.16879e-05,-3.02848,0.54294,0.108668,-3.98103,0.0551912,
2,0,0,1,0,62188.7,0.0540342,0.0536419,-0.933588,32,0.00564445,10,-5.00795e-05,-3.02984,0.576178,0.102399,-3.72334,0.0536419,
2,0,0,1,0,62188.8,0.052536,0.0522083,-0.928797,32,0.00550305,10,-4.84909e-05,-3.03208,0.538382,0.109588,-3.96004,0.0522083,
2,0,0,1,0,62189,0.0510378,0.0507057,-0.921445,32,0.0053627,10,-4.67225e-05,-3.03553,0.491078,0.120144,-4.3193,0.0507057,
2,0,0,1,0,62189.1,0.0495391,0.0491978,-0.913064,32,0.00522332,10,-4.49207e-05,-3.0395,0.58048,0.10164,-3.62772,0.0491978,
2,0,0,1,0,62189.3,0.0480416,0.0476467,-0.907973,32,0.00508482,10,-4.32619e-05,-3.04193,0.637255,0.0925847,-3.28106,0.0476467,
2,0,0,1,0,62189.4,0.0465441,0.0462086,-0.901759,32,0.00494716,10,-4.1669e-05,-3.04491,0.575484,0.102522,-3.61552,0.0462086,
2,0,0,1,0,62189.6,0.045045,0.0447091,-0.896899,32,0.00481033,10,-4.00995e-05,-3.04726,0.485954,0.121411,-4.24882,0.0447091,
2,0,0,1,0,62189.7,0.0435468,0.0432245,-0.888333,32,0.00467459,10,-3.83977e-05,-3.05142,0.45707,0.129083,-4.48398,0.04322451,
2,0,0,1,0,62189.9,0.0420486,0.041706,-0.884511,32,0.00453988,10,-3.68894e-05,-3.0533,0.499344,0.118155,-4.07743,0.041706,
2,0,0,1,0,62190,0.0405504,0.0401758,-0.87964,32,0.00440591,10,-3.53403e-05,-3.05569,0.477218,0.123633,-4.23334,0.0401758,
2,0,0,1,0,62190.2,0.0390523,0.0386923,-0.873024,32,0.00427274,10,-3.37793e-05,-3.05897,0.406206,0.145247,-4.93816,0.0386923,
2,0,0,1,0,62190.3,0.0375541,0.0371813,-0.865044,32,0.00414063,10,-3.21634e-05,-3.06296,0.420197,0.14041,-4.74591,0.0371813,
2,0,0,1,0,62190.5,0.0360559,0.0356797,-0.859985,32,0.00400971,10,-3.0684e-05,-3.06551,0.42835,0.137738,-4.62292,0.0356797,
2,0,0,1,0,62190.6,0.0345568,0.03419,-0.853062,32,0.00387948,10,-2.91662e-05,-3.06902,0.530633,0.111188,-3.69932,0.03419,
2,0,0,1,0,62190.8,0.0330593,0.0326733,-0.845174,32,0.00375026,10,-2.76147e-05,-3.07305,0.44328,0.133099,-4.39018,0.0326733,
2,0,0,1,0,62190.9,0.0315618,0.0311988,-0.839998,32,0.00362196,10,-2.62069e-05,-3.07572,0.448559,0.131532,-4.31096,0.0311988,
2,0,0,1,0,62191.1,0.0300631,0.0297011,-0.833622,32,0.00349468,10,-2.47595e-05,-3.07903,0.442513,0.133329,-4.33359,0.0297011,
2,0,0,1,0,62191.2,0.0285649,0.028171,-0.828363,32,0.00336821,10,-2.33358e-05,-3.08178,0.559177,0.105512,-3.40656,0.028171,
2,0,0,1,0,62191.4,0.0270667,0.0267225,-0.823036,32,0.0032426,10,-2.19936e-05,-3.08458,0.46498,0.126887,-4.06818,0.0267225,
2,0,0,1,0,62191.5,0.0255685,0.0252177,-0.815913,32,0.00311783,10,-2.05755e-05,-3.08836,0.415954,0.141843,-4.5213,0.0252177,
2,0,0,1,0,62191.7,0.0240704,0.0237311,-0.808608,32,0.00299421,10,-1.91891e-05,-3.09226,0.521342,0.113169,-3.58381,0.0237311,
2,0,0,1,0,62191.8,0.0225722,0.0222157,-0.805119,32,0.00287127,10,-1.78863e-05,-3.09414,0.66154,0.0891858,-2.79937,0.0222157,
2,0,0,1,0,62192,0.021074,0.0207068,-0.799783,32,0.00274899,10,-1.65609e-05,-3.09703,0.551039,0.10707,-3.34699,0.0207068,
2,0,0,1,0,62192.1,0.0195758,0.0192455,-0.795581,32,0.00262749,10,-1.53114e-05,-3.09932,0.586449,0.100606,-3.12296,0.0192455,
2,0,0,1,0,62192.3,0.0180772,0.0177329,-0.789204,32,0.00250664,10,-1.39948e-05,-3.10281,0.661404,0.0892042,-2.75339,0.0177329,
2,0,0,1,0,62192.4,0.0165796,0.016219,-0.788487,32,0.00238659,10,-1.27885e-05,-3.10321,0.723677,0.0815281,-2.50871,0.016219,
2,0,0,1,0,62192.6,0.0150821,0.0147065,-0.783994,32,0.00226704,10,-1.15298e-05,-3.10569,0.962786,0.0612805,-1.87356,0.0147065,
2,0,0,1,0,62192.7,0.013583,0.0132171,-0.780608,32,0.00214781,10,-1.03174e-05,-3.10757,0.757399,0.0778982,-2.36744,0.0132171,
2,0,0,1,0,62192.9,0.0120848,0.0117389,-0.776276,32,0.00202924,10,-9.11265e-06,-3.10998,0.943975,0.0625017,-1.89576,0.0117389,
2,0,0,1,0,62193,0.0105866,0.0102363,-0.774059,32,0.00191132,10,-7.92352e-06,-3.11123,1.06414,0.0554436,-1.67692,0.0102363,
2,0,0,1,0,62193.1,0.00908846,0.00872737,-0.772601,32,0.00179355,10,-6.74278e-06,-3.11204,1.96419,0.0300378,-0.905343,0.00872737,
2,0,0,1,0,62193.3,0.00759027,0.00723537,-0.769783,32,0.00167604,10,-5.56967e-06,-3.11363,1.18573,0.0497585,-1.49794,0.00723537,
2,0,0,1,0,62193.4,0.00609207,0.00575823,-0.769598,32,0.00155877,10,-4.43152e-06,-3.11374,1.52951,0.0385745,-1.15691,0.00575823,
2,0,0,1,0,62193.6,0.00459389,0.00420791,-0.768441,32,0.00144187,10,-3.23353e-06,-3.11439,2.71391,0.0217399,-0.651915,0.00420791,
2,0,0,1,0,62193.7,0.0030948,0.00275962,-0.767905,32,0.00132493,10,-2.11913e-06,-3.11469,-1.05422,-0.0559657,1.67954,0.00275962,
2,0,0,1,0,62193.9,0.00159728,0.00118096,-0.77637,32,0.00120693,10,-9.16858e-07,-3.10993, , , ,0.00118096,
2,0,0,1,0,62194,0.000199195,-0.0002108,-0.769576,32,0.0010971,10,1.62226e-07,-3.11375, , , ,-0.0002108,