File: Figure_codes/Fig_3-5/rawdata_trumpetplot_data/after 10th/20221101_1-115_003_TrumpetPlot_ParaChange_from10_every3_11_CV_C01_26.csv
mode,ox/red,error,control changes,counter inc.,time/s,control/V,Ewe/V,<I>/mA,cycle number,(Q-Qo)/C,I Range,P/W,log(|I|),Tafel slope mV/dec,alpha_eff,dI/d(E-IR),E-IR/V,
2,1,0,1,0,52417.9,2.44065e-05,-0.000248974,9.40483,27,0.0000000E+000,10,-2.34156e-06,-2.02665, , , ,-0.000248974,
2,1,0,1,0,52417.9,0.00214129,0.00175201,10.423,27,5.11244e-05,10,1.82613e-05,-1.98201, , , ,0.001752013,
2,1,0,1,0,52417.9,0.00454949,0.00422488,11.1941,27,0.000116189,10,4.72938e-05,-1.95101,0.0865909,0.681365,292.99,0.00422488,
2,1,0,1,0,52417.9,0.0069466,0.00658747,11.7929,27,0.00018525,10,7.76854e-05,-1.92838,0.11186,0.527445,241.226,0.00658747,
2,1,0,1,0,52417.9,0.0093437,0.00898823,12.3416,27,0.000257753,10,0.000110929,-1.90863,0.132155,0.446446,213.908,0.00898823,
2,1,0,1,0,52417.9,0.0117408,0.0113816,12.8241,27,0.000333344,10,0.000145959,-1.89197,0.152355,0.387254,193.127,0.0113816,
2,1,0,1,0,52417.9,0.0141462,0.0138163,13.2684,27,0.000411679,10,0.00018332,-1.87718,0.169669,0.347737,179.661,0.0138163,
2,1,0,1,0,52418,0.0165433,0.016217,13.6844,27,0.000492594,10,0.00022192,-1.86377,0.191562,0.307994,163.991,0.016217,
2,1,0,1,0,52418,0.0189404,0.018622,14.0584,27,0.000575883,10,0.000261796,-1.85206,0.208996,0.282302,154.652,0.018622,
2,1,0,1,0,52418,0.0213486,0.0209984,14.4175,27,0.000661351,10,0.000302744,-1.84111,0.23112,0.255279,143.367,0.02099839,
2,1,0,1,0,52418,0.0237457,0.0234045,14.7511,27,0.000748901,10,0.000345242,-1.83117,0.252647,0.233527,134.215,0.0234045,
2,1,0,1,0,52418,0.0261429,0.0257893,15.0605,27,0.00083837,10,0.000388401,-1.82216,0.267265,0.220755,129.664,0.0257893,
2,1,0,1,0,52418,0.02854,0.0282007,15.3611,27,0.000929672,10,0.000433193,-1.81358,0.288834,0.204269,122.302,0.0282007,
2,1,0,1,0,52418,0.0309482,0.0306036,15.6455,27,0.00102276,10,0.000478807,-1.80561,0.309662,0.19053,116.224,0.03060355,
2,1,0,1,0,52418,0.0333453,0.0330086,15.9185,27,0.00111748,10,0.000525448,-1.7981,0.332611,0.177384,110.129,0.0330086,
2,1,0,1,0,52418,0.0357424,0.0353977,16.1828,27,0.00121381,10,0.000572835,-1.79095,0.34733,0.169867,107.208,0.0353977,
2,1,0,1,0,52418,0.0381478,0.0377825,16.4264,27,0.00131167,10,0.000620632,-1.78446,0.358931,0.164377,105.378,0.0377825,
2,1,0,1,0,52418,0.0405449,0.0401981,16.6853,27,0.00141105,10,0.000670716,-1.77767,0.383463,0.153861,100.109,0.0401981,
2,1,0,1,0,52418,0.042942,0.0426021,16.922,27,0.0015119,10,0.000720911,-1.77155,0.389869,0.151333,99.9228,0.0426021,
2,1,0,1,0,52418,0.0453391,0.045007,17.1489,27,0.00161413,10,0.000771823,-1.76576,0.405948,0.145339,97.2854,0.04500705,
2,1,0,1,0,52418,0.0477473,0.0473898,17.3914,27,0.00171781,10,0.000824174,-1.75967,0.415473,0.142007,96.3155,0.0473898,
2,1,0,1,0,52418,0.0501444,0.0497831,17.6213,27,0.00182287,10,0.000877243,-1.75396,0.42682,0.138232,95.0233,0.0497831,
2,1,0,1,0,52418,0.0525415,0.0521807,17.8395,27,0.00192926,10,0.000930878,-1.74862,0.436112,0.135286,94.2311,0.0521807,
2,1,0,1,0,52418,0.0549469,0.0545921,18.0738,27,0.00203703,10,0.000986686,-1.74295,0.432607,0.136383,96.1599,0.0545921,
2,1,0,1,0,52418.1,0.057344,0.0570352,18.2952,27,0.00214617,10,0.00104347,-1.73766,0.456775,0.129167,92.2107,0.0570352,
2,1,0,1,0,52418.1,0.0597412,0.0593724,18.5156,27,0.00225664,10,0.00109932,-1.73246,0.460164,0.128215,92.6637,0.05937238,
2,1,0,1,0,52418.1,0.0621438,0.0617795,18.7412,27,0.00236843,10,0.00115782,-1.7272,0.45971,0.128342,93.8755,0.0617795,
2,1,0,1,0,52418.1,0.0645465,0.0641887,18.9689,27,0.00248159,10,0.00121759,-1.72196,0.460881,0.128016,94.7662,0.0641887,
2,1,0,1,0,52418.1,0.0669436,0.0666054,19.1997,27,0.00259612,10,0.00127881,-1.71671,0.469715,0.125608,94.0708,0.0666054,
2,1,0,1,0,52418.1,0.0693407,0.0689659,19.4179,27,0.00271199,10,0.00133918,-1.7118,0.471702,0.125079,94.8182,0.0689659,
2,1,0,1,0,52418.1,0.0717489,0.0713571,19.6496,27,0.0028292,10,0.00140214,-1.70665,0.466429,0.126493,96.9896,0.0713571,
2,1,0,1,0,52418.1,0.074146,0.0737621,19.8771,27,0.00294781,10,0.00146618,-1.70165,0.480899,0.122687,95.1549,0.0737621,
2,1,0,1,0,52418.1,0.0765431,0.0761512,20.0989,27,0.00306779,10,0.00153055,-1.69683,0.482582,0.122259,95.9659,0.0761512,
2,1,0,1,0,52418.1,0.0789485,0.0785689,20.3419,27,0.00318911,10,0.00159824,-1.69161,0.481517,0.12253,97.2941,0.0785689,
2,1,0,1,0,52418.1,0.0813456,0.0810227,20.5865,27,0.00331192,10,0.00166798,-1.68642,0.481738,0.122473,98.3187,0.0810227,
2,1,0,1,0,52418.1,0.0837427,0.0833683,20.8056,27,0.00343614,10,0.00173453,-1.68182,0.486256,0.121335,98.5688,0.0833683,
2,1,0,1,0,52418.1,0.0861398,0.0857341,21.0539,27,0.00356176,10,0.00180504,-1.67667,0.492546,0.119786,98.4165,0.0857341,
2,1,0,1,0,52418.1,0.088548,0.0881773,21.2923,27,0.00368884,10,0.0018775,-1.67178,0.50362,0.117152,97.3114,0.0881773,
2,1,0,1,0,52418.1,0.0909451,0.0905801,21.5283,27,0.00381731,10,0.00195003,-1.66699,0.524216,0.112549,94.5533,0.0905801,
2,1,0,1,0,52418.1,0.0933422,0.0929979,21.7565,27,0.00394718,10,0.00202331,-1.66241,0.515172,0.114525,97.2554,0.0929979,
2,1,0,1,0,52418.2,0.0957476,0.0953806,21.9941,27,0.00407844,10,0.00209781,-1.65769,0.529272,0.111474,95.6479,0.0953806,
2,1,0,1,0,52418.2,0.0981447,0.0978058,22.2171,27,0.00421111,10,0.00217296,-1.65331,0.528943,0.111543,96.6925,0.0978058,
2,1,0,1,0,52418.2,0.100542,0.100134,22.4436,27,0.0043451,10,0.00224738,-1.64891,0.523899,0.112617,98.7041,0.1001344,
2,1,0,1,0,52418.2,0.102939,0.102532,22.6822,27,0.00448051,10,0.00232565,-1.64432,0.511641,0.115315,102.112,0.102532,
2,1,0,1,0,52418.2,0.105347,0.104974,22.9424,27,0.00461743,10,0.00240836,-1.63936,0.526949,0.111965,100.18,0.1049741,
2,1,0,1,0,52418.2,0.107744,0.10739,23.1697,27,0.00475581,10,0.00248819,-1.63508,0.54967,0.107337,97.0586,0.10739,
2,1,0,1,0,52418.2,0.110141,0.109792,23.4096,27,0.00489557,10,0.00257017,-1.63061,0.531997,0.110903,101.37,0.109792,
2,1,0,1,0,52418.2,0.11255,0.112174,23.6646,27,0.00503678,10,0.00265456,-1.6259,0.533594,0.110571,102.064,0.112174,
2,1,0,1,0,52418.2,0.114947,0.11456,23.9021,27,0.00517951,10,0.00273823,-1.62156,0.536292,0.110015,102.635,0.11456,
2,1,0,1,0,52418.2,0.117344,0.117019,24.149,27,0.00532366,10,0.00282589,-1.6171,0.521151,0.113211,106.756,0.117019,
2,1,0,1,0,52418.2,0.119744,0.11938,24.4124,27,0.00546935,10,0.00291434,-1.61239,0.508926,0.11593,110.447,0.11938,
2,1,0,1,0,52418.2,0.122146,0.121773,24.6749,27,0.00561665,10,0.00300474,-1.60774,0.504934,0.116847,112.506,0.121773,
2,1,0,1,0,52418.2,0.124543,0.124198,24.9451,27,0.00576555,10,0.00309814,-1.60301,0.503544,0.117169,114.091,0.124198,
2,1,0,1,0,52418.2,0.126941,0.126592,25.2191,27,0.00591606,10,0.00319252,-1.59827,0.487225,0.121094,119.26,0.126592,
2,1,0,1,0,52418.2,0.129349,0.128997,25.5219,27,0.00606831,10,0.00329223,-1.59309,0.476138,0.123914,123.41,0.128997,
2,1,0,1,0,52418.2,0.131746,0.131382,25.8111,27,0.00622236,10,0.00339113,-1.58819,0.482437,0.122296,123.197,0.131382,
2,1,0,1,0,52418.2,0.134143,0.133761,26.1111,27,0.00637816,10,0.00349264,-1.58318,0.470188,0.125482,127.934,0.133761,
2,1,0,1,0,52418.3,0.13654,0.13619,26.4196,27,0.00653577,10,0.00359809,-1.57807,0.47359,0.12458,128.438,0.13619,
2,1,0,1,0,52418.3,0.138945,0.13861,26.7307,27,0.00669529,10,0.00370514,-1.57299,0.480501,0.122789,128.064,0.13861,
2,1,0,1,0,52418.3,0.141343,0.141029,27.0308,27,0.00685661,10,0.00381212,-1.56814,0.487716,0.120972,127.657,0.141029,
2,1,0,1,0,52418.3,0.14374,0.143393,27.3428,27,0.00701976,10,0.00392076,-1.56316,0.49505,0.11918,127.162,0.143393,
2,1,0,1,0,52418.3,0.146148,0.145776,27.655,27,0.00718482,10,0.00403144,-1.55823,0.507216,0.116321,125.46,0.145776,
2,1,0,1,0,52418.3,0.148545,0.148202,27.9412,27,0.00735164,10,0.00414092,-1.55376,0.532285,0.110843,120.903,0.148202,
2,1,0,1,0,52418.3,0.150942,0.150589,28.2332,27,0.00752021,10,0.0042516,-1.54924,0.527266,0.111898,123.299,0.150589,
2,1,0,1,0,52418.3,0.153345,0.152968,28.5258,27,0.00769052,10,0.00436354,-1.54476,0.558739,0.105595,117.523,0.152968,
2,1,0,1,0,52418.3,0.155747,0.155421,28.8051,27,0.00786256,10,0.00447692,-1.54053,0.586748,0.100554,112.956,0.155421,
2,1,0,1,0,52418.3,0.158144,0.157796,29.0653,27,0.0080362,10,0.00458639,-1.53663,0.632053,0.0933466,105.852,0.157796,
2,1,0,1,0,52418.3,0.160542,0.160174,29.3171,27,0.00821136,10,0.00469583,-1.53288,0.652947,0.0903595,103.348,0.160174,
2,1,0,1,0,52418.3,0.162947,0.16259,29.5651,27,0.00838805,10,0.004807,-1.52922,0.719459,0.0820061,94.516,0.16259,
2,1,0,1,0,52418.3,0.165344,0.164955,29.7643,27,0.00856608,10,0.00490977,-1.5263,0.814727,0.0724169,84.1004,0.164955,
2,1,0,1,0,52418.3,0.167741,0.167348,29.9628,27,0.0087453,10,0.00501422,-1.52342,0.885885,0.0666001,77.8474,0.167348,
2,1,0,1,0,52418.3,0.170149,0.169809,30.1567,27,0.00892567,10,0.0051209,-1.52062,1.07144,0.0550662,64.6939,0.169809,
2,1,0,1,0,52418.3,0.172547,0.172171,30.2654,27,0.00910697,10,0.00521083,-1.51905,1.43602,0.0410858,48.4896,0.172171,
2,1,0,1,0,52418.3,0.174944,0.174601,30.3703,27,0.00928893,10,0.00530269,-1.51755,2.04297,0.0288796,34.1961,0.174601,
2,1,0,1,0,52418.4,0.177341,0.17701,30.4353,27,0.00947137,10,0.00538735,-1.51662,4.49743,0.0131186,15.5615,0.17701,
2,1,0,1,0,52418.4,0.179746,0.179431,30.4501,27,0.00965406,10,0.00546367,-1.51641,-18.142,-0.00325211,-3.85917,0.179431,
2,1,0,1,0,52418.4,0.182143,0.181812,30.4169,27,0.00983668,10,0.00553016,-1.51689,-3.11516,-0.0189397,-22.4524,0.1818122,
2,1,0,1,0,52418.4,0.18454,0.184207,30.3456,27,0.010019,10,0.00558987,-1.5179,-1.70985,-0.0345059,-40.8054,0.1842066,
2,1,0,1,0,52418.4,0.186949,0.186605,30.2304,27,0.0102007,10,0.00564114,-1.51956,-1.13338,-0.0520565,-61.3061,0.186605,
2,1,0,1,0,52418.4,0.189346,0.18902,30.0499,27,0.0103815,10,0.00568002,-1.52216,-0.845058,-0.0698177,-81.7815,0.18902,
2,1,0,1,0,52418.4,0.191743,0.191413,29.831,27,0.0105611,10,0.00571005,-1.52533,-0.704764,-0.0837159,-97.3513,0.191413,
2,1,0,1,0,52418.4,0.19414,0.193791,29.5701,27,0.0107394,10,0.00573041,-1.52915,-0.581798,-0.10141,-116.833,0.193791,
2,1,0,1,0,52418.4,0.196548,0.196215,29.262,27,0.0109159,10,0.00574163,-1.5337,-0.497363,-0.118626,-135.303,0.196215,
2,1,0,1,0,52418.4,0.198945,0.198626,28.9079,27,0.0110903,10,0.00574186,-1.53898,-0.431743,-0.136655,-154.013,0.198626,
2,1,0,1,0,52418.4,0.201342,0.201004,28.5289,27,0.0112626,10,0.00573443,-1.54472,-0.39299,-0.150131,-166.915,0.201004,
2,1,0,1,0,52418.4,0.203748,0.203409,28.1028,27,0.0114325,10,0.00571638,-1.55125,-0.357209,-0.165169,-180.96,0.203409,
2,1,0,1,0,52418.4,0.206145,0.205789,27.6506,27,0.0115997,10,0.00569018,-1.5583,-0.332355,-0.177521,-191.497,0.205789,
2,1,0,1,0,52418.4,0.208542,0.208203,27.1893,27,0.0117642,10,0.00566087,-1.5656,-0.314529,-0.187582,-198.863,0.208203,
2,1,0,1,0,52418.4,0.210939,0.2106,26.6917,27,0.0119259,10,0.00562128,-1.57362,-0.29682,-0.198774,-206.965,0.2106,
2,1,0,1,0,52418.4,0.213347,0.213003,26.1942,27,0.0120845,10,0.00557944,-1.58179,-0.290779,-0.202903,-207.319,0.213003,
2,1,0,1,0,52418.5,0.215744,0.215394,25.6807,27,0.0122401,10,0.00553148,-1.59039,-0.275949,-0.213808,-214.25,0.215394,
2,1,0,1,0,52418.5,0.218141,0.217823,25.1723,27,0.0123926,10,0.0054831,-1.59908,-0.271994,-0.216917,-213.066,0.217823,
2,1,0,1,0,52418.5,0.220547,0.220202,24.6664,27,0.012542,10,0.0054316,-1.60789,-0.267799,-0.220315,-212.038,0.220202,
2,1,0,1,0,52418.5,0.222944,0.222602,24.1547,27,0.0126885,10,0.00537687,-1.617,-0.266831,-0.221114,-208.548,0.2226018,
2,1,0,1,0,52418.5,0.225341,0.225015,23.6679,27,0.0128319,10,0.00532563,-1.62584,-0.268148,-0.220027,-203.308,0.225015,
2,1,0,1,0,52418.5,0.227744,0.227438,23.1921,27,0.0129724,10,0.00527478,-1.63466,-0.271653,-0.217189,-196.58,0.227438,
2,1,0,1,0,52418.5,0.230146,0.229838,22.7185,27,0.0131101,10,0.00522158,-1.64362,-0.273324,-0.215861,-191.55,0.229838,
2,1,0,1,0,52418.5,0.232543,0.232203,22.2781,27,0.013245,10,0.00517304,-1.65212,-0.278558,-0.211805,-184.18,0.232203,
2,1,0,1,0,52418.5,0.234941,0.234605,21.8474,27,0.0133773,10,0.0051255,-1.6606,-0.287253,-0.205394,-175.151,0.234605,
2,1,0,1,0,52418.5,0.237349,0.236994,21.4264,27,0.0135071,10,0.00507793,-1.66905,-0.294305,-0.200472,-167.776,0.236994,
2,1,0,1,0,52418.5,0.239746,0.23943,21.0353,27,0.0136344,10,0.00503648,-1.67705,-0.300668,-0.196229,-161.182,0.23943,
2,1,0,1,0,52418.5,0.242143,0.241814,20.6592,27,0.0137595,10,0.0049957,-1.68489,-0.311686,-0.189293,-152.672,0.241814,
2,1,0,1,0,52418.5,0.244548,0.244238,20.2937,27,0.0138823,10,0.00495649,-1.69264,-0.3164,-0.186473,-147.797,0.244238,
2,1,0,1,0,52418.5,0.246946,0.246575,19.9465,27,0.014003,10,0.00491832,-1.70013,-0.331949,-0.177738,-138.456,0.246575,
2,1,0,1,0,52418.5,0.249343,0.249037,19.6233,27,0.0141217,10,0.00488692,-1.70723,-0.340853,-0.173095,-132.617,0.249037,
2,1,0,1,0,52418.5,0.25174,0.251419,19.3062,27,0.0142384,10,0.00485395,-1.7143,-0.348119,-0.169482,-127.778,0.2514194,
2,1,0,1,0,52418.5,0.254148,0.253795,19.0168,27,0.0143534,10,0.00482636,-1.72086,-0.365276,-0.161522,-119.936,0.253795,
2,1,0,1,0,52418.6,0.256545,0.256219,18.7321,27,0.0144666,10,0.00479952,-1.72741,-0.375262,-0.157224,-115.014,0.256219,
2,1,0,1,0,52418.6,0.258942,0.258603,18.4753,27,0.0145781,10,0.00477776,-1.73341,-0.394981,-0.149374,-107.701,0.258603,
2,1,0,1,0,52418.6,0.261348,0.261044,18.2148,27,0.0146881,10,0.00475486,-1.73958,-0.40342,-0.14625,-104.027,0.261044,
2,1,0,1,0,52418.6,0.263745,0.263434,17.9686,27,0.0147967,10,0.00473355,-1.74548,-0.424473,-0.138996,-97.537,0.263434,
2,1,0,1,0,52418.6,0.266142,0.26586,17.747,27,0.0149038,10,0.00471821,-1.75088,-0.440903,-0.133816,-92.6943,0.26586,
2,1,0,1,0,52418.6,0.268539,0.268192,17.5137,27,0.0150096,10,0.00469702,-1.75662,-0.456513,-0.129241,-88.4463,0.268192,
2,1,0,1,0,52418.6,0.270947,0.27065,17.3116,27,0.015114,10,0.00468539,-1.76166,-0.474879,-0.124242,-83.9774,0.27065,
2,1,0,1,0,52418.6,0.273344,0.273024,17.1229,27,0.0152173,10,0.00467497,-1.76642,-0.48492,-0.12167,-81.2803,0.273024,
2,1,0,1,0,52418.6,0.275741,0.275396,16.9226,27,0.0153194,10,0.00466042,-1.77153,-0.496415,-0.118852,-78.5403,0.275396,
2,1,0,1,0,52418.6,0.278149,0.277855,16.7478,27,0.0154204,10,0.00465347,-1.77604,-0.526886,-0.111979,-73.2129,0.277855,
2,1,0,1,0,52418.6,0.280547,0.280238,16.5736,27,0.0155203,10,0.00464456,-1.78058,-0.546799,-0.107901,-69.7996,0.280238,
2,1,0,1,0,52418.6,0.282944,0.28263,16.4075,27,0.0156193,10,0.00463727,-1.78496,-0.563014,-0.104793,-67.121,0.28263,
2,1,0,1,0,52418.6,0.285344,0.284982,16.2477,27,0.0157172,10,0.0046303,-1.78921,-0.568384,-0.103803,-65.8445,0.284982,
2,1,0,1,0,52418.6,0.287746,0.287401,16.0933,27,0.0158142,10,0.00462522,-1.79336,-0.605572,-0.0974286,-61.2174,0.287401,
2,1,0,1,0,52418.6,0.290143,0.2898,15.9533,27,0.0159103,10,0.00462328,-1.79715,-0.611498,-0.0964844,-60.0385,0.2898,
2,1,0,1,0,52418.6,0.29254,0.292156,15.8024,27,0.0160056,10,0.00461675,-1.80128,-0.636548,-0.0926874,-57.2001,0.292156,
2,1,0,1,0,52418.6,0.294949,0.294594,15.6766,27,0.0161,10,0.00461823,-1.80475,-0.675416,-0.0873536,-53.4664,0.294594,
2,1,0,1,0,52418.7,0.297346,0.297017,15.5532,27,0.0161937,10,0.00461958,-1.80818,-0.716853,-0.0823042,-50.0131,0.297017,
2,1,0,1,0,52418.7,0.299621,0.299274,15.427,27,0.016282,10,0.00461691,-1.81172,-0.0897764,-0.657188,-385.062,0.299274,
2,1,0,1,0,52418.7,0.299962,0.299746,15.2907,27,0.0163004,10,0.00458332,-1.81557,0.013635,4.32711,2254.35,0.299746,
2,1,0,1,0,52418.7,0.297903,0.297644,12.2964,27,0.0163695,10,0.00365996,-1.91022,0.0242527,2.43272,1146.3,0.297644,
2,1,0,1,0,52418.7,0.295506,0.295208,9.93178,27,0.0164356,10,0.00293194,-2.00297,0.0259219,2.27607,896.758,0.295208,
2,1,0,1,0,52418.7,0.293101,0.29279,8.03814,27,0.0164892,10,0.00235349,-2.09484,0.0252483,2.33679,736.023,0.29279,
2,1,0,1,0,52418.7,0.290704,0.290384,6.42689,27,0.0165323,10,0.00186627,-2.192,0.0237619,2.48296,621.702,0.290384,
2,1,0,1,0,52418.7,0.288307,0.288,5.0419,27,0.0165665,10,0.00145207,-2.29741,0.020893,2.82392,550.217,0.288,
2,1,0,1,0,52418.7,0.28591,0.285595,3.83068,27,0.0165929,10,0.00109402,-2.41672,0.0178268,3.30962,482.577,0.285595,
2,1,0,1,0,52418.7,0.283501,0.283139,2.7395,27,0.0166124,10,0.00077566,-2.56233,0.0140457,4.20058,428.334,0.283139,
2,1,0,1,0,52418.7,0.281104,0.280771,1.76867,27,0.0166258,10,0.000496591,-2.75235,0.00944003,6.24998,381.251,0.280771,
2,1,0,1,0,52418.7,0.278707,0.278366,0.919282,27,0.0166338,10,0.000255897,-3.03655,0.00517638,11.3979,342.364,0.278366,
2,1,0,1,0,52418.7,0.276302,0.275983,0.127811,27,0.0166368,10,3.52735e-05,-3.89343,0.0373242,1.58075,311.809,0.275983,
2,0,0,1,0,52418.7,0.273905,0.273615,-0.579881,27,0.0166353,10,-0.000158664,-3.23666,-0.0112275,-5.25497,284.364,0.273615,
2,0,0,1,0,52418.7,0.271508,0.271183,-1.218,27,0.0166298,10,-0.000330301,-2.91435,-0.00847812,-6.95909,258.743,0.271183,
2,0,0,1,0,52418.7,0.269105,0.268805,-1.8171,27,0.0166206,10,-0.000488446,-2.74062,-0.0162061,-3.6406,235.771,0.268805,
2,0,0,1,0,52418.7,0.266702,0.266397,-2.36247,27,0.016608,10,-0.000629353,-2.62663,-0.0238269,-2.47619,217.297,0.266397,
2,0,0,1,0,52418.8,0.264305,0.263998,-2.86196,27,0.0165923,10,-0.000755552,-2.54334,-0.0319101,-1.84895,200.184,0.263998,
2,0,0,1,0,52418.8,0.261908,0.26157,-3.31916,27,0.0165737,10,-0.000868193,-2.47897,-0.0408259,-1.44516,183.817,0.26157,
2,0,0,1,0,52418.8,0.2595,0.259151,-3.75439,27,0.0165524,10,-0.000972952,-2.42546,-0.0489599,-1.20507,173.976,0.259151,
2,0,0,1,0,52418.8,0.257103,0.256776,-4.15869,27,0.0165286,10,-0.00106785,-2.38104,-0.0597029,-0.988227,158.329,0.256776,
2,0,0,1,0,52418.8,0.254706,0.254378,-4.51363,27,0.0165026,10,-0.00114817,-2.34547,-0.0687094,-0.858689,150.469,0.254378,
2,0,0,1,0,52418.8,0.2523,0.251986,-4.87101,27,0.0164744,10,-0.00122742,-2.31238,-0.0789232,-0.747562,141.102,0.251986,
2,0,0,1,0,52418.8,0.249903,0.249591,-5.19638,27,0.0164441,10,-0.00129697,-2.2843,-0.0906306,-0.650994,131.056,0.249591,
2,0,0,1,0,52418.8,0.247506,0.247185,-5.49291,27,0.016412,10,-0.00135777,-2.2602,-0.10068,-0.586016,125.317,0.247185,
2,0,0,1,0,52418.8,0.245109,0.244791,-5.78456,27,0.0163782,10,-0.00141601,-2.23773,-0.111539,-0.528963,119.026,0.244791,
2,0,0,1,0,52418.8,0.242701,0.242357,-6.07435,27,0.0163425,10,-0.00147216,-2.2165,-0.124363,-0.474418,111.742,0.242357,
2,0,0,1,0,52418.8,0.240304,0.239972,-6.32,27,0.0163053,10,-0.00151662,-2.19928,-0.140139,-0.421011,103.587,0.239972,
2,0,0,1,0,52418.8,0.237906,0.237602,-6.5624,27,0.0162667,10,-0.00155924,-2.18294,-0.151349,-0.389828,99.6565,0.237602,
2,0,0,1,0,52418.8,0.235501,0.235171,-6.79971,27,0.0162266,10,-0.00159909,-2.16751,-0.16263,-0.362786,96.036,0.235171,
2,0,0,1,0,52418.8,0.233104,0.23278,-7.0209,27,0.0161851,10,-0.00163432,-2.15361,-0.178283,-0.330935,90.4875,0.23278,
2,0,0,1,0,52418.8,0.230707,0.230395,-7.22892,27,0.0161423,10,-0.00166551,-2.14093,-0.189937,-0.310629,87.5791,0.230395,
2,0,0,1,0,52418.8,0.22831,0.227979,-7.42376,27,0.0160983,10,-0.00169246,-2.12938,-0.202446,-0.291435,84.4821,0.227979,
2,0,0,1,0,52418.8,0.225902,0.225606,-7.63305,27,0.0160531,10,-0.00172206,-2.1173,-0.218915,-0.26951,80.0675,0.225606,
2,0,0,1,0,52418.9,0.223504,0.223201,-7.81209,27,0.0160067,10,-0.00174367,-2.10723,-0.241382,-0.244426,74.4774,0.223201,
2,0,0,1,0,52418.9,0.221107,0.220815,-7.98576,27,0.0159593,10,-0.00176338,-2.09768,-0.24474,-0.241072,75.1978,0.220815,
2,0,0,1,0,52418.9,0.218699,0.218344,-8.18513,27,0.0159108,10,-0.00178718,-2.08697,-0.261001,-0.226053,71.949,0.218344,
2,0,0,1,0,52418.9,0.216302,0.215957,-8.33841,27,0.0158612,10,-0.00180074,-2.07892,-0.285844,-0.206407,67.1166,0.215957,
2,0,0,1,0,52418.9,0.213905,0.213577,-8.49664,27,0.0158107,10,-0.00181468,-2.07075,-0.295848,-0.199426,66.179,0.213577,
2,0,0,1,0,52418.9,0.211505,0.211158,-8.66491,27,0.0157592,10,-0.00182966,-2.06224,-0.304984,-0.193453,65.315,0.211158,
2,0,0,1,0,52418.9,0.209102,0.208772,-8.81699,27,0.0157067,10,-0.00184074,-2.05468,-0.324703,-0.181705,62.4615,0.208772,
2,0,0,1,0,52418.9,0.206705,0.206392,-8.96695,27,0.0156534,10,-0.00185071,-2.04736,-0.337027,-0.17506,61.2096,0.206392,
2,0,0,1,0,52418.9,0.204308,0.203944,-9.11458,27,0.0155991,10,-0.00185886,-2.04026,-0.333727,-0.176791,62.8379,0.203944,
2,0,0,1,0,52418.9,0.2019,0.201586,-9.26154,27,0.015544,10,-0.00186699,-2.03332,-0.356437,-0.165527,59.7459,0.201586,
2,0,0,1,0,52418.9,0.199503,0.199156,-9.39627,27,0.015488,10,-0.00187133,-2.02704,-0.38245,-0.154269,56.5263,0.199156,
2,0,0,1,0,52418.9,0.197106,0.196785,-9.52669,27,0.0154312,10,-0.00187471,-2.02106,-0.381779,-0.15454,57.5254,0.196785,
2,0,0,1,0,52418.9,0.194709,0.194377,-9.66818,27,0.0153736,10,-0.00187927,-2.01466,-0.382563,-0.154223,58.1892,0.194377,
2,0,0,1,0,52418.9,0.192303,0.191948,-9.81326,27,0.0153152,10,-0.00188363,-2.00819,-0.404836,-0.145738,55.7298,0.191948,
2,0,0,1,0,52418.9,0.189906,0.189591,-9.93107,27,0.0152559,10,-0.00188284,-2.003,-0.423828,-0.139207,54.0272,0.189591,
2,0,0,1,0,52418.9,0.187509,0.187212,-10.0725,27,0.0151959,10,-0.00188569,-1.99686,-0.41412,-0.142471,55.9718,0.1872118,
2,0,0,1,0,52418.9,0.185101,0.184746,-10.2114,27,0.015135,10,-0.00188652,-1.99092,-0.425823,-0.138555,55.1483,0.184746,
2,0,0,1,0,52419,0.182704,0.182365,-10.3307,27,0.0150734,10,-0.00188396,-1.98587,-0.443322,-0.133086,53.7209,0.182365,
2,0,0,1,0,52419,0.180307,0.179987,-10.4663,27,0.015011,10,-0.00188379,-1.98021,-0.409943,-0.143922,58.8142,0.179987,
2,0,0,1,0,52419,0.177904,0.17755,-10.6097,27,0.0149478,10,-0.00188375,-1.9743,-0.44168,-0.133581,55.266,0.17755,
2,0,0,1,0,52419,0.175501,0.175168,-10.738,27,0.0148837,10,-0.00188095,-1.96908,-0.436071,-0.135299,56.7193,0.175168,
2,0,0,1,0,52419,0.173104,0.172763,-10.8743,27,0.0148188,10,-0.00187867,-1.9636,-0.436198,-0.13526,57.4318,0.172763,
2,0,0,1,0,52419,0.170707,0.170383,-11.0185,27,0.0147532,10,-0.00187737,-1.95788,-0.42322,-0.139408,59.9527,0.170383,
2,0,0,1,0,52419,0.168302,0.167962,-11.1697,27,0.0146866,10,-0.00187609,-1.95196,-0.433663,-0.13605,59.2586,0.167962,
2,0,0,1,0,52419,0.165905,0.165547,-11.3051,27,0.0146191,10,-0.00187153,-1.94672,-0.426242,-0.138419,61.1314,0.165547,
2,0,0,1,0,52419,0.163507,0.163175,-11.4586,27,0.0145508,10,-0.00186976,-1.94087,-0.397329,-0.148492,66.4678,0.1631745,
2,0,0,1,0,52419,0.161099,0.16074,-11.6351,27,0.0144816,10,-0.00187023,-1.93423,-0.385329,-0.153116,69.453,0.16074,
2,0,0,1,0,52419,0.158702,0.158378,-11.7813,27,0.0144113,10,-0.0018659,-1.92881,-0.376441,-0.156731,72.1697,0.158378,
2,0,0,1,0,52419,0.156305,0.155922,-11.9626,27,0.0143401,10,-0.00186524,-1.92217,-0.356759,-0.165378,77.3157,0.155922,
2,0,0,1,0,52419,0.153908,0.153587,-12.1583,27,0.0142677,10,-0.00186736,-1.91513,-0.341164,-0.172937,82.0699,0.153587,
2,0,0,1,0,52419,0.151503,0.151159,-12.3494,27,0.0141941,10,-0.00186672,-1.90836,-0.329724,-0.178938,86.3446,0.151159,
2,0,0,1,0,52419,0.149105,0.148749,-12.5642,27,0.0141194,10,-0.0018689,-1.90087,-0.314582,-0.187551,92.0653,0.148749,
2,0,0,1,0,52419,0.146708,0.146358,-12.8003,27,0.0140433,10,-0.00187342,-1.89278,-0.290214,-0.203298,101.652,0.146358,
2,0,0,1,0,52419.1,0.1443,0.143965,-13.0552,27,0.0139657,10,-0.0018795,-1.88422,-0.275106,-0.214463,109.383,0.143965,
2,0,0,1,0,52419.1,0.141903,0.141568,-13.3262,27,0.0138865,10,-0.00188656,-1.87529,-0.255209,-0.231183,120.452,0.141568,
2,0,0,1,0,52419.1,0.139506,0.139208,-13.6281,27,0.0138057,10,-0.00189714,-1.86557,-0.236077,-0.249918,133.212,0.139208,
2,0,0,1,0,52419.1,0.137109,0.136775,-13.9643,27,0.0137228,10,-0.00190997,-1.85498,-0.221689,-0.266138,145.283,0.136775,
2,0,0,1,0,52419.1,0.134701,0.13438,-14.3271,27,0.0136379,10,-0.00192528,-1.84384,-0.2089,-0.282431,158.152,0.13438,
2,0,0,1,0,52419.1,0.132303,0.131958,-14.7198,27,0.0135508,10,-0.0019424,-1.8321,-0.196724,-0.299913,172.661,0.131958,
2,0,0,1,0,52419.1,0.129906,0.129615,-15.1577,27,0.0134611,10,-0.00196466,-1.81937,-0.187287,-0.315025,186.508,0.129615,
2,0,0,1,0,52419.1,0.127501,0.127181,-15.622,27,0.0133688,10,-0.00198683,-1.80626,-0.181998,-0.32418,197.834,0.127181,
2,0,0,1,0,52419.1,0.125104,0.124794,-16.1121,27,0.0132735,10,-0.0020107,-1.79285,-0.177148,-0.333056,209.692,0.124794,
2,0,0,1,0,52419.1,0.122707,0.122392,-16.6402,27,0.0131752,10,-0.00203663,-1.77884,-0.173432,-0.340192,220.946,0.122392,
2,0,0,1,0,52419.1,0.12031,0.119976,-17.1658,27,0.0130738,10,-0.00205947,-1.76534,-0.172345,-0.342337,229.481,0.119976,
2,0,0,1,0,52419.1,0.117901,0.117575,-17.7238,27,0.012969,10,-0.00208387,-1.75144,-0.176894,-0.333532,230.784,0.117575,
2,0,0,1,0,52419.1,0.115504,0.115185,-18.2993,27,0.0128609,10,-0.00210781,-1.73756,-0.179416,-0.328844,234.606,0.115185,
2,0,0,1,0,52419.1,0.113107,0.112781,-18.8631,27,0.0127494,10,-0.0021274,-1.72439,-0.184618,-0.319579,235.068,0.112781,
2,0,0,1,0,52419.1,0.110702,0.110407,-19.4286,27,0.0126345,10,-0.00214504,-1.71156,-0.188756,-0.312573,236.842,0.110407,
2,0,0,1,0,52419.1,0.108305,0.108007,-19.9987,27,0.0125162,10,-0.00215999,-1.699,-0.193705,-0.304586,237.505,0.108007,
2,0,0,1,0,52419.1,0.105908,0.105593,-20.557,27,0.0123945,10,-0.00217068,-1.68704,-0.203619,-0.289756,232.2,0.105593,
2,0,0,1,0,52419.2,0.103505,0.103178,-21.1125,27,0.0122694,10,-0.00217835,-1.67546,-0.21741,-0.271376,223.159,0.103178,
2,0,0,1,0,52419.2,0.101102,0.100832,-21.598,27,0.0121412,10,-0.00217778,-1.66559,-0.227206,-0.259676,219.093,0.100832,
2,0,0,1,0,52419.2,0.0987052,0.0983964,-22.1499,27,0.0120098,10,-0.00217947,-1.65463,-0.228475,-0.258234,223.134,0.0983964,
2,0,0,1,0,52419.2,0.0963081,0.0960211,-22.6824,27,0.0118753,10,-0.00217799,-1.64431,-0.248414,-0.237507,209.933,0.0960211,
2,0,0,1,0,52419.2,0.0938999,0.0935747,-23.1853,27,0.0117376,10,-0.00216956,-1.63479,-0.262203,-0.225017,203.364,0.0935747,
2,0,0,1,0,52419.2,0.0915028,0.0911952,-23.663,27,0.0115971,10,-0.00215795,-1.62593,-0.28049,-0.210346,194.071,0.0911952,
2,0,0,1,0,52419.2,0.0891057,0.0887965,-24.1304,27,0.0114536,10,-0.00214269,-1.61744,-0.296387,-0.199064,187.172,0.0887965,
2,0,0,1,0,52419.2,0.0867002,0.0864477,-24.558,27,0.0113076,10,-0.00212298,-1.60981,-0.321124,-0.18373,175.917,0.0864477,
2,0,0,1,0,52419.2,0.0843031,0.0840226,-24.9696,27,0.0111589,10,-0.00209801,-1.60259,-0.34166,-0.172686,168.069,0.0840226,
2,0,0,1,0,52419.2,0.081906,0.0816388,-25.3477,27,0.0110079,10,-0.00206936,-1.59606,-0.378341,-0.155944,154.112,0.0816388,
2,0,0,1,0,52419.2,0.0795089,0.0792476,-25.7002,27,0.0108547,10,-0.00203668,-1.59006,-0.416833,-0.141544,141.889,0.0792476,
2,0,0,1,0,52419.2,0.0771007,0.076833,-26.0396,27,0.0106994,10,-0.0020007,-1.58437,-0.446242,-0.132215,134.211,0.076833,
2,0,0,1,0,52419.2,0.0747036,0.0744524,-26.3461,27,0.0105422,10,-0.00196153,-1.57928,-0.499257,-0.118176,121.38,0.0744524,
2,0,0,1,0,52419.2,0.0723065,0.0719594,-26.6251,27,0.0103833,10,-0.00191592,-1.57471,-0.556347,-0.106049,110.065,0.0719594,
2,0,0,1,0,52419.2,0.0699011,0.0696042,-26.8766,27,0.0102228,10,-0.00187072,-1.57063,-0.619138,-0.0952938,99.8841,0.06960424,
2,0,0,1,0,52419.2,0.067504,0.0672512,-27.1125,27,0.0100608,10,-0.00182335,-1.56683,-0.682355,-0.0864653,91.3752,0.0672512,
2,0,0,1,0,52419.2,0.0651069,0.0647942,-27.3175,27,0.00989749,10,-0.00177002,-1.56356,-0.798268,-0.07391,78.6953,0.0647942,
2,0,0,1,0,52419.3,0.0627098,0.0624041,-27.4752,27,0.00973308,10,-0.00171456,-1.56106,-0.953306,-0.0618899,66.347,0.0624041,
2,0,0,1,0,52419.3,0.0603016,0.059963,-27.635,27,0.00956772,10,-0.00165708,-1.55854,-1.1007,-0.053602,57.7671,0.059963,
2,0,0,1,0,52419.3,0.0579045,0.0575782,-27.7575,27,0.00940151,10,-0.00159823,-1.55662,-1.35352,-0.0435901,47.1729,0.0575782,
2,0,0,1,0,52419.3,0.0555074,0.0551594,-27.8502,27,0.00923464,10,-0.0015362,-1.55517,-1.59228,-0.0370538,40.2742,0.0551594,
2,0,0,1,0,52419.3,0.0530992,0.0527385,-27.951,27,0.00906724,10,-0.00147409,-1.5536,-1.97113,-0.0299321,32.6274,0.0527385,
2,0,0,1,0,52419.3,0.0507021,0.0503462,-28.0262,27,0.0088993,10,-0.00141101,-1.55244,-2.45097,-0.0240721,26.3036,0.0503462,
2,0,0,1,0,52419.3,0.048305,0.0479836,-28.0674,27,0.00873103,10,-0.00134678,-1.5518,-3.28249,-0.0179742,19.6859,0.0479836,
2,0,0,1,0,52419.3,0.0459051,0.0455521,-28.1062,27,0.00856251,10,-0.0012803,-1.5512,-4.46833,-0.013204,14.4806,0.0455521,
2,0,0,1,0,52419.3,0.0435024,0.0431991,-28.1327,27,0.00839375,10,-0.00121531,-1.55079,-6.23364,-0.00946477,10.3893,0.0431991,
2,0,0,1,0,52419.3,0.0411053,0.040793,-28.1583,27,0.00822485,10,-0.00114866,-1.55039,-16.1222,-0.00365955,4.01937,0.040793,
2,0,0,1,0,52419.3,0.0387082,0.0383689,-28.1552,27,0.0080559,10,-0.00108028,-1.55044,-49.8737,-0.00118299,1.29989,0.0383689,
2,0,0,1,0,52419.3,0.0363,0.0359491,-28.1689,27,0.00788696,10,-0.00101265,-1.55023,366.973,0.000160775,-0.17666,0.0359491,
2,0,0,1,0,52419.3,0.0339029,0.0336225,-28.1491,27,0.00771801,10,-0.000946443,-1.55054,9.30816,0.00633852,-6.95914,0.0336225,
2,0,0,1,0,52419.3,0.0315058,0.0311571,-28.1289,27,0.00754914,10,-0.000876415,-1.55085,6.64258,0.00888209,-9.7511,0.0311571,
2,0,0,1,0,52419.3,0.0291087,0.0288327,-28.0962,27,0.00738049,10,-0.000810089,-1.55135,5.0575,0.0116658,-12.7961,0.0288327,
2,0,0,1,0,52419.3,0.0267033,0.0263757,-28.0805,27,0.00721193,10,-0.000740643,-1.5516,4.68407,0.0125959,-13.7935,0.0263757,
2,0,0,1,0,52419.4,0.0243062,0.0239707,-28.0298,27,0.00704358,10,-0.000671894,-1.55238,3.23656,0.0182292,-19.939,0.02397071,
2,0,0,1,0,52419.4,0.0219091,0.0215922,-27.9778,27,0.00687556,10,-0.000604104,-1.55319,3.06215,0.0192675,-21.0457,0.0215922,
2,0,0,1,0,52419.4,0.0195009,0.0191649,-27.9436,27,0.0067078,10,-0.000535537,-1.55372,2.8678,0.0205733,-22.4191,0.0191649,
2,0,0,1,0,52419.4,0.0171038,0.0167812,-27.8755,27,0.00654034,10,-0.000467783,-1.55478,2.26961,0.0259957,-28.2738,0.0167812,
2,0,0,1,0,52419.4,0.0147067,0.0143465,-27.8135,27,0.00637331,10,-0.000399025,-1.55574,2.12398,0.0277781,-30.1406,0.0143465,
2,0,0,1,0,52419.4,0.012304,0.0119955,-27.7379,27,0.00620671,10,-0.000332732,-1.55693,1.94972,0.0302607,-32.7393,0.0119955,
2,0,0,1,0,52419.4,0.00990136,0.00959266,-27.6474,27,0.00604056,10,-0.000265212,-1.55835,1.71732,0.0343558,-37.0508,0.00959266,
2,0,0,1,0,52419.4,0.00750426,0.00718341,-27.5529,27,0.00587497,10,-0.000197924,-1.55983,1.44324,0.0408802,-43.942,0.00718341,
2,0,0,1,0,52419.4,0.00510715,0.00474236,-27.4345,27,0.00571002,10,-0.000130104,-1.5617,1.6808,0.0351023,-37.6246,0.00474236,
2,0,0,1,0,52419.4,0.00270173,0.00238508,-27.3347,27,0.0055457,10,-6.51954e-05,-1.56329,1.43932,0.0409915,-43.7314,0.00238508,
2,0,0,1,0,52419.4,0.000304623,-0.000104759,-27.2428,27,0.00538187,10,2.85393e-06,-1.56475,1.22044,0.0483431,-51.3309,-0.000104759,
2,0,0,1,0,52419.4,-0.00209248,-0.00250234,-27.0902,27,0.00521889,10,6.77889e-05,-1.56719,1.05502,0.055923,-59.1447,-0.002502339,
2,0,0,1,0,52419.4,-0.00450068,-0.00483629,-26.9627,27,0.00505677,10,0.000130399,-1.56924,1.03313,0.0571081,-60.0488,-0.00483629,
2,0,0,1,0,52419.4,-0.00689779,-0.00731659,-26.8098,27,0.00489547,10,0.000196156,-1.57171,0.947368,0.0622778,-65.1121,-0.00731659,
2,0,0,1,0,52419.4,-0.00929489,-0.00964206,-26.6382,27,0.00473516,10,0.000256848,-1.57449,0.918202,0.064256,-66.8164,-0.00964206,
2,0,0,1,0,52419.4,-0.011692,-0.0120874,-26.4808,27,0.00457584,10,0.000320083,-1.57707,0.926739,0.0636641,-65.79,-0.0120874,
2,0,0,1,0,52419.4,-0.0140974,-0.0144818,-26.3137,27,0.00441743,10,0.000381068,-1.57982,0.872752,0.0676023,-69.4043,-0.0144818,
2,0,0,1,0,52419.5,-0.0164945,-0.0168868,-26.1423,27,0.00426005,10,0.000441458,-1.58266,0.826848,0.0713553,-72.8249,-0.01688676,
2,0,0,1,0,52419.5,-0.0188916,-0.0192377,-25.9684,27,0.00410372,10,0.000499571,-1.58556,0.860904,0.0685326,-69.4878,-0.0192377,
2,0,0,1,0,52419.5,-0.0212998,-0.0217254,-25.8135,27,0.00394839,10,0.000560808,-1.58815,0.847517,0.0696152,-70.1153,-0.0217254,
2,0,0,1,0,52419.5,-0.0236969,-0.0240859,-25.6449,27,0.00379403,10,0.000617679,-1.591,0.834202,0.0707263,-70.7583,-0.0240859,
2,0,0,1,0,52419.5,-0.026094,-0.0265025,-25.4824,27,0.00364069,10,0.000675347,-1.59376,0.880861,0.0669799,-66.6388,-0.0265025,
2,0,0,1,0,52419.5,-0.0284912,-0.0288312,-25.3196,27,0.00348836,10,0.000729993,-1.59654,0.928835,0.0635204,-62.7845,-0.0288312,
2,0,0,1,0,52419.5,-0.0308994,-0.031286,-25.1807,27,0.00333686,10,0.000787803,-1.59893,0.934311,0.0631481,-62.027,-0.031286,
2,0,0,1,0,52419.5,-0.0332965,-0.0336783,-25.0185,27,0.00318628,10,0.000842579,-1.60174,0.967211,0.0610001,-59.6116,-0.0336783,
2,0,0,1,0,52419.5,-0.0356936,-0.0360738,-24.8806,27,0.00303661,10,0.000897536,-1.60414,1.05862,0.0557329,-54.1611,-0.0360738,
2,0,0,1,0,52419.5,-0.038099,-0.0384512,-24.7714,27,0.00288765,10,0.000952488,-1.60605,1.1123,0.0530431,-51.2546,-0.0384512,
2,0,0,1,0,52419.5,-0.0404961,-0.0408848,-24.6348,27,0.00273943,10,0.00100719,-1.60845,1.13163,0.0521371,-50.1623,-0.0408848,
2,0,0,1,0,52419.5,-0.0428932,-0.0432707,-24.5222,27,0.00259197,10,0.00106109,-1.61044,1.27008,0.0464536,-44.4902,-0.0432707,
2,0,0,1,0,52419.5,-0.0452903,-0.045663,-24.4275,27,0.00244512,10,0.00111543,-1.61212,1.44841,0.0407344,-38.8417,-0.045663,
2,0,0,1,0,52419.5,-0.0476985,-0.0480511,-24.3386,27,0.00229881,10,0.00116949,-1.6137,1.51743,0.0388815,-36.941,-0.0480511,
2,0,0,1,0,52419.5,-0.0500956,-0.0504889,-24.2588,27,0.00215304,10,0.0012248,-1.61513,1.66485,0.0354387,-33.5641,-0.0504889,
2,0,0,1,0,52419.5,-0.0524927,-0.0528399,-24.1796,27,0.00200775,10,0.00127765,-1.61655,2.06278,0.0286022,-27.0123,-0.05283986,
2,0,0,1,0,52419.5,-0.0548981,-0.0552396,-24.1324,27,0.00186282,10,0.00133306,-1.6174,2.35439,0.0250596,-23.597,-0.0552396,
2,0,0,1,0,52419.6,-0.0572953,-0.0576488,-24.0618,27,0.00171824,10,0.00138714,-1.61867,2.5945,0.0227404,-21.3701,-0.0576488,
2,0,0,1,0,52419.6,-0.0596924,-0.0600506,-24.0196,27,0.00157401,10,0.00144239,-1.61943,3.88077,0.0152032,-14.2643,-0.0600506,
2,0,0,1,0,52419.6,-0.062095,-0.0624927,-23.9973,27,0.00142996,10,0.00149966,-1.61984,4.64201,0.01271,-11.8978,-0.0624927,
2,0,0,1,0,52419.6,-0.0644977,-0.0648765,-23.9677,27,0.00128604,10,0.00155494,-1.62037,5.33879,0.0110512,-10.3378,-0.0648765,
2,0,0,1,0,52419.6,-0.0668948,-0.0672465,-23.9419,27,0.00114234,10,0.00161001,-1.62084,8.25322,0.00714873,-6.6846,-0.0672465,
2,0,0,1,0,52419.6,-0.0692919,-0.069642,-23.9354,27,0.000998711,10,0.00166691,-1.62096,47.2869,0.0012477,-1.16594,-0.069642,
2,0,0,1,0,52419.6,-0.0717001,-0.0720831,-23.9371,27,0.000855069,10,0.00172546,-1.62093,-155.93,-0.000378374,0.353529,-0.0720831,
2,0,0,1,0,52419.6,-0.0740972,-0.0744499,-23.9406,27,0.000711438,10,0.00178237,-1.62087,-18.8296,-0.00313337,2.92986,-0.0744499,
2,0,0,1,0,52419.6,-0.0764943,-0.0768793,-23.9605,27,0.000567753,10,0.00184207,-1.6205,-6.8473,-0.00861654,8.0586,-0.0768793,
2,0,0,1,0,52419.6,-0.0788997,-0.0792641,-23.9894,27,0.000423946,10,0.0019015,-1.61998,-5.23191,-0.011277,10.5564,-0.0792641,
2,0,0,1,0,52419.6,-0.0812968,-0.0816882,-24.0043,27,0.000279965,10,0.00196087,-1.61971,-3.90519,-0.0151081,14.1564,-0.0816882,
2,0,0,1,0,52419.6,-0.0836939,-0.0840604,-24.0425,27,0.000135817,10,0.00202102,-1.61902,-3.05223,-0.0193301,18.1491,-0.0840604,
2,0,0,1,0,52419.6,-0.086091,-0.0864664,-24.0868,27,-8.56855e-06,10,0.0020827,-1.61822,-2.64152,-0.0223357,21.002,-0.0864664,
2,0,0,1,0,52419.6,-0.0884992,-0.088881,-24.1472,27,-0.000153304,10,0.00214623,-1.61713,-2.44768,-0.0241045,22.7115,-0.088881,
2,0,0,1,0,52419.6,-0.0908963,-0.0912436,-24.1913,27,-0.000298332,10,0.0022073,-1.61634,-2.18279,-0.0270297,25.5437,-0.09124355,
2,0,0,1,0,52419.6,-0.0932935,-0.0936804,-24.2743,27,-0.000443735,10,0.00227403,-1.61485,-1.91625,-0.0307893,29.1707,-0.0936804,
2,0,0,1,0,52419.7,-0.0956989,-0.0960525,-24.3538,27,-0.000589606,10,0.00233924,-1.61343,-1.89641,-0.0311114,29.5583,-0.0960525,
2,0,0,1,0,52419.7,-0.098096,-0.0984999,-24.4184,27,-0.000735909,10,0.00240521,-1.61228,-2.14613,-0.0274913,26.1662,-0.0984999,
2,0,0,0,0,52419.7,-0.0999548,-0.100286,-24.4804,27,-0.000850825,10,0.00245503,-1.61118,0.0292643,2.01611,-1817.45,-0.100286,
2,0,0,1,1,52419.7,-0.0994554,-0.0999198,-23.2448,27,-0.000891112,10,0.00232262,-1.63367,-0.0283607,-2.08034,1741.24,-0.0999198,
2,0,0,1,1,52419.7,-0.0970583,-0.0974787,-19.637,27,-0.00101867,10,0.00191419,-1.70692,-0.0332713,-1.7733,1381.73,-0.0974787,
2,0,0,1,1,52419.7,-0.0946501,-0.0950939,-16.9219,27,-0.00112785,10,0.00160917,-1.77155,-0.0377693,-1.56211,1042.2,-0.0950939,
2,0,0,1,1,52419.7,-0.092253,-0.0926581,-14.6481,27,-0.0012222,10,0.00135727,-1.83422,-0.0378857,-1.55732,894.122,-0.09265814,
2,0,0,1,1,52419.7,-0.0898559,-0.0902701,-12.64,27,-0.00130375,10,0.00114102,-1.89825,-0.0363074,-1.62502,800.885,-0.0902701,
2,0,0,1,1,52419.7,-0.0874588,-0.0879012,-10.8148,27,-0.00137389,10,0.00095063,-1.96598,-0.0341529,-1.72753,727.233,-0.08790116,
2,0,0,1,1,52419.7,-0.0850534,-0.0854569,-9.14645,27,-0.00143351,10,0.000781628,-2.03875,-0.0314886,-1.8737,665.978,-0.0854569,
2,0,0,1,1,52419.7,-0.0826563,-0.0830572,-7.62517,27,-0.00148362,10,0.000633325,-2.11775,-0.0282437,-2.08896,614.718,-0.08305721,
2,0,0,1,1,52419.7,-0.0802592,-0.0806755,-6.19915,27,-0.00152489,10,0.00050012,-2.20767,-0.0244727,-2.41085,573.326,-0.08067555,
2,0,0,1,1,52419.7,-0.077851,-0.0782896,-4.85476,27,-0.00155787,10,0.000380077,-2.31383,-0.020239,-2.91516,538.981,-0.0782896,
2,0,0,1,1,52419.7,-0.0754539,-0.0758539,-3.62192,27,-0.00158315,10,0.000274736,-2.44106,-0.0158835,-3.71454,498.331,-0.0758539,
2,0,0,1,1,52419.7,-0.0730568,-0.0734489,-2.45667,27,-0.00160122,10,0.00018044,-2.60965,-0.0104271,-5.65833,477.691,-0.0734489,
2,0,0,1,1,52419.7,-0.0706597,-0.0710364,-1.35301,27,-0.00161248,10,9.61132e-05,-2.8687,-0.00307154,-19.2086,446.695,-0.0710364,
2,0,0,1,1,52419.7,-0.0682542,-0.0686548,-0.304267,27,-0.00161729,10,2.08894e-05,-3.51675,-0.0272072,-2.16854,416.774,-0.0686548,
2,1,0,1,1,52419.7,-0.0658571,-0.0662561,0.672925,27,-0.00161606,10,-4.45854e-05,-3.17203,0.0135127,4.36627,399.235,-0.0662561,
2,1,0,1,1,52419.8,-0.06346,-0.0638798,1.60496,27,-0.00160914,10,-0.000102524,-2.79454,0.00715413,8.24698,379.422,-0.0638798,
2,1,0,1,1,52419.8,-0.0610518,-0.0614249,2.49798,27,-0.00159672,10,-0.000153438,-2.60241,0.0144146,4.09307,358.807,-0.0614249,
2,1,0,1,1,52419.8,-0.0586547,-0.059057,3.32338,27,-0.00157916,10,-0.000196269,-2.47842,0.021638,2.72668,337.088,-0.05905702,
2,1,0,1,1,52419.8,-0.0562576,-0.0566796,4.11827,27,-0.00155675,10,-0.000233422,-2.38528,0.0283865,2.07845,324.8,-0.0566796,
2,1,0,1,1,52419.8,-0.053855,-0.0542682,4.88692,27,-0.00152967,10,-0.000265204,-2.31096,0.0353452,1.66925,311.04,-0.0542682,
2,1,0,1,1,52419.8,-0.0514523,-0.0519078,5.6021,27,-0.0014981,10,-0.000290793,-2.25165,0.0434274,1.35859,292.519,-0.0519078,
2,1,0,1,1,52419.8,-0.0490552,-0.0495155,6.28898,27,-0.00146235,10,-0.000311402,-2.20142,0.0515006,1.14562,278.309,-0.0495155,
2,1,0,1,1,52419.8,-0.0466581,-0.0471009,6.95547,27,-0.00142253,10,-0.000327609,-2.15767,0.0593561,0.994,266.958,-0.0471009,
2,1,0,1,1,52419.8,-0.0442527,-0.0446737,7.57712,27,-0.00137885,10,-0.000338498,-2.1205,0.0684777,0.861594,252.797,-0.0446737,
2,1,0,1,1,52419.8,-0.0418556,-0.0422581,8.16718,27,-0.00133154,10,-0.000345129,-2.08793,0.0776053,0.760258,240.864,-0.0422581,
2,1,0,1,1,52419.8,-0.0394585,-0.0398933,8.73364,27,-0.00128078,10,-0.000348414,-2.0588,0.0875832,0.673645,228.512,-0.0398933,
2,1,0,1,1,52419.8,-0.0370558,-0.0374491,9.27953,27,-0.00122669,10,-0.00034751,-2.03247,0.0958752,0.615383,221.744,-0.0374491,
2,1,0,1,1,52419.8,-0.0346532,-0.0350505,9.79511,27,-0.00116941,10,-0.000343323,-2.00899,0.107518,0.548744,208.787,-0.03505047,
2,1,0,1,1,52419.8,-0.0322561,-0.0326487,10.2703,27,-0.00110916,10,-0.00033531,-1.98842,0.119062,0.495541,198.137,-0.0326487,
2,1,0,1,1,52419.8,-0.029859,-0.0302765,10.7398,27,-0.00104604,10,-0.000325162,-1.96901,0.130982,0.450443,188.187,-0.0302765,
2,1,0,1,1,52419.8,-0.0274535,-0.0278736,11.1855,27,-0.000980204,10,-0.000311782,-1.95134,0.146469,0.402816,175.291,-0.0278736,
2,1,0,1,1,52419.8,-0.0250564,-0.0254623,11.5868,27,-0.000911854,10,-0.000295027,-1.93603,0.156096,0.377974,170.738,-0.0254623,
2,1,0,1,1,52419.9,-0.0226593,-0.023035,11.9961,27,-0.000841054,10,-0.000276329,-1.92096,0.170522,0.345996,161.483,-0.023035,
2,1,0,1,1,52419.9,-0.0202511,-0.0206873,12.3749,27,-0.000767898,10,-0.000256003,-1.90746,0.187972,0.313876,151.138,-0.0206873,
2,1,0,1,1,52419.9,-0.017854,-0.0182473,12.7203,27,-0.000692592,10,-0.00023211,-1.8955,0.200983,0.293557,145.556,-0.0182473,
2,1,0,1,1,52419.9,-0.0154569,-0.0158889,13.0604,27,-0.000615209,10,-0.000207516,-1.88404,0.220294,0.267824,136.275,-0.0158889,
2,1,0,1,1,52419.9,-0.0130598,-0.01345,13.3805,27,-0.000535825,10,-0.000179967,-1.87353,0.236902,0.249048,129.912,-0.01345,
2,1,0,1,1,52419.9,-0.0106516,-0.0110566,13.6859,27,-0.000454597,10,-0.00015132,-1.86373,0.253732,0.232529,124.066,-0.0110566,
2,1,0,1,1,52419.9,-0.00825448,-0.00863361,13.9768,27,-0.000371567,10,-0.00012067,-1.85459,0.272231,0.216727,118.045,-0.00863361,
2,1,0,1,1,52419.9,-0.00585738,-0.00622225,14.25,27,-0.000286857,10,-8.86669e-05,-1.84619,0.29681,0.19878,110.402,-0.00622225,
2,1,0,1,1,52419.9,-0.00345195,-0.00385542,14.5047,27,-0.000200566,10,-5.59216e-05,-1.83849,0.323428,0.182421,103.102,-0.00385542,
2,1,0,1,1,52419.9,-0.00105485,-0.00141012,14.7409,27,-0.000112776,10,-2.07864e-05,-1.83148, , , ,-0.00141012,
2,1,0,0,1,52419.9,-7.54729e-05,-0.000554371,14.8346,27,-7.58061e-05,10,-8.2239e-06,-1.82872, , , ,-0.000554371,