File: Figure_codes/Fig_3-5/rawdata_trumpetplot_data/after 10th/20221101_1-115_003_TrumpetPlot_ParaChange_from10_every3_06_CV_C01_24.csv
mode,ox/red,error,control changes,counter inc.,time/s,control/V,Ewe/V,<I>/mA,cycle number,(Q-Qo)/C,I Range,P/W,log(|I|),Tafel slope mV/dec,alpha_eff,dI/d(E-IR),E-IR/V,
2,0,0,0,0,48433.1,2.44065e-05,-0.000382585,-1.41344,25,0.0000000E+000,10,5.4076e-07,-2.84972, , , ,-0.000382585,
2,0,0,1,0,48433.2,0.00129787,0.000913818,-0.401057,25,-2.54161e-05,10,-3.66493e-07,-3.39679, , , ,0.000913818,
2,1,0,1,0,48433.2,0.00279427,0.00248341,0.240067,25,-2.68333e-05,10,5.96185e-07,-3.61967,-5.10494,-0.0115574,344.112,0.00248341,
2,1,0,1,0,48433.3,0.00429425,0.00398406,0.608731,25,-9.72495e-06,10,2.42522e-06,-3.21557,0.00348993,16.9058,215.416,0.00398406,
2,1,0,1,0,48433.3,0.00579422,0.00547313,0.857836,25,1.875e-05,10,4.69505e-06,-3.0666,0.0119248,4.94769,146.851,0.00547313,
2,1,0,1,0,48433.3,0.00729063,0.0069829,1.03927,25,5.50314e-05,10,7.25712e-06,-2.98327,0.0217403,2.71385,103.996,0.0069829,
2,1,0,1,0,48433.4,0.00878703,0.0084349,1.1682,25,9.70278e-05,10,9.85362e-06,-2.93248,0.0334613,1.76323,78.0414,0.0084349,
2,1,0,1,0,48433.4,0.010287,0.00996894,1.27247,25,0.000143447,10,1.26852e-05,-2.89535,0.0467985,1.26072,61.1125,0.00996894,
2,1,0,1,0,48433.4,0.011787,0.0114306,1.35248,25,0.000193226,10,1.54597e-05,-2.86887,0.0609097,0.968646,50.4778,0.0114306,
2,1,0,1,0,48433.5,0.0132825,0.012918,1.41819,25,0.000245552,10,1.83202e-05,-2.84827,0.0777048,0.759284,41.7215,0.012918,
2,1,0,1,0,48433.5,0.014778,0.0144677,1.47316,25,0.000300286,10,2.13133e-05,-2.83175,0.0923226,0.639063,36.6031,0.0144677,
2,1,0,1,0,48433.6,0.0162816,0.0159529,1.5262,25,0.000357357,10,2.43473e-05,-2.81639,0.116478,0.506533,30.0745,0.0159529,
2,1,0,1,0,48433.6,0.017778,0.0174709,1.57061,25,0.000415883,10,2.744e-05,-2.80393,0.124127,0.47532,29.1127,0.0174709,
2,1,0,1,0,48433.6,0.0192744,0.0189321,1.60975,25,0.000475915,10,3.0476e-05,-2.79324,0.133955,0.440447,27.667,0.0189321,
2,1,0,1,0,48433.7,0.0207743,0.0204666,1.65241,25,0.000537699,10,3.38192e-05,-2.78188,0.147038,0.401258,25.7678,0.0204666,
2,1,0,1,0,48433.7,0.0222743,0.0219782,1.6944,25,0.000600917,10,3.72399e-05,-2.77098,0.160043,0.368651,24.2556,0.0219782,
2,1,0,1,0,48433.7,0.0237707,0.0234276,1.7249,25,0.000665304,10,4.04104e-05,-2.76323,0.162769,0.362476,24.3546,0.0234276,
2,1,0,1,0,48433.8,0.0252671,0.0249487,1.75843,25,0.000730995,10,4.38705e-05,-2.75487,0.182227,0.323773,22.2151,0.0249487,
2,1,0,1,0,48433.8,0.0267671,0.0264743,1.79243,25,0.000798146,10,4.74534e-05,-2.74656,0.17548,0.33622,23.5353,0.0264743,
2,1,0,1,0,48433.9,0.0282671,0.0279338,1.82713,25,0.000866616,10,5.10386e-05,-2.73823,0.17927,0.329112,23.5011,0.0279338,
2,1,0,1,0,48433.9,0.0297626,0.0294303,1.86129,25,0.00093623,10,5.47783e-05,-2.73019,0.197546,0.298665,21.6972,0.0294303,
2,1,0,1,0,48433.9,0.0312581,0.0309613,1.89027,25,0.00100708,10,5.85253e-05,-2.72348,0.195653,0.301554,22.2879,0.0309613,
2,1,0,1,0,48434,0.0327616,0.0324302,1.92802,25,0.00107944,10,6.25261e-05,-2.71489,0.202897,0.290788,21.8891,0.0324302,
2,1,0,1,0,48434,0.034258,0.0339284,1.96499,25,0.0011527,10,6.66689e-05,-2.70664,0.189939,0.310626,23.7314,0.0339284,
2,1,0,1,0,48434,0.0357545,0.0354191,1.99783,25,0.00122727,10,7.07612e-05,-2.69944,0.229226,0.257387,19.9969,0.0354191,
2,1,0,1,0,48434.1,0.0372544,0.0369522,2.02872,25,0.00130329,10,7.49657e-05,-2.69278,0.215472,0.273818,21.6596,0.0369522,
2,1,0,1,0,48434.1,0.0387544,0.0384287,2.05929,25,0.00138043,10,7.91361e-05,-2.68628,0.209116,0.282141,22.7322,0.0384287,
2,1,0,1,0,48434.2,0.0402508,0.0399188,2.09107,25,0.00145866,10,8.3473e-05,-2.67963,0.208124,0.283485,23.1818,0.0399188,
2,1,0,1,0,48434.2,0.0417472,0.0414422,2.13129,25,0.00153828,10,8.83252e-05,-2.67136,0.224544,0.262754,21.8139,0.0414422,
2,1,0,1,0,48434.2,0.0432472,0.0429655,2.16716,25,0.00161933,10,9.31131e-05,-2.66411,0.237649,0.248266,20.9358,0.0429655,
2,1,0,1,0,48434.3,0.0447472,0.0444273,2.19518,25,0.00170154,10,9.75259e-05,-2.65853,0.224179,0.263183,22.5267,0.0444273,
2,1,0,1,0,48434.3,0.0462427,0.0459313,2.23099,25,0.00178479,10,0.000102472,-2.6515,0.220165,0.26798,23.263,0.0459313,
2,1,0,1,0,48434.3,0.0477382,0.0474618,2.26282,25,0.00186932,10,0.000107397,-2.64535,0.235253,0.250794,22.1173,0.0474618,
2,1,0,1,0,48434.4,0.0492417,0.0489167,2.29143,25,0.00195553,10,0.000112089,-2.63989,0.258645,0.228112,20.396,0.0489167,
2,1,0,1,0,48434.4,0.0507381,0.0504115,2.31763,25,0.00204244,10,0.000116835,-2.63496,0.257734,0.228918,20.7895,0.0504115,
2,1,0,1,0,48434.5,0.0522345,0.0518666,2.35266,25,0.00213051,10,0.000122025,-2.62844,0.235441,0.250593,23.0789,0.0518666,
2,1,0,1,0,48434.5,0.0537345,0.0534349,2.39055,25,0.00222008,10,0.000127739,-2.6215,0.25713,0.229456,21.4021,0.0534349,
2,1,0,1,0,48434.5,0.0552345,0.054895,2.42486,25,0.00231094,10,0.000133113,-2.61531,0.265264,0.22242,20.9792,0.054895,
2,1,0,1,0,48434.6,0.0567309,0.0564098,2.44806,25,0.00240264,10,0.000138095,-2.61118,0.28358,0.208054,19.8784,0.0564098,
2,1,0,1,0,48434.6,0.0582273,0.0579058,2.48152,25,0.00249538,10,0.000143695,-2.60528,0.283884,0.207832,20.093,0.0579058,
2,1,0,1,0,48434.6,0.0597308,0.059426,2.51362,25,0.0025898,10,0.000149374,-2.5997,0.282186,0.209082,20.4783,0.059426,
2,1,0,1,0,48434.7,0.0612264,0.0608967,2.53978,25,0.00268482,10,0.000154664,-2.5952,0.32798,0.179889,17.8075,0.0608967,
2,1,0,1,0,48434.7,0.0627219,0.0624256,2.56466,25,0.00278093,10,0.000160101,-2.59097,0.321022,0.183788,18.4298,0.0624256,
2,1,0,1,0,48434.8,0.0642218,0.0638943,2.5894,25,0.00287824,10,0.000165448,-2.5868,0.310605,0.189952,19.2661,0.0638943,
2,1,0,1,0,48434.8,0.0657218,0.0653978,2.62247,25,0.00297663,10,0.000171503,-2.58129,0.312551,0.188769,19.3171,0.0653978,
2,1,0,1,0,48434.8,0.0672182,0.0668743,2.6555,25,0.0030759,10,0.000177585,-2.57585,0.332098,0.177659,18.3591,0.06687431,
2,1,0,1,0,48434.9,0.0687146,0.0683713,2.6817,25,0.00317617,10,0.000183351,-2.57159,0.383466,0.15386,16.0492,0.0683713,
2,1,0,1,0,48434.9,0.0702146,0.0698986,2.70512,25,0.00327758,10,0.000189084,-2.56781,0.372043,0.158584,16.701,0.06989859,
2,1,0,1,0,48434.9,0.0717146,0.0713821,2.72652,25,0.00337992,10,0.000194625,-2.56439,0.350565,0.1683,17.901,0.0713821,
2,1,0,1,0,48435,0.073211,0.0729093,2.74744,25,0.00348292,10,0.000200314,-2.56107,0.386372,0.152703,16.3955,0.0729093,
2,1,0,1,0,48435,0.0747074,0.0743988,2.77196,25,0.00358682,10,0.00020623,-2.55721,0.494613,0.119285,12.9176,0.0743988,
2,1,0,1,0,48435.1,0.0762109,0.07586,2.78908,25,0.00369207,10,0.00021158,-2.55454,0.448428,0.131571,14.3619,0.07586,
2,1,0,1,0,48435.1,0.0777064,0.0773492,2.81565,25,0.0037975,10,0.000217789,-2.55042,0.476421,0.12384,13.6078,0.0773492,
2,1,0,1,0,48435.1,0.079202,0.0788956,2.84052,25,0.00390377,10,0.000224104,-2.5466,0.467929,0.126087,13.9493,0.0788956,
2,1,0,1,0,48435.2,0.0807019,0.0804159,2.85966,25,0.00401115,10,0.000229962,-2.54369,0.56418,0.104577,11.6359,0.0804159,
2,1,0,1,0,48435.2,0.0822019,0.081904,2.87541,25,0.00411918,10,0.000235508,-2.5413,0.531726,0.110959,12.4342,0.081904,
2,1,0,1,0,48435.2,0.0836983,0.0833698,2.89368,25,0.00422753,10,0.000241246,-2.53855,0.530877,0.111137,12.5572,0.0833698,
2,1,0,1,0,48435.3,0.0851947,0.0848765,2.91207,25,0.00433664,10,0.000247166,-2.5358,0.558911,0.105562,12.0093,0.0848765,
2,1,0,1,0,48435.3,0.0866947,0.0863696,2.93079,25,0.00444682,10,0.000253132,-2.53301,0.553802,0.106536,12.1951,0.0863696,
2,1,0,1,0,48435.4,0.0881947,0.087848,2.94924,25,0.00455772,10,0.000259085,-2.53029,0.553547,0.106585,12.2893,0.087848,
2,1,0,1,0,48435.4,0.0896911,0.0894099,2.96805,25,0.00466896,10,0.000265373,-2.52753,0.486483,0.121279,14.0632,0.0894099,
2,1,0,1,0,48435.4,0.0911875,0.0909139,2.99453,25,0.00478097,10,0.000272244,-2.52367,0.423379,0.139355,16.2701,0.0909139,
2,1,0,1,0,48435.5,0.0926901,0.0923686,3.02015,25,0.00489452,10,0.000278968,-2.51997,0.414261,0.142422,16.7551,0.0923686,
2,1,0,1,0,48435.5,0.0941856,0.0938764,3.0401,25,0.00500833,10,0.000285393,-2.51711,0.403109,0.146362,17.3749,0.0938764,
2,1,0,1,0,48435.5,0.095682,0.0953434,3.06755,25,0.00512308,10,0.00029247,-2.51321,0.349077,0.169017,20.2627,0.0953434,
2,1,0,1,0,48435.6,0.097182,0.0968591,3.09741,25,0.00523929,10,0.000300012,-2.509,0.316825,0.186223,22.5531,0.0968591,
2,1,0,1,0,48435.6,0.098682,0.0983462,3.13223,25,0.0053568,10,0.000308043,-2.50415,0.289975,0.203466,24.9332,0.0983462,
2,1,0,1,0,48435.7,0.100178,0.0998439,3.16762,25,0.00547532,10,0.000316267,-2.49927,0.283152,0.208369,25.8475,0.0998439,
2,1,0,1,0,48435.7,0.101675,0.10135,3.20906,25,0.00559531,10,0.000325238,-2.49362,0.269091,0.219257,27.5089,0.10135,
2,1,0,1,0,48435.7,0.103175,0.102837,3.26218,25,0.00571716,10,0.000335473,-2.48649,0.240125,0.245705,31.2599,0.102837,
2,1,0,1,0,48435.8,0.104675,0.104332,3.31069,25,0.0058408,10,0.00034541,-2.48008,0.223735,0.263705,34.0288,0.104332,
2,1,0,1,0,48435.8,0.106171,0.105818,3.36275,25,0.00596609,10,0.000355839,-2.47331,0.231641,0.254704,33.3406,0.105818,
2,1,0,1,0,48435.8,0.107667,0.107341,3.40961,25,0.00609329,10,0.000365993,-2.4673,0.225813,0.261279,34.7901,0.107341,
2,1,0,1,0,48435.9,0.10917,0.108831,3.46013,25,0.00622302,10,0.000376569,-2.46091,0.219984,0.268201,36.2998,0.108831,
2,1,0,1,0,48435.9,0.110666,0.110353,3.51413,25,0.00635413,10,0.000387793,-2.45418,0.217205,0.271633,37.3461,0.110353,
2,1,0,1,0,48436,0.112162,0.111779,3.57416,25,0.00648737,10,0.000399515,-2.44683,0.229195,0.257423,35.9107,0.111779,
2,1,0,1,0,48436,0.113662,0.113342,3.63241,25,0.00662307,10,0.000411704,-2.43981,0.233503,0.252674,35.7581,0.113342,
2,1,0,1,0,48436,0.115162,0.1148,3.68122,25,0.00676065,10,0.000422602,-2.43401,0.24038,0.245445,35.2271,0.1148,
2,1,0,1,0,48436.1,0.116658,0.116316,3.73481,25,0.00689985,10,0.000434419,-2.42773,0.242623,0.243175,35.3497,0.116316,
2,1,0,1,0,48436.1,0.118155,0.117843,3.78631,25,0.00704101,10,0.00044619,-2.42178,0.265845,0.221934,32.7121,0.117843,
2,1,0,1,0,48436.1,0.119655,0.119338,3.82446,25,0.0071843,10,0.000456404,-2.41743,0.321512,0.183508,27.3936,0.119338,
2,1,0,1,0,48436.2,0.121155,0.120859,3.86226,25,0.00732909,10,0.00046679,-2.41316,0.351896,0.167663,25.2748,0.1208592,
2,1,0,1,0,48436.2,0.122651,0.122298,3.90179,25,0.00747489,10,0.000477182,-2.40874,0.378936,0.155699,23.7147,0.122298,
2,1,0,1,0,48436.3,0.124147,0.123799,3.93659,25,0.00762204,10,0.000487348,-2.40488,0.415592,0.141966,21.8013,0.123799,
2,1,0,1,0,48436.3,0.12565,0.125317,3.96736,25,0.0077712,10,0.000497177,-2.4015,0.504282,0.116998,18.0797,0.125317,
2,1,0,1,0,48436.3,0.127146,0.12682,3.98696,25,0.00792058,10,0.000505627,-2.39936,0.525938,0.11218,17.4522,0.12682,
2,1,0,1,0,48436.4,0.128642,0.128311,4.0155,25,0.00807076,10,0.000515232,-2.39626,0.630725,0.0935431,14.6404,0.128311,
2,1,0,1,0,48436.4,0.130142,0.129833,4.03588,25,0.00822227,10,0.000523991,-2.39406,0.648614,0.0909631,14.315,0.129833,
2,1,0,1,0,48436.4,0.131642,0.131326,4.05326,25,0.00837455,10,0.000532298,-2.3922,0.873709,0.0675282,10.6803,0.131326,
2,1,0,1,0,48436.5,0.133139,0.13281,4.06934,25,0.00852713,10,0.000540447,-2.39048,0.992086,0.0594707,9.45041,0.13281,
2,1,0,1,0,48436.5,0.134635,0.134272,4.08196,25,0.00868014,10,0.000548093,-2.38913,1.28542,0.0458993,7.31616,0.134272,
2,1,0,1,0,48436.6,0.136135,0.135816,4.09562,25,0.00883407,10,0.000556252,-2.38768,1.74511,0.0338088,5.39704,0.135816,
2,1,0,1,0,48436.6,0.137635,0.137331,4.10343,25,0.0089883,10,0.000563528,-2.38685,4.84616,0.0121746,1.94516,0.137331,
2,1,0,1,0,48436.6,0.13913,0.138782,4.10518,25,0.00914229,10,0.000569723,-2.38667,-2.73221,-0.0215943,-3.44568,0.138782,
2,1,0,1,0,48436.7,0.140626,0.140306,4.09288,25,0.00929601,10,0.000574256,-2.38797,-0.962691,-0.0612866,-9.75853,0.140306,
2,1,0,1,0,48436.7,0.14213,0.141777,4.0709,25,0.00945003,10,0.000577159,-2.39031,-0.573348,-0.102904,-16.2971,0.141777,
2,1,0,1,0,48436.7,0.143626,0.143294,4.03796,25,0.00960234,10,0.000578618,-2.39384,-0.358797,-0.164438,-25.8485,0.143294,
2,1,0,1,0,48436.8,0.145122,0.144816,3.99505,25,0.00975321,10,0.000578549,-2.39848,-0.242217,-0.243583,-37.8397,0.144816,
2,1,0,1,0,48436.8,0.146622,0.146337,3.92612,25,0.00990236,10,0.000574535,-2.40604,-0.186354,-0.316602,-48.401,0.146337,
2,1,0,1,0,48436.8,0.148122,0.147803,3.85048,25,0.0100488,10,0.000569113,-2.41448,-0.156103,-0.377955,-56.5939,0.147803,
2,1,0,1,0,48436.9,0.149619,0.149309,3.75601,25,0.0101916,10,0.000560807,-2.42527,-0.126647,-0.465861,-68.0122,0.149309,
2,1,0,1,0,48436.9,0.151115,0.15079,3.65034,25,0.0103306,10,0.000550435,-2.43767,-0.10789,-0.546852,-77.4864,0.15079,
2,1,0,1,0,48437,0.152615,0.152298,3.52481,25,0.0104656,10,0.000536822,-2.45286,-0.0980447,-0.601766,-82.5182,0.152298,
2,1,0,1,0,48437,0.154115,0.153784,3.39228,25,0.0105958,10,0.000521677,-2.46951,-0.0920269,-0.641117,-84.8312,0.1537838,
2,1,0,1,0,48437,0.155611,0.155287,3.2626,25,0.0107209,10,0.000506638,-2.48644,-0.0846113,-0.697307,-88.6879,0.155287,
2,1,0,1,0,48437.1,0.157106,0.156817,3.12733,25,0.010841,10,0.000490419,-2.50483,-0.0831054,-0.709941,-86.6716,0.156817,
2,1,0,1,0,48437.1,0.15861,0.158301,2.99758,25,0.0109567,10,0.000474521,-2.52323,-0.0817373,-0.721825,-84.6372,0.158301,
2,1,0,1,0,48437.1,0.160106,0.159772,2.87189,25,0.0110669,10,0.000458849,-2.54183,-0.0831768,-0.709333,-79.7842,0.159772,
2,1,0,1,0,48437.2,0.161602,0.161244,2.76329,25,0.0111728,10,0.000445564,-2.55857,-0.0869328,-0.678685,-73.1614,0.161244,
2,1,0,1,0,48437.2,0.163102,0.162755,2.65831,25,0.0112749,10,0.000432654,-2.57539,-0.0914783,-0.644962,-66.9794,0.162755,
2,1,0,1,0,48437.3,0.164602,0.164252,2.56087,25,0.0113731,10,0.000420627,-2.59161,-0.0978379,-0.603038,-60.3078,0.164252,
2,1,0,1,0,48437.3,0.166099,0.165776,2.47115,25,0.0114676,10,0.000409657,-2.6071,-0.106496,-0.554011,-53.5913,0.165776,
2,1,0,1,0,48437.3,0.167595,0.16729,2.39641,25,0.0115592,10,0.000400897,-2.62044,-0.114003,-0.517528,-48.5587,0.16729,
2,1,0,1,0,48437.4,0.169095,0.16876,2.33119,25,0.0116483,10,0.000393412,-2.63242,-0.127834,-0.461538,-42.0911,0.16876,
2,1,0,1,0,48437.4,0.170595,0.170284,2.26656,25,0.011735,10,0.000385958,-2.64463,-0.132102,-0.446623,-39.6464,0.1702836,
2,1,0,1,0,48437.4,0.172091,0.171755,2.20936,25,0.0118193,10,0.000379468,-2.65573,-0.147635,-0.399635,-34.6002,0.171755,
2,1,0,1,0,48437.5,0.173586,0.173257,2.16318,25,0.0119016,10,0.000374786,-2.66491,-0.163805,-0.360184,-30.4488,0.173257,
2,1,0,1,0,48437.5,0.17509,0.174738,2.122,25,0.0119827,10,0.000370795,-2.67325,-0.182755,-0.322837,-26.7231,0.174738,
2,1,0,1,0,48437.6,0.176586,0.176266,2.08366,25,0.0120619,10,0.000367279,-2.68117,-0.193813,-0.304417,-24.7595,0.176266,
2,1,0,1,0,48437.6,0.178082,0.17775,2.0469,25,0.0121396,10,0.000363838,-2.6889,-0.215338,-0.273988,-21.9397,0.17775,
2,1,0,1,0,48437.6,0.179582,0.1793,2.01695,25,0.0122163,10,0.000361638,-2.69531,-0.254498,-0.231829,-18.3224,0.1793,
2,1,0,1,0,48437.7,0.181082,0.180751,1.9909,25,0.0122921,10,0.000359858,-2.70095,-0.271994,-0.216917,-16.8959,0.180751,
2,1,0,1,0,48437.7,0.182579,0.182268,1.96599,25,0.0123667,10,0.000358336,-2.70642,-0.260313,-0.22665,-17.4381,0.182268,
2,1,0,1,0,48437.7,0.184075,0.183747,1.94939,25,0.0124404,10,0.000358194,-2.7101,-0.300511,-0.196332,-14.9255,0.183747,
2,1,0,1,0,48437.8,0.185579,0.185287,1.92881,25,0.0125137,10,0.000357383,-2.71471,-0.35292,-0.167177,-12.5525,0.185287,
2,1,0,1,0,48437.8,0.187074,0.186775,1.91159,25,0.0125859,10,0.000357037,-2.7186,-0.43277,-0.136331,-10.144,0.186775,
2,1,0,1,0,48437.9,0.18857,0.188236,1.89583,25,0.0126575,10,0.000356864,-2.7222,-0.444781,-0.132649,-9.79666,0.188236,
2,1,0,1,0,48437.9,0.19007,0.189787,1.87683,25,0.0127288,10,0.000356199,-2.72657,-0.452567,-0.130367,-9.554,0.189787,
2,1,0,1,0,48437.9,0.19157,0.19121,1.86119,25,0.0127994,10,0.000355879,-2.73021,-0.481598,-0.122509,-8.92924,0.1912103,
2,1,0,1,0,48438,0.193066,0.192719,1.85059,25,0.0128694,10,0.000356645,-2.73269,-0.684018,-0.0862551,-6.24211,0.192719,
2,1,0,1,0,48438,0.194563,0.194221,1.84117,25,0.0129391,10,0.000357595,-2.73491,-0.696536,-0.0847049,-6.09699,0.194221,
2,1,0,1,0,48438,0.196063,0.195731,1.83211,25,0.0130085,10,0.000358602,-2.73705,-0.558278,-0.105682,-7.56053,0.1957314,
2,1,0,1,0,48438.1,0.197563,0.197239,1.81678,25,0.0130775,10,0.000358339,-2.7407,-0.605981,-0.0973629,-6.91612,0.197239,
2,1,0,1,0,48438.1,0.199059,0.198699,1.81432,25,0.013146,10,0.000360503,-2.74129,-0.690502,-0.0854451,-6.03878,0.198699,
2,1,0,1,0,48438.2,0.200555,0.200226,1.8049,25,0.0132141,10,0.00036139,-2.74355,-0.884675,-0.0666911,-4.69331,0.200226,
2,1,0,1,0,48438.2,0.202059,0.201766,1.79879,25,0.0132823,10,0.000362936,-2.74502,-0.786964,-0.0749717,-5.25277,0.201766,
2,1,0,1,0,48438.2,0.203554,0.203234,1.78664,25,0.0133499,10,0.000363107,-2.74796,-0.871291,-0.0677156,-4.73313,0.203234,
2,1,0,1,0,48438.3,0.20505,0.204744,1.77714,25,0.0134172,10,0.000363859,-2.75028,-1.72718,-0.0341597,-2.38473,0.204744,
2,1,0,1,0,48438.3,0.20655,0.206244,1.77599,25,0.0134845,10,0.000366288,-2.75056,-1.54008,-0.0383097,-2.65958,0.206244,
2,1,0,1,0,48438.3,0.20805,0.207754,1.77503,25,0.0135517,10,0.00036877,-2.75079,-1.5112,-0.0390419,-2.69857,0.207754,
2,1,0,1,0,48438.4,0.209546,0.209223,1.77117,25,0.0136185,10,0.000370569,-2.75174,-0.773888,-0.0762384,-5.25624,0.209223,
2,1,0,1,0,48438.4,0.211043,0.210706,1.76331,25,0.0136849,10,0.00037154,-2.75367,-1.01255,-0.0582686,-4.00062,0.210706,
2,1,0,1,0,48438.5,0.212543,0.21222,1.75727,25,0.0137514,10,0.000372929,-2.75516,-1.91867,-0.0307504,-2.10628,0.21222,
2,1,0,1,0,48438.5,0.214043,0.213753,1.74954,25,0.0138177,10,0.000373969,-2.75708,-1.69682,-0.0347708,-2.3764,0.213753,
2,1,0,1,0,48438.5,0.215539,0.215255,1.74461,25,0.0138836,10,0.000375535,-2.7583,-1.17802,-0.050084,-3.41746,0.215255,
2,1,0,1,0,48438.6,0.217035,0.216732,1.73837,25,0.0139493,10,0.000376761,-2.75986,-1.69282,-0.034853,-2.3727,0.216732,
2,1,0,1,0,48438.6,0.218538,0.218241,1.73809,25,0.0140152,10,0.000379324,-2.75993,-3.4439,-0.0171318,-1.16106,0.218241,
2,1,0,1,0,48438.6,0.220034,0.219704,1.73524,25,0.0140807,10,0.000381239,-2.76064,-1.47765,-0.0399282,-2.69758,0.219704,
2,1,0,1,0,48438.7,0.22153,0.221247,1.73307,25,0.0141461,10,0.000383438,-2.76118,-1.23918,-0.047612,-3.20753,0.221247,
2,1,0,1,0,48438.7,0.22303,0.222706,1.72293,25,0.0142115,10,0.000383708,-2.76373,-1.09908,-0.0536813,-3.61004,0.222706,
2,1,0,1,0,48438.8,0.22453,0.224211,1.7236,25,0.0142766,10,0.000386449,-2.76356,-0.984117,-0.0599522,-4.02718,0.224211,
2,1,0,1,0,48438.8,0.226026,0.225723,1.71929,25,0.0143415,10,0.000388084,-2.76465,-2.04821,-0.0288056,-1.93458,0.225723,
2,1,0,1,0,48438.8,0.227523,0.227187,1.71313,25,0.0144063,10,0.000389201,-2.76621,-1.40125,-0.0421051,-2.82019,0.227187,
2,1,0,1,0,48438.9,0.229023,0.228728,1.71041,25,0.0144711,10,0.000391218,-2.7669,-1.7433,-0.0338439,-2.2647,0.228728,
2,1,0,1,0,48438.9,0.230523,0.230221,1.70911,25,0.0145358,10,0.000393472,-2.76723,-2.82503,-0.0208848,-1.39442,0.230221,
2,1,0,1,0,48438.9,0.232019,0.231704,1.70554,25,0.0146001,10,0.00039518,-2.76814,-5.82452,-0.0101296,-0.674357,0.231704,
2,1,0,1,0,48439,0.233515,0.233182,1.70785,25,0.0146645,10,0.000398239,-2.76755,-2.85712,-0.0206502,-1.37005,0.233182,
2,1,0,1,0,48439,0.235018,0.234715,1.70343,25,0.0147291,10,0.000399819,-2.76868,-2.51377,-0.0234707,-1.55558,0.2347149,
2,1,0,1,0,48439.1,0.236514,0.23619,1.6951,25,0.0147931,10,0.000400367,-2.7708,-1.62701,-0.0362629,-2.4008,0.23619,
2,1,0,1,0,48439.1,0.23801,0.23767,1.69323,25,0.0148571,10,0.00040243,-2.77128,-3.52082,-0.0167575,-1.10797,0.23767,
2,1,0,1,0,48439.1,0.23951,0.239192,1.69212,25,0.0149211,10,0.000404742,-2.77157,-4.12546,-0.0143014,-0.945863,0.239192,
2,1,0,1,0,48439.2,0.24101,0.240735,1.68797,25,0.0149851,10,0.000406353,-2.77264,-2.91122,-0.0202664,-1.33825,0.240735,
2,1,0,1,0,48439.2,0.242506,0.242258,1.68181,25,0.0150488,10,0.000407433,-2.77422,-1.73477,-0.0340102,-2.24003,0.2422583,
2,1,0,1,0,48439.2,0.244003,0.243651,1.68557,25,0.0151123,10,0.000410691,-2.77325,-17.3741,-0.00339587,-0.223301,0.243651,
2,1,0,1,0,48439.3,0.245503,0.245207,1.68881,25,0.0151761,10,0.000414108,-2.77242,-2.1007,-0.0280858,-1.84312,0.245207,
2,1,0,1,0,48439.3,0.247003,0.246691,1.68396,25,0.0152397,10,0.000415419,-2.77367,-1.64385,-0.0358914,-2.35043,0.246691,
2,1,0,1,0,48439.4,0.248499,0.248178,1.67555,25,0.0153031,10,0.000415835,-2.77584,-3.99761,-0.0147588,-0.966824,0.248178,
2,1,0,1,0,48439.4,0.249995,0.249707,1.67389,25,0.0153663,10,0.000417983,-2.77627,-2.02579,-0.0291245,-1.90561,0.249707,
2,1,0,1,0,48439.4,0.251498,0.251145,1.67027,25,0.0154298,10,0.000419481,-2.77721,-4.554,-0.0129557,-0.846671,0.251145,
2,1,0,1,0,48439.5,0.252994,0.252706,1.6704,25,0.0154928,10,0.00042212,-2.77718,-1.96012,-0.0301001,-1.96352,0.2527062,
2,1,0,1,0,48439.5,0.25449,0.25421,1.66849,25,0.0155558,10,0.000424146,-2.77768,-2.10178,-0.0280714,-1.82844,0.25421,
2,1,0,1,0,48439.5,0.25599,0.25568,1.66739,25,0.0156188,10,0.000426318,-2.77796,-3.53112,-0.0167086,-1.08679,0.25568,
2,1,0,1,0,48439.6,0.25749,0.25717,1.66539,25,0.0156818,10,0.000428288,-2.77848,-6.20706,-0.0095053,-0.615844,0.25717,
2,1,0,1,0,48439.6,0.258987,0.258698,1.66495,25,0.0157446,10,0.000430721,-2.7786,-2.47041,-0.0238827,-1.54598,0.258698,
2,1,0,1,0,48439.7,0.260483,0.26018,1.66224,25,0.0158073,10,0.000432482,-2.77931,-1.34173,-0.043973,-2.85028,0.26018,
2,1,0,1,0,48439.7,0.261983,0.261688,1.65348,25,0.01587,10,0.000432697,-2.7816,-1.88461,-0.0313062,-2.02798,0.261688,
2,1,0,1,0,48439.7,0.263483,0.263165,1.65156,25,0.0159326,10,0.000434634,-2.7821,32.4775,0.00181664,0.117413,0.263165,
2,1,0,1,0,48439.8,0.264978,0.264685,1.65114,25,0.015995,10,0.000437032,-2.78222,-6.36485,-0.00926966,-0.598555,0.264685,
2,1,0,1,0,48439.8,0.266474,0.266199,1.65158,25,0.0160574,10,0.000439649,-2.7821,-1.81329,-0.0325375,-2.0962,0.266199,
2,1,0,1,0,48439.8,0.267977,0.267672,1.64617,25,0.0161199,10,0.000440633,-2.78353,-2.98758,-0.0197484,-1.26864,0.267672,
2,1,0,1,0,48439.9,0.269474,0.269161,1.64467,25,0.016182,10,0.00044268,-2.78392,-31.4406,-0.00187655,-0.120433,0.269161,
2,1,0,1,0,48439.9,0.27097,0.270642,1.647,25,0.016244,10,0.000445747,-2.78331,-6.45395,-0.00914169,-0.585614,0.270642,
2,1,0,1,0,48440,0.27247,0.272098,1.64283,25,0.0163063,10,0.000447012,-2.78441,-1.28416,-0.0459444,-2.93967,0.272098,
2,1,0,1,0,48440,0.27397,0.273667,1.63604,25,0.0163683,10,0.000447729,-2.78621,-2.01845,-0.0292304,-1.87259,0.273667,
2,1,0,1,0,48440,0.275467,0.275138,1.63503,25,0.01643,10,0.000449859,-2.78647,-1.82298,-0.0323647,-2.07135,0.275138,
2,1,0,1,0,48440.1,0.276963,0.276658,1.63404,25,0.0164917,10,0.000452069,-2.78674,-3.31324,-0.0178073,-1.13747,0.2766577,
2,1,0,1,0,48440.1,0.278463,0.278179,1.63393,25,0.0165535,10,0.000454525,-2.78677,-2.29193,-0.0257425,-1.63674,0.278179,
2,1,0,1,0,48440.1,0.279963,0.279676,1.63172,25,0.0166152,10,0.000456353,-2.78735,-1.56417,-0.0377197,-2.39515,0.2796759,
2,1,0,1,0,48440.2,0.281459,0.28115,1.62691,25,0.0166766,10,0.000457406,-2.78864,-6.75009,-0.00874062,-0.554133,0.28115,
2,1,0,1,0,48440.2,0.282954,0.282647,1.62507,25,0.0167379,10,0.00045932,-2.78913,-3.68851,-0.0159956,-1.01225,0.282647,
2,1,0,1,0,48440.3,0.284458,0.284158,1.62196,25,0.0167995,10,0.000460892,-2.78996,-1.65981,-0.0355462,-2.24945,0.284158,
2,1,0,1,0,48440.3,0.285954,0.285649,1.61775,25,0.0168606,10,0.000462111,-2.79109,-1.15376,-0.0511369,-3.23435,0.285649,
2,1,0,1,0,48440.3,0.28745,0.287122,1.61068,25,0.0169216,10,0.000462461,-2.79299,-1.56133,-0.0377882,-2.38488,0.287122,
2,1,0,1,0,48440.4,0.28895,0.288645,1.60956,25,0.0169826,10,0.000464591,-2.79329,-2.44477,-0.0241332,-1.5188,0.288645,
2,1,0,1,0,48440.4,0.29045,0.290155,1.60944,25,0.0170436,10,0.000466988,-2.79332,-2.66278,-0.0221573,-1.38991,0.290155,
2,1,0,1,0,48440.4,0.291947,0.291632,1.60705,25,0.0171043,10,0.000468668,-2.79397,-1.96159,-0.0300776,-1.88517,0.291632,
2,1,0,1,0,48440.5,0.293443,0.293161,1.60303,25,0.0171648,10,0.000469946,-2.79506,-1.45876,-0.0404452,-2.52778,0.293161,
2,1,0,1,0,48440.5,0.294943,0.294654,1.6034,25,0.0172254,10,0.00047245,-2.79496,-4.7887,-0.0123207,-0.769983,0.2946544,
2,1,0,1,0,48440.6,0.296443,0.296146,1.59918,25,0.017286,10,0.000473589,-2.7961,-3.47182,-0.016994,-1.0616,0.296146,
2,1,0,1,0,48440.6,0.297939,0.297569,1.59496,25,0.0173463,10,0.000474611,-2.79725,-1.4468,-0.0407795,-2.54225,0.2975691,
2,1,0,1,0,48440.6,0.299434,0.299159,1.5903,25,0.0174065,10,0.000475753,-2.79852,-0.0187254,-3.15081,-171.745,0.299159,
2,1,0,0,0,48440.6,0.299962,0.299632,1.53171,25,0.0174302,10,0.000458949,-2.81482,0.00120905,48.7987,1607.53,0.299632,
2,1,0,1,0,48440.7,0.298689,0.298365,0.568745,25,0.0174598,10,0.000169694,-3.24508,0.00164385,35.8912,485.963,0.298365,
2,1,0,1,0,48440.7,0.297189,0.296905,0.107628,25,0.0174708,10,3.19552e-05,-3.96808,0.00601897,9.80234,253.22,0.296905,
2,0,0,1,0,48440.8,0.295692,0.295361,-0.132833,25,0.0174694,10,-3.92337e-05,-3.87669,-0.034288,-1.72072,131.917,0.295361,
2,0,0,1,0,48440.8,0.294196,0.293887,-0.26683,25,0.0174612,10,-7.84179e-05,-3.57376,-0.00524077,-11.2579,79.3897,0.293887,
2,0,0,1,0,48440.8,0.292696,0.292356,-0.356133,25,0.0174488,10,-0.000104118,-3.44839,-0.0138254,-4.26749,54.1616,0.2923564,
2,0,0,1,0,48440.9,0.291196,0.290901,-0.423424,25,0.0174335,10,-0.000123174,-3.37322,-0.0220905,-2.67083,42.2682,0.290901,
2,0,0,1,0,48440.9,0.2897,0.289376,-0.474926,25,0.0174159,10,-0.000137432,-3.32337,-0.0337566,-1.74781,31.9667,0.289376,
2,0,0,1,0,48440.9,0.288205,0.287866,-0.522342,25,0.0173966,10,-0.000150365,-3.28205,-0.0427668,-1.37958,27.6012,0.287866,
2,0,0,1,0,48441,0.286701,0.286356,-0.556398,25,0.0173757,10,-0.000159328,-3.25461,-0.0530951,-1.11121,23.9658,0.286356,
2,0,0,1,0,48441,0.285205,0.284913,-0.592244,25,0.0173536,10,-0.000168738,-3.2275,-0.0653826,-0.902381,20.6438,0.284913,
2,0,0,1,0,48441.1,0.283708,0.283422,-0.620591,25,0.0173303,10,-0.000175889,-3.20719,-0.0735307,-0.802386,19.2523,0.283422,
2,0,0,1,0,48441.1,0.282208,0.28188,-0.646696,25,0.0173059,10,-0.000182291,-3.1893,-0.0902211,-0.653949,16.383,0.28188,
2,0,0,1,0,48441.1,0.280708,0.280403,-0.669562,25,0.0172805,10,-0.000187747,-3.17421,-0.100232,-0.588637,15.3552,0.280403,
2,0,0,1,0,48441.2,0.279212,0.278879,-0.692788,25,0.0172544,10,-0.000193204,-3.1594,-0.114276,-0.516292,13.9805,0.278879,
2,0,0,1,0,48441.2,0.277716,0.277396,-0.714473,25,0.0172275,10,-0.000198192,-3.14601,-0.114726,-0.51427,14.3298,0.277396,
2,0,0,1,0,48441.2,0.276216,0.275907,-0.732519,25,0.0171997,10,-0.000202107,-3.13518,-0.13127,-0.449455,12.8819,0.275907,
2,0,0,1,0,48441.3,0.274716,0.274409,-0.756564,25,0.0171712,10,-0.000207608,-3.12115,-0.148376,-0.397638,11.6501,0.274409,
2,0,0,1,0,48441.3,0.27322,0.272915,-0.767291,25,0.0171422,10,-0.000209405,-3.11504,-0.170444,-0.346154,10.382,0.272915,
2,0,0,1,0,48441.4,0.271725,0.27141,-0.786466,25,0.0171124,10,-0.000213454,-3.10432,-0.141977,-0.415561,12.731,0.27141,
2,0,0,1,0,48441.4,0.270221,0.269904,-0.804368,25,0.0170819,10,-0.000217102,-3.09455,-0.174803,-0.337523,10.5912,0.269904,
2,0,0,1,0,48441.4,0.268725,0.268433,-0.815627,25,0.0170509,10,-0.000218941,-3.08851,-0.198553,-0.297151,9.48907,0.2684328,
2,0,0,1,0,48441.5,0.267228,0.266961,-0.831895,25,0.0170193,10,-0.000222083,-3.07993,-0.218867,-0.26957,8.80473,0.266961,
2,0,0,1,0,48441.5,0.265728,0.265464,-0.846109,25,0.0169871,10,-0.000224612,-3.07257,-0.202479,-0.291388,9.67729,0.2654644,
2,0,0,1,0,48441.5,0.264228,0.263921,-0.862368,25,0.0169544,10,-0.000227597,-3.06431,-0.228589,-0.258106,8.69737,0.263921,
2,0,0,1,0,48441.6,0.262732,0.262416,-0.879346,25,0.0169213,10,-0.000230754,-3.05584,-0.260697,-0.226316,7.70333,0.262416,
2,0,0,1,0,48441.6,0.261236,0.260924,-0.889127,25,0.0168877,10,-0.000231995,-3.05104,-0.251799,-0.234314,8.10748,0.260924,
2,0,0,1,0,48441.7,0.259736,0.259442,-0.905533,25,0.0168535,10,-0.000234933,-3.0431,-0.237746,-0.248164,8.72391,0.259442,
2,0,0,1,0,48441.7,0.258236,0.257954,-0.915628,25,0.0168189,10,-0.00023619,-3.03828,-0.23113,-0.255267,9.10338,0.257954,
2,0,0,1,0,48441.7,0.256741,0.256403,-0.925881,25,0.0167838,10,-0.000237399,-3.03345,-0.272906,-0.216192,7.82394,0.256403,
2,0,0,1,0,48441.8,0.255241,0.254915,-0.93706,25,0.0167482,10,-0.00023887,-3.02823,-0.306579,-0.192446,7.04183,0.254915,
2,0,0,1,0,48441.8,0.253741,0.253371,-0.944327,25,0.0167123,10,-0.000239266,-3.02488,-0.264448,-0.223106,8.28674,0.253371,
2,0,0,1,0,48441.8,0.252245,0.251942,-0.962716,25,0.016676,10,-0.000242549,-3.0165,-0.262172,-0.225043,8.43781,0.251942,
2,0,0,1,0,48441.9,0.250748,0.25044,-0.973288,25,0.0166392,10,-0.00024375,-3.01176,-0.278854,-0.21158,8.00966,0.25044,
2,0,0,1,0,48441.9,0.249248,0.248957,-0.986286,25,0.0166019,10,-0.000245543,-3.006,-0.363695,-0.162224,6.2152,0.2489574,
2,0,0,1,0,48442,0.247748,0.247445,-0.991897,25,0.0165642,10,-0.00024544,-3.00353,-0.31291,-0.188553,7.31184,0.247445,
2,0,0,1,0,48442,0.246252,0.245936,-1.00462,25,0.0165263,10,-0.000247071,-2.998,-0.316612,-0.186348,7.29579,0.245936,
2,0,0,1,0,48442,0.244756,0.24442,-1.01685,25,0.016488,10,-0.000248538,-2.99274,-0.267358,-0.220678,8.7472,0.24442,
2,0,0,1,0,48442.1,0.243252,0.242905,-1.02305,25,0.0164489,10,-0.000248504,-2.9901,-0.387955,-0.152079,6.09557,0.242905,
2,0,0,1,0,48442.1,0.241756,0.241503,-1.02782,25,0.0164098,10,-0.00024822,-2.98808,-0.450719,-0.130902,5.2887,0.241503,
2,0,0,1,0,48442.1,0.240261,0.239938,-1.04482,25,0.0163704,10,-0.000250693,-2.98096,-0.361793,-0.163077,6.65045,0.2399385,
2,0,0,1,0,48442.2,0.238761,0.238464,-1.05544,25,0.0163304,10,-0.000251685,-2.97657,-0.348724,-0.169188,6.94612,0.238464,
2,0,0,1,0,48442.2,0.237261,0.236926,-1.0657,25,0.0162901,10,-0.000252492,-2.97236,-0.468439,-0.12595,5.20445,0.236926,
2,0,0,1,0,48442.3,0.235765,0.235431,-1.075,25,0.0162495,10,-0.000253089,-2.96859,-0.439975,-0.134099,5.60214,0.235431,
2,0,0,1,0,48442.3,0.234268,0.233946,-1.0804,25,0.0162086,10,-0.000252754,-2.96642,-0.399686,-0.147616,6.25238,0.233946,
2,0,0,1,0,48442.3,0.232768,0.232474,-1.09165,25,0.0161672,10,-0.00025378,-2.96192,-0.362408,-0.1628,6.94276,0.232474,
2,0,0,1,0,48442.4,0.231268,0.23099,-1.09958,25,0.0161254,10,-0.000253993,-2.95877,-0.409818,-0.143966,6.19159,0.23099,
2,0,0,1,0,48442.4,0.229772,0.229474,-1.10966,25,0.0160834,10,-0.000254638,-2.95481,-0.521598,-0.113114,4.90601,0.229474,
2,0,0,1,0,48442.4,0.228275,0.227958,-1.11749,25,0.0160411,10,-0.000254741,-2.95176,-0.392418,-0.15035,6.56963,0.227958,
2,0,0,1,0,48442.5,0.226772,0.226469,-1.13047,25,0.0159983,10,-0.000256017,-2.94674,-0.360047,-0.163867,7.20588,0.226469,
2,0,0,1,0,48442.5,0.225276,0.224925,-1.14098,25,0.0159553,10,-0.000256635,-2.94272,-0.401097,-0.147096,6.51592,0.224925,
2,0,0,1,0,48442.6,0.223781,0.223454,-1.14712,25,0.0159119,10,-0.000256329,-2.94039,-0.398496,-0.148057,6.60628,0.223454,
2,0,0,1,0,48442.6,0.222281,0.221933,-1.15025,25,0.0158682,10,-0.000255279,-2.93921,-0.429088,-0.137501,6.20333,0.221933,
2,0,0,1,0,48442.6,0.220781,0.220446,-1.16053,25,0.0158241,10,-0.000255836,-2.93534,-0.389256,-0.151571,6.88538,0.220446,
2,0,0,1,0,48442.7,0.219284,0.218973,-1.17204,25,0.0157798,10,-0.000256645,-2.93106,-0.483741,-0.121966,5.58921,0.218973,
2,0,0,1,0,48442.7,0.217788,0.217485,-1.18257,25,0.0157351,10,-0.000257192,-2.92717,-0.596895,-0.0988449,4.56074,0.217485,
2,0,0,1,0,48442.7,0.216288,0.215941,-1.18868,25,0.01569,10,-0.000256685,-2.92493,-0.497293,-0.118642,5.50994,0.215941,
2,0,0,1,0,48442.8,0.214788,0.214485,-1.20007,25,0.0156446,10,-0.000257396,-2.92079,-0.55717,-0.105892,4.94621,0.214485,
2,0,0,1,0,48442.8,0.213292,0.212918,-1.21285,25,0.0155989,10,-0.000258237,-2.91619,-0.448081,-0.131673,6.19316,0.212918,
2,0,0,1,0,48442.9,0.211796,0.211463,-1.21885,25,0.015553,10,-0.000257741,-2.91405,-0.568415,-0.103797,4.91556,0.211463,
2,0,0,1,0,48442.9,0.210293,0.20994,-1.22562,25,0.0155064,10,-0.000257306,-2.91164,-0.486884,-0.121179,5.79525,0.20994,
2,0,0,1,0,48442.9,0.208797,0.208478,-1.23348,25,0.0154598,10,-0.000257154,-2.90887,-0.419779,-0.14055,6.79714,0.208478,
2,0,0,1,0,48443,0.207301,0.20698,-1.24059,25,0.0154129,10,-0.000256777,-2.90637,-0.347051,-0.170004,8.2618,0.20698,
2,0,0,1,0,48443,0.205801,0.205475,-1.25451,25,0.0153654,10,-0.00025777,-2.90153,-0.400127,-0.147453,7.21839,0.205475,
2,0,0,1,0,48443,0.204301,0.203945,-1.26021,25,0.0153176,10,-0.000257012,-2.89956,-0.575985,-0.102433,5.04627,0.203945,
2,0,0,1,0,48443.1,0.202804,0.202455,-1.27014,25,0.0152696,10,-0.000257146,-2.89615,-0.549748,-0.107322,5.31306,0.202455,
2,0,0,1,0,48443.1,0.201308,0.200952,-1.28058,25,0.0152213,10,-0.000257335,-2.89259,-0.399115,-0.147827,7.37751,0.200952,
2,0,0,1,0,48443.2,0.199808,0.199496,-1.29069,25,0.0151725,10,-0.000257488,-2.88918,-0.515826,-0.11438,5.75239,0.199496,
2,0,0,1,0,48443.2,0.198308,0.198027,-1.29773,25,0.0151233,10,-0.000256986,-2.88681,-0.495998,-0.118952,6.02309,0.198027,
2,0,0,1,0,48443.2,0.196812,0.196488,-1.30318,25,0.015074,10,-0.00025606,-2.88499,-0.587772,-0.100379,5.12817,0.196488,
2,0,0,1,0,48443.3,0.195316,0.194986,-1.31391,25,0.0150244,10,-0.000256195,-2.88143,-0.411017,-0.143547,7.37773,0.194986,
2,0,0,1,0,48443.3,0.193813,0.193499,-1.3303,25,0.014974,10,-0.000257412,-2.87605,-0.436553,-0.13515,7.01404,0.1934994,
2,0,0,1,0,48443.3,0.192317,0.191993,-1.33643,25,0.0149235,10,-0.000256585,-2.87405,-0.509685,-0.115758,6.02674,0.191993,
2,0,0,1,0,48443.4,0.190821,0.190524,-1.34553,25,0.0148727,10,-0.000256356,-2.87111,-0.501938,-0.117544,6.17924,0.190524,
2,0,0,1,0,48443.4,0.189321,0.189001,-1.35849,25,0.0148215,10,-0.000256756,-2.86694,-0.408884,-0.144295,7.63532,0.189001,
2,0,0,1,0,48443.5,0.187821,0.187465,-1.36753,25,0.0147698,10,-0.000256363,-2.86406,-0.47279,-0.124791,6.65354,0.187465,
2,0,0,1,0,48443.5,0.186324,0.185969,-1.37879,25,0.0147178,10,-0.000256412,-2.8605,-0.548016,-0.107661,5.78478,0.1859691,
2,0,0,1,0,48443.5,0.184828,0.184488,-1.3851,25,0.0146655,10,-0.000255534,-2.85852,-0.458905,-0.128567,6.97091,0.184488,
2,0,0,1,0,48443.6,0.183328,0.183059,-1.39697,25,0.0146127,10,-0.000255728,-2.85481,-0.478969,-0.123181,6.74731,0.183059,
2,0,0,1,0,48443.6,0.181828,0.181459,-1.41049,25,0.0145594,10,-0.000255947,-2.85063,-0.374998,-0.157334,8.664,0.181459,
2,0,0,1,0,48443.6,0.180332,0.180003,-1.42686,25,0.0145058,10,-0.000256839,-2.84562,-0.376782,-0.156589,8.68275,0.180003,
2,0,0,1,0,48443.7,0.178836,0.17853,-1.43921,25,0.0144517,10,-0.000256942,-2.84188,-0.420161,-0.140422,7.85418,0.17853,
2,0,0,1,0,48443.7,0.177333,0.177014,-1.44775,25,0.0143969,10,-0.000256273,-2.83931,-0.416459,-0.141671,7.99647,0.177014,
2,0,0,1,0,48443.8,0.175837,0.175538,-1.46034,25,0.014342,10,-0.000256345,-2.83555,-0.363606,-0.162264,9.22614,0.175538,
2,0,0,1,0,48443.8,0.174341,0.173979,-1.47778,25,0.0142864,10,-0.000257103,-2.83039,-0.354472,-0.166445,9.59581,0.173979,
2,0,0,1,0,48443.8,0.172841,0.172504,-1.48903,25,0.0142302,10,-0.000256863,-2.8271,-0.380033,-0.15525,9.02875,0.172504,
2,0,0,1,0,48443.9,0.171341,0.171002,-1.49991,25,0.0141735,10,-0.000256487,-2.82393,-0.361166,-0.16336,9.58985,0.171002,
2,0,0,1,0,48443.9,0.169844,0.16952,-1.51902,25,0.0141164,10,-0.000257504,-2.81844,-0.345922,-0.170559,10.1235,0.16952,
2,0,0,1,0,48443.9,0.168348,0.168023,-1.53991,25,0.0140587,10,-0.000258741,-2.8125,-0.30583,-0.192917,11.5616,0.168023,
2,0,0,1,0,48444,0.166848,0.166479,-1.55919,25,0.0140001,10,-0.000259573,-2.8071,-0.326353,-0.180786,10.937,0.166479,
2,0,0,1,0,48444,0.165348,0.164995,-1.57572,25,0.0139408,10,-0.000259985,-2.80252,-0.306902,-0.192244,11.8093,0.1649947,
2,0,0,1,0,48444.1,0.163852,0.16349,-1.59196,25,0.013881,10,-0.000260271,-2.79807,-0.291707,-0.202258,12.5923,0.16349,
2,0,0,1,0,48444.1,0.162357,0.162067,-1.61035,25,0.0138205,10,-0.000260984,-2.79308,-0.237333,-0.248596,15.6582,0.162067,
2,0,0,1,0,48444.1,0.160853,0.160525,-1.63261,25,0.0137588,10,-0.000262074,-2.78712,-0.24625,-0.239594,15.3203,0.1605247,
2,0,0,1,0,48444.2,0.159357,0.159035,-1.66166,25,0.0136965,10,-0.000264263,-2.77946,-0.229279,-0.257328,16.7186,0.159035,
2,0,0,1,0,48444.2,0.157861,0.157514,-1.68723,25,0.0136333,10,-0.000265761,-2.77283,-0.198935,-0.296579,19.5689,0.1575135,
2,0,0,1,0,48444.2,0.156361,0.156052,-1.7172,25,0.0135688,10,-0.000267972,-2.76518,-0.185801,-0.317543,21.2841,0.156052,
2,0,0,1,0,48444.3,0.154861,0.154499,-1.7564,25,0.0135031,10,-0.000271363,-2.75538,-0.181093,-0.3258,22.2439,0.154499,
2,0,0,1,0,48444.3,0.153364,0.153029,-1.78661,25,0.0134364,10,-0.000273402,-2.74797,-0.180237,-0.327347,22.8037,0.153029,
2,0,0,1,0,48444.3,0.151868,0.151523,-1.82058,25,0.0133684,10,-0.00027586,-2.73979,-0.154011,-0.383089,27.2981,0.151523,
2,0,0,1,0,48444.4,0.150368,0.150041,-1.86189,25,0.0132986,10,-0.00027936,-2.73005,-0.141484,-0.417008,30.3992,0.150041,
2,0,0,1,0,48444.4,0.148868,0.148535,-1.9087,25,0.0132273,10,-0.000283508,-2.71926,-0.131582,-0.44839,33.5413,0.148535,
2,0,0,1,0,48444.5,0.147372,0.147027,-1.96313,25,0.0131542,10,-0.000288632,-2.70705,-0.126081,-0.467952,35.9617,0.147027,
2,0,0,1,0,48444.5,0.145877,0.145533,-2.01651,25,0.0130791,10,-0.00029347,-2.6954,-0.116778,-0.505234,39.9183,0.145533,
2,0,0,1,0,48444.5,0.144373,0.144014,-2.08484,25,0.0130014,10,-0.000300245,-2.68093,-0.103951,-0.567576,46.2814,0.144014,
2,0,0,1,0,48444.6,0.142877,0.142567,-2.1587,25,0.0129215,10,-0.000307759,-2.66581,-0.0991652,-0.594967,50.0901,0.142567,
2,0,0,1,0,48444.6,0.14138,0.14105,-2.23435,25,0.0128388,10,-0.000315154,-2.65085,-0.100304,-0.588212,51.2843,0.14105,
2,0,0,1,0,48444.6,0.13988,0.139569,-2.31301,25,0.0127528,10,-0.000322825,-2.63582,-0.0958142,-0.615775,55.6536,0.139569,
2,0,0,1,0,48444.7,0.13838,0.138051,-2.4004,25,0.0126638,10,-0.000331377,-2.61972,-0.0926503,-0.636803,59.8437,0.138051,
2,0,0,1,0,48444.7,0.136884,0.136514,-2.49346,25,0.0125717,10,-0.000340393,-2.6032,-0.0890206,-0.662768,64.6992,0.136514,
2,0,0,1,0,48444.8,0.135388,0.135079,-2.59141,25,0.0124758,10,-0.000350046,-2.58646,-0.0914347,-0.645269,65.3618,0.135079,
2,0,0,1,0,48444.8,0.133888,0.133567,-2.69794,25,0.012376,10,-0.000360355,-2.56897,-0.0924013,-0.638519,67.1057,0.133567,
2,0,0,1,0,48444.8,0.132389,0.132086,-2.79642,25,0.0122725,10,-0.000369367,-2.5534,-0.0955293,-0.617612,67.3108,0.132086,
2,0,0,1,0,48444.9,0.130893,0.130554,-2.89633,25,0.0121654,10,-0.000378127,-2.53815,-0.0956806,-0.616635,69.6356,0.130554,
2,0,0,1,0,48444.9,0.129393,0.129075,-3.00285,25,0.0120542,10,-0.000387592,-2.52247,-0.100558,-0.586727,68.6075,0.129075,
2,0,0,1,0,48444.9,0.127893,0.127584,-3.10313,25,0.011939,10,-0.000395909,-2.5082,-0.105105,-0.561343,67.8583,0.127584,
2,0,0,1,0,48445,0.126397,0.126082,-3.1937,25,0.0118205,10,-0.000402668,-2.49571,-0.115375,-0.511375,63.8544,0.126082,
2,0,0,1,0,48445,0.1249,0.124538,-3.29087,25,0.0116984,10,-0.000409839,-2.48269,-0.120356,-0.490213,63.0216,0.124538,
2,0,0,1,0,48445.1,0.1234,0.123101,-3.38567,25,0.0115724,10,-0.000416778,-2.47036,-0.129646,-0.455085,60.0884,0.123101,
2,0,0,1,0,48445.1,0.1219,0.121578,-3.47499,25,0.0114431,10,-0.000422483,-2.45905,-0.143328,-0.411643,55.704,0.121578,
2,0,0,1,0,48445.1,0.120404,0.12012,-3.5574,25,0.0113109,10,-0.000427314,-2.44887,-0.15182,-0.388618,53.829,0.12012,
2,0,0,1,0,48445.2,0.118908,0.118596,-3.63868,25,0.0111758,10,-0.000431532,-2.43906,-0.161335,-0.365699,51.8062,0.118596,
2,0,0,1,0,48445.2,0.117404,0.117063,-3.71692,25,0.011037,10,-0.000435113,-2.42982,-0.176738,-0.333828,48.2512,0.117063,
2,0,0,1,0,48445.2,0.115908,0.115549,-3.7803,25,0.0108962,10,-0.000436812,-2.42247,-0.204978,-0.287836,42.3588,0.115549,
2,0,0,1,0,48445.3,0.114413,0.114057,-3.84137,25,0.010753,10,-0.000438137,-2.41551,-0.227223,-0.259656,38.8954,0.114057,
2,0,0,1,0,48445.3,0.112913,0.112612,-3.89303,25,0.0106073,10,-0.000438402,-2.40971,-0.257773,-0.228883,34.7904,0.112612,
2,0,0,1,0,48445.4,0.111413,0.111121,-3.94444,25,0.0104596,10,-0.000438311,-2.40401,-0.278824,-0.211603,32.5472,0.111121,
2,0,0,1,0,48445.4,0.109917,0.109589,-3.9949,25,0.0103104,10,-0.000437798,-2.39849,-0.342604,-0.172211,26.7734,0.109589,
2,0,0,1,0,48445.4,0.10842,0.108101,-4.03022,25,0.0101598,10,-0.000435669,-2.39467,-0.421021,-0.140135,21.9745,0.1081007,
2,0,0,1,0,48445.5,0.10692,0.106602,-4.05599,25,0.0100076,10,-0.000432375,-2.3919,-0.592416,-0.0995921,15.7348,0.106602,
2,0,0,1,0,48445.5,0.10542,0.105091,-4.08021,25,0.00985444,10,-0.000428795,-2.38932,-0.743192,-0.0793873,12.6105,0.105091,
2,0,0,1,0,48445.5,0.103924,0.103622,-4.0956,25,0.00970094,10,-0.000424393,-2.38768,-1.20986,-0.0487659,7.78232,0.103622,
2,0,0,1,0,48445.6,0.102427,0.102058,-4.09933,25,0.00954701,10,-0.000418371,-2.38729,-5.14807,-0.0114606,1.83176,0.102058,
2,0,0,1,0,48445.6,0.100924,0.100618,-4.09391,25,0.00939221,10,-0.000411922,-2.38786,3.3335,0.0176991,-2.829,0.100618,
2,0,0,1,0,48445.7,0.0994284,0.0991104,-4.09134,25,0.00923842,10,-0.000405494,-2.38813,1.70456,0.034613,-5.52176,0.0991104,
2,0,0,1,0,48445.7,0.0979329,0.0976246,-4.08288,25,0.00908489,10,-0.00039859,-2.38903,1.0338,0.057071,-9.07849,0.0976246,
2,0,0,1,0,48445.7,0.0964329,0.0961043,-4.06921,25,0.00893144,10,-0.000391069,-2.39049,0.743149,0.0793919,-12.5703,0.0961043,
2,0,0,1,0,48445.8,0.094933,0.0945922,-4.04833,25,0.0087787,10,-0.00038294,-2.39272,0.648191,0.0910225,-14.3499,0.0945922,
2,0,0,1,0,48445.8,0.0934366,0.0931783,-4.0229,25,0.00862725,10,-0.000374847,-2.39546,0.614728,0.0959773,-15.0737,0.0931783,
2,0,0,1,0,48445.8,0.0919401,0.0915924,-3.99784,25,0.00847663,10,-0.000366172,-2.39817,0.584141,0.101003,-15.7604,0.0915924,
2,0,0,1,0,48445.9,0.0904402,0.0901116,-3.97027,25,0.00832645,10,-0.000357767,-2.40118,0.51282,0.11505,-17.8358,0.0901116,
2,0,0,1,0,48445.9,0.0889402,0.0886347,-3.94701,25,0.0081773,10,-0.000349842,-2.40373,0.493176,0.119633,-18.439,0.0886347,
2,0,0,1,0,48446,0.0874438,0.0871331,-3.91911,25,0.0080297,10,-0.000341484,-2.40681,0.52047,0.113359,-17.3461,0.08713311,
2,0,0,1,0,48446,0.0859483,0.0855976,-3.8954,25,0.00788302,10,-0.000333437,-2.40945,0.559872,0.105381,-15.9974,0.0855976,
2,0,0,1,0,48446,0.0844447,0.0840947,-3.87262,25,0.00773647,10,-0.000325666,-2.412,0.582045,0.101367,-15.295,0.0840947,
2,0,0,1,0,48446.1,0.0829492,0.0826292,-3.85065,25,0.00759158,10,-0.000318176,-2.41447,0.54655,0.10795,-16.1823,0.0826292,
2,0,0,1,0,48446.1,0.0814528,0.0811211,-3.81858,25,0.00744766,10,-0.000309767,-2.4181,0.593124,0.0994734,-14.8436,0.0811211,
2,0,0,1,0,48446.1,0.0799528,0.0796157,-3.80112,25,0.00730422,10,-0.000302629,-2.42009,0.727477,0.0811022,-12.0273,0.0796157,
2,0,0,1,0,48446.2,0.0784529,0.0781227,-3.77859,25,0.00716143,10,-0.000295193,-2.42267,0.739953,0.0797348,-11.7739,0.0781227,
2,0,0,1,0,48446.2,0.0769565,0.0765978,-3.76382,25,0.00701975,10,-0.0002883,-2.42437,0.641449,0.0919792,-13.5165,0.0765978,
2,0,0,1,0,48446.3,0.0754601,0.0751165,-3.73739,25,0.00687877,10,-0.000280739,-2.42743,0.697295,0.0846127,-12.3594,0.0751165,
2,0,0,1,0,48446.3,0.0739601,0.0736427,-3.72514,25,0.00673818,10,-0.000274329,-2.42886,0.724951,0.0813848,-11.8364,0.0736427,
2,0,0,1,0,48446.3,0.0724601,0.0721492,-3.71262,25,0.00659819,10,-0.000267863,-2.43032,0.86308,0.0683598,-9.88552,0.0721492,
2,0,0,1,0,48446.4,0.0709637,0.0706267,-3.69482,25,0.00645916,10,-0.000260952,-2.43241,0.728914,0.0809423,-11.6511,0.0706267,
2,0,0,1,0,48446.4,0.0694682,0.0691692,-3.673,25,0.00632077,10,-0.000254059,-2.43498,0.699649,0.084328,-12.0911,0.0691692,
2,0,0,1,0,48446.4,0.0679646,0.0676284,-3.65482,25,0.00618238,10,-0.00024717,-2.43713,0.756901,0.0779494,-11.1376,0.0676284,
2,0,0,1,0,48446.5,0.0664691,0.0661526,-3.63581,25,0.00604535,10,-0.000240518,-2.4394,0.795577,0.07416,-10.5384,0.0661526,
2,0,0,1,0,48446.5,0.0649727,0.0646384,-3.61825,25,0.00590886,10,-0.000233877,-2.4415,0.66474,0.0887565,-12.5488,0.0646384,
2,0,0,1,0,48446.6,0.0634727,0.0631579,-3.60517,25,0.00577268,10,-0.000227695,-2.44307,0.630315,0.093604,-13.1721,0.0631579,
2,0,0,1,0,48446.6,0.0619728,0.0616764,-3.58548,25,0.00563733,10,-0.000221139,-2.44545,0.604485,0.0976038,-13.6514,0.06167642,
2,0,0,1,0,48446.6,0.0604764,0.0601382,-3.56481,25,0.00550299,10,-0.000214382,-2.44796,0.677445,0.0870919,-12.1107,0.0601382,
2,0,0,1,0,48446.7,0.05898,0.0586627,-3.5495,25,0.00536935,10,-0.000208223,-2.44983,0.62654,0.094168,-13.0294,0.0586627,
2,0,0,1,0,48446.7,0.05748,0.0571352,-3.52679,25,0.00523602,10,-0.000201504,-2.45262,0.545139,0.108229,-14.8961,0.0571352,
2,0,0,1,0,48446.7,0.05598,0.055677,-3.49968,25,0.00510355,10,-0.000194852,-2.45597,0.641118,0.0920268,-12.5995,0.055677,
2,0,0,1,0,48446.8,0.0544836,0.0542005,-3.48438,25,0.00497222,10,-0.000188855,-2.45787,0.64703,0.0911859,-12.41,0.0542005,
2,0,0,1,0,48446.8,0.0529881,0.0526602,-3.46632,25,0.00484155,10,-0.000182537,-2.46013,0.61034,0.0966674,-13.083,0.0526602,
2,0,0,1,0,48446.9,0.0514846,0.0511433,-3.44728,25,0.00471091,10,-0.000176305,-2.46252,0.552968,0.106697,-14.3443,0.0511433,
2,0,0,1,0,48446.9,0.049989,0.0496405,-3.42456,25,0.00458178,10,-0.000169997,-2.46539,0.555118,0.106284,-14.1923,0.0496405,
2,0,0,1,0,48446.9,0.0484926,0.0481737,-3.40581,25,0.00445353,10,-0.00016407,-2.46778,0.549893,0.107294,-14.2496,0.0481737,
2,0,0,1,0,48447,0.0469927,0.0466784,-3.38429,25,0.00432568,10,-0.000157973,-2.47053,0.561218,0.105129,-13.8598,0.0466784,
2,0,0,1,0,48447,0.0454927,0.0451724,-3.35933,25,0.00419861,10,-0.000151749,-2.47375,0.48697,0.121157,-15.8774,0.0451724,
2,0,0,1,0,48447,0.0439963,0.0436835,-3.33643,25,0.00407274,10,-0.000145747,-2.47672,0.477698,0.123509,-16.1015,0.0436835,
2,0,0,1,0,48447.1,0.0424999,0.0421663,-3.3115,25,0.0039478,10,-0.000139634,-2.47997,0.502564,0.117398,-15.2052,0.0421663,
2,0,0,1,0,48447.1,0.0409999,0.0406937,-3.29252,25,0.00382334,10,-0.000133985,-2.48247,0.524244,0.112543,-14.4651,0.0406937,
2,0,0,1,0,48447.2,0.0394999,0.0391583,-3.27204,25,0.00369966,10,-0.000128128,-2.48518,0.430491,0.137053,-17.4624,0.0391583,
2,0,0,1,0,48447.2,0.0380044,0.0376363,-3.24776,25,0.0035772,10,-0.000122234,-2.48842,0.449751,0.131184,-16.6008,0.0376363,
2,0,0,1,0,48447.2,0.0365089,0.0361594,-3.21782,25,0.00345583,10,-0.000116354,-2.49244,0.430233,0.137135,-17.2064,0.0361594,
2,0,0,1,0,48447.3,0.0350054,0.0346772,-3.19339,25,0.00333469,10,-0.000110738,-2.49575,0.476446,0.123834,-15.4087,0.0346772,
2,0,0,1,0,48447.3,0.033509,0.0331874,-3.16574,25,0.00321512,10,-0.000105063,-2.49952,0.464809,0.126934,-15.6923,0.0331874,
2,0,0,1,0,48447.3,0.0320125,0.0316798,-3.13858,25,0.00309649,10,-9.94298e-05,-2.50327,0.397031,0.148603,-18.2126,0.0316798,
2,0,0,1,0,48447.4,0.0305126,0.0301707,-3.10613,25,0.0029786,10,-9.37141e-05,-2.50778,0.4161,0.141793,-17.2526,0.0301707,
2,0,0,1,0,48447.4,0.0290126,0.0286976,-3.08619,25,0.00286175,10,-8.85662e-05,-2.51058,0.408235,0.144525,-17.4265,0.0286976,
2,0,0,1,0,48447.5,0.0275162,0.0271945,-3.06704,25,0.00274606,10,-8.34066e-05,-2.51328,0.42426,0.139066,-16.6196,0.0271945,
2,0,0,1,0,48447.5,0.0260198,0.0256895,-3.044,25,0.00263131,10,-7.81988e-05,-2.51656,0.399838,0.14756,-17.4834,0.0256895,
2,0,0,1,0,48447.5,0.0245198,0.0242126,-3.01307,25,0.0025172,10,-7.29543e-05,-2.52099,0.413065,0.142835,-16.7936,0.0242126,
2,0,0,1,0,48447.6,0.0230198,0.0227146,-2.98858,25,0.00240412,10,-6.78844e-05,-2.52454,0.434225,0.135874,-15.8429,0.0227146,
2,0,0,1,0,48447.6,0.0215243,0.0211605,-2.96487,25,0.00229221,10,-6.27383e-05,-2.52799,0.446705,0.132078,-15.2826,0.0211605,
2,0,0,1,0,48447.6,0.0200288,0.0196893,-2.94007,25,0.00218113,10,-5.78878e-05,-2.53164,0.447189,0.131935,-15.16,0.0196893,
2,0,0,1,0,48447.7,0.0185253,0.0181993,-2.91762,25,0.00207029,10,-5.30985e-05,-2.53497,0.434188,0.135886,-15.4852,0.0181993,
2,0,0,1,0,48447.7,0.0170289,0.0166997,-2.89463,25,0.00196093,10,-4.83394e-05,-2.53841,0.498496,0.118356,-13.4054,0.0166997,
2,0,0,1,0,48447.8,0.0155325,0.0151785,-2.87994,25,0.00185233,10,-4.37132e-05,-2.54062,0.566829,0.104088,-11.6967,0.0151785,
2,0,0,1,0,48447.8,0.0140325,0.0137065,-2.86429,25,0.00174404,10,-3.92595e-05,-2.54298,0.570098,0.103491,-11.5484,0.0137065,
2,0,0,1,0,48447.8,0.0125325,0.0121864,-2.8471,25,0.00163642,10,-3.46959e-05,-2.5456,0.576204,0.102394,-11.3574,0.0121864,
2,0,0,1,0,48447.9,0.0110361,0.010706,-2.82736,25,0.00152982,10,-3.02696e-05,-2.54862,0.617669,0.0955204,-10.5457,0.010706,
2,0,0,1,0,48447.9,0.0095397,0.0092318,-2.81103,25,0.00142376,10,-2.59509e-05,-2.55113,0.720227,0.0819186,-8.98679,0.0092318,
2,0,0,1,0,48447.9,0.00803616,0.00772339,-2.79939,25,0.00131766,10,-2.16208e-05,-2.55294,0.827215,0.0713236,-7.80093,0.00772339,
2,0,0,1,0,48448,0.00654064,0.00624634,-2.78546,25,0.00121262,10,-1.73989e-05,-2.5551,0.797313,0.0739985,-8.05072,0.00624634,
2,0,0,1,0,48448,0.00504513,0.00471867,-2.77123,25,0.00110804,10,-1.30765e-05,-2.55733,1.03328,0.0570996,-6.1892,0.00471867,
2,0,0,1,0,48448.1,0.00354515,0.00320667,-2.76497,25,0.00100358,10,-8.86635e-06,-2.55831,14.0612,0.00419594,-0.454704,0.00320667,
2,0,0,1,0,48448.1,0.00204518,0.00168106,-2.79204,25,0.000899174,10,-4.69358e-06,-2.55408,4.15305,0.0142064,-1.53089,0.00168106,
2,0,0,1,0,48448.1,0.000548773,0.000135328,-2.76524,25,0.000794798,10,-3.74216e-07,-2.55827, , , ,0.000135328,
2,0,0,1,0,48448.1,0.000177222,-0.000207746,-2.75819,25,0.000768929,10,5.73002e-07,-2.55938, , , ,-0.000207746,