File: Figure_codes/Fig_3-5/rawdata_trumpetplot_data/after 10th/20221101_1-115_003_TrumpetPlot_ParaChange_from10_every3_06_CV_C01_12.csv
mode,ox/red,error,control changes,counter inc.,time/s,control/V,Ewe/V,<I>/mA,cycle number,(Q-Qo)/C,I Range,P/W,log(|I|),Tafel slope mV/dec,alpha_eff,dI/d(E-IR),E-IR/V,
2,0,0,0,0,24791.6,2.44065e-05,-0.000363498,-1.41471,13,0.0000000E+000,10,5.14244e-07,-2.84933, , , ,-0.000363498,
2,0,0,1,0,24791.6,0.00129787,0.000943813,-0.179187,13,-2.0789e-05,10,-1.69119e-07,-3.74669, , , ,0.000943813,
2,1,0,1,0,24791.7,0.00279427,0.00249875,0.524411,13,-1.23521e-05,10,1.31037e-06,-3.28033,0.0162283,3.63562,368.213,0.00249875,
2,1,0,1,0,24791.7,0.00429425,0.00397786,0.875294,13,1.50858e-05,10,3.4818e-06,-3.05785,0.00757665,7.78708,200.815,0.00397786,
2,1,0,1,0,24791.7,0.00579422,0.00550313,1.09112,13,5.28738e-05,10,6.00455e-06,-2.96213,0.0181704,3.24703,127.592,0.005503125,
2,1,0,1,0,24791.8,0.00729063,0.00698239,1.23958,13,9.72518e-05,10,8.65523e-06,-2.90673,0.0316271,1.86549,87.0741,0.00698239,
2,1,0,1,0,24791.8,0.00878703,0.00845944,1.3456,13,0.000146388,10,1.13831e-05,-2.87108,0.0460555,1.28106,66.1167,0.00845944,
2,1,0,1,0,24791.8,0.010287,0.00997948,1.42631,13,0.000199202,10,1.42338e-05,-2.84579,0.0643719,0.916549,50.5964,0.00997948,
2,1,0,1,0,24791.9,0.011787,0.011449,1.49741,13,0.000254815,10,1.71439e-05,-2.82466,0.0794791,0.742334,43.1588,0.011449,
2,1,0,1,0,24791.9,0.0132825,0.0129586,1.5545,13,0.000312454,10,2.01441e-05,-2.80841,0.0955233,0.61765,37.3337,0.0129586,
2,1,0,1,0,24792,0.014778,0.0144876,1.60627,13,0.000372192,10,2.3271e-05,-2.79418,0.106929,0.551767,34.3832,0.0144876,
2,1,0,1,0,24792,0.0162816,0.0159846,1.65902,13,0.000434239,10,2.65189e-05,-2.78015,0.128291,0.45989,29.5066,0.0159846,
2,1,0,1,0,24792,0.017778,0.0174595,1.69716,13,0.00049759,10,2.96315e-05,-2.77028,0.151305,0.389941,25.7517,0.0174595,
2,1,0,1,0,24792.1,0.0192744,0.0189428,1.73534,13,0.000562346,10,3.28723e-05,-2.76061,0.150335,0.392457,26.573,0.0189428,
2,1,0,1,0,24792.1,0.0207743,0.0204802,1.77052,13,0.000628788,10,3.62606e-05,-2.7519,0.150747,0.391385,27.1241,0.0204802,
2,1,0,1,0,24792.1,0.0222743,0.0219559,1.81264,13,0.000696697,10,3.97982e-05,-2.74169,0.166993,0.353309,25.018,0.0219559,
2,1,0,1,0,24792.2,0.0237707,0.0234854,1.84948,13,0.000765883,10,4.34359e-05,-2.73295,0.178464,0.3306,23.8441,0.0234854,
2,1,0,1,0,24792.2,0.0252671,0.0249442,1.88354,13,0.000836348,10,4.69835e-05,-2.72502,0.189258,0.311744,22.9457,0.0249442,
2,1,0,1,0,24792.3,0.0267671,0.0264585,1.92729,13,0.000908384,10,5.09933e-05,-2.71505,0.164538,0.35858,26.8545,0.0264585,
2,1,0,1,0,24792.3,0.0282671,0.0279522,1.96482,13,0.000981851,10,5.49212e-05,-2.70668,0.1858,0.317546,24.2594,0.0279522,
2,1,0,1,0,24792.3,0.0297626,0.0294463,1.99638,13,0.00105655,10,5.87861e-05,-2.69976,0.195962,0.301078,23.4276,0.0294463,
2,1,0,1,0,24792.4,0.0312581,0.0309141,2.02862,13,0.00113249,10,6.27129e-05,-2.6928,0.196473,0.300295,23.818,0.0309141,
2,1,0,1,0,24792.4,0.0327616,0.0324641,2.06628,13,0.0012101,10,6.70801e-05,-2.68481,0.2002,0.294705,23.8015,0.0324641,
2,1,0,1,0,24792.4,0.034258,0.0339143,2.09866,13,0.00128875,10,7.11745e-05,-2.67806,0.194158,0.303876,24.9799,0.0339143,
2,1,0,1,0,24792.5,0.0357545,0.0354435,2.14016,13,0.00136877,10,7.58547e-05,-2.66955,0.22082,0.267186,22.2894,0.0354435,
2,1,0,1,0,24792.5,0.0372544,0.03691,2.17849,13,0.0014504,10,8.04081e-05,-2.66184,0.224166,0.263198,22.3367,0.03691,
2,1,0,1,0,24792.6,0.0387544,0.0384289,2.20805,13,0.00153317,10,8.48531e-05,-2.65599,0.202649,0.291144,25.1269,0.0384289,
2,1,0,1,0,24792.6,0.0402508,0.0399438,2.25114,13,0.00161717,10,8.99191e-05,-2.6476,0.215693,0.273537,23.9461,0.0399438,
2,1,0,1,0,24792.6,0.0417472,0.0414164,2.28571,13,0.00170267,10,9.4666e-05,-2.64098,0.223881,0.263532,23.4583,0.0414164,
2,1,0,1,0,24792.7,0.0432472,0.042955,2.32203,13,0.00178967,10,9.97429e-05,-2.63413,0.231575,0.254777,23.073,0.042955,
2,1,0,1,0,24792.7,0.0447472,0.0444109,2.34787,13,0.00187783,10,0.000104271,-2.62933,0.225872,0.26121,24.0142,0.0444109,
2,1,0,1,0,24792.7,0.0462427,0.0459052,2.38854,13,0.00196715,10,0.000109646,-2.62187,0.215548,0.273721,25.519,0.0459052,
2,1,0,1,0,24792.8,0.0477382,0.0474078,2.42656,13,0.00205781,10,0.000115038,-2.61501,0.236719,0.249241,23.5659,0.0474078,
2,1,0,1,0,24792.8,0.0492417,0.0489213,2.45509,13,0.00215029,10,0.000120106,-2.60993,0.26225,0.224976,21.5571,0.0489213,
2,1,0,1,0,24792.9,0.0507381,0.0504381,2.49044,13,0.00224343,10,0.000125613,-2.60372,0.26638,0.221488,21.4914,0.05043808,
2,1,0,1,0,24792.9,0.0522345,0.051908,2.52654,13,0.00233776,10,0.000131147,-2.59747,0.24326,0.242538,23.8575,0.051908,
2,1,0,1,0,24792.9,0.0537345,0.053459,2.56125,13,0.00243367,10,0.000136922,-2.59155,0.255143,0.231243,23.0598,0.053459,
2,1,0,1,0,24793,0.0552345,0.0549527,2.59029,13,0.0025309,10,0.000142344,-2.58665,0.284677,0.207253,20.926,0.0549527,
2,1,0,1,0,24793,0.0567309,0.0564095,2.61344,13,0.00262901,10,0.000147423,-2.58279,0.295978,0.199339,20.4064,0.0564095,
2,1,0,1,0,24793,0.0582273,0.0578782,2.64707,13,0.00272819,10,0.000153208,-2.57723,0.290133,0.203355,21.0771,0.0578782,
2,1,0,1,0,24793.1,0.0597309,0.0594362,2.68504,13,0.00282912,10,0.000159589,-2.57105,0.298691,0.197529,20.6687,0.0594362,
2,1,0,1,0,24793.1,0.0612264,0.0609163,2.71223,13,0.00293072,10,0.000165219,-2.56667,0.343033,0.171995,18.1755,0.0609163,
2,1,0,1,0,24793.2,0.0627219,0.062436,2.74665,13,0.00303342,10,0.00017149,-2.5612,0.34361,0.171706,18.3554,0.062436,
2,1,0,1,0,24793.2,0.0642218,0.0639447,2.77389,13,0.00313731,10,0.000177375,-2.55691,0.335555,0.175828,19.0112,0.06394469,
2,1,0,1,0,24793.2,0.0657218,0.0654077,2.79683,13,0.00324235,10,0.000182934,-2.55333,0.310342,0.190113,20.7547,0.0654077,
2,1,0,1,0,24793.3,0.0672182,0.0669041,2.82873,13,0.00334833,10,0.000189254,-2.54841,0.339874,0.173594,19.1409,0.0669041,
2,1,0,1,0,24793.3,0.0687146,0.0683512,2.85422,13,0.00345535,10,0.000195089,-2.54451,0.408277,0.14451,16.1194,0.0683512,
2,1,0,1,0,24793.3,0.0702146,0.0699055,2.87613,13,0.0035635,10,0.000201057,-2.54119,0.439011,0.134393,15.1229,0.0699055,
2,1,0,1,0,24793.4,0.0717146,0.0714522,2.90419,13,0.00367259,10,0.00020751,-2.53698,0.382362,0.154304,17.4825,0.0714522,
2,1,0,1,0,24793.4,0.073211,0.072894,2.92768,13,0.00378235,10,0.00021341,-2.53348,0.396279,0.148885,17.0194,0.07289397,
2,1,0,1,0,24793.4,0.0747074,0.074415,2.95659,13,0.00389305,10,0.000220015,-2.52921,0.433355,0.136147,15.6598,0.074415,
2,1,0,1,0,24793.5,0.0762109,0.0758939,2.97445,13,0.00400512,10,0.000225743,-2.52659,0.465663,0.126701,14.6979,0.0758939,
2,1,0,1,0,24793.5,0.0777064,0.0773326,2.99876,13,0.00411736,10,0.000231902,-2.52306,0.473282,0.124662,14.5729,0.0773326,
2,1,0,1,0,24793.6,0.079202,0.0788693,3.01628,13,0.00423048,10,0.000237892,-2.52053,0.447516,0.131839,15.5392,0.07886932,
2,1,0,1,0,24793.6,0.0807019,0.0804134,3.03891,13,0.0043448,10,0.000244369,-2.51728,0.529941,0.111333,13.2077,0.0804134,
2,1,0,1,0,24793.6,0.0822019,0.0818855,3.05412,13,0.00445989,10,0.000250088,-2.51511,0.553065,0.106678,12.7598,0.0818855,
2,1,0,1,0,24793.7,0.0836983,0.083383,3.07739,13,0.00457531,10,0.000256602,-2.51182,0.546801,0.1079,12.987,0.083383,
2,1,0,1,0,24793.7,0.0851947,0.0848525,3.1038,13,0.00469161,10,0.000263365,-2.50811,0.464584,0.126995,15.3696,0.0848525,
2,1,0,1,0,24793.7,0.0866947,0.0863815,3.12799,13,0.00480898,10,0.000270201,-2.50473,0.524934,0.112395,13.6896,0.08638148,
2,1,0,1,0,24793.8,0.0881947,0.087855,3.14796,13,0.0049272,10,0.000276564,-2.50197,0.456807,0.129158,15.856,0.087855,
2,1,0,1,0,24793.8,0.0896911,0.0893696,3.17017,13,0.00504582,10,0.000283317,-2.49892,0.452989,0.130246,16.1291,0.0893696,
2,1,0,1,0,24793.9,0.0911875,0.090863,3.19882,13,0.00516553,10,0.000290654,-2.49501,0.350321,0.168417,21.0395,0.090863,
2,1,0,1,0,24793.9,0.0926901,0.0923794,3.23081,13,0.00528706,10,0.00029846,-2.49069,0.333169,0.177087,22.3262,0.0923794,
2,1,0,1,0,24793.9,0.0941856,0.093875,3.25669,13,0.00540907,10,0.000305722,-2.48722,0.362083,0.162946,20.7496,0.093875,
2,1,0,1,0,24794,0.0956821,0.0953475,3.29056,13,0.00553218,10,0.000313746,-2.48273,0.315695,0.18689,24.0504,0.0953475,
2,1,0,1,0,24794,0.097182,0.0968661,3.32699,13,0.00565699,10,0.000322273,-2.47795,0.270266,0.218304,28.3764,0.0968661,
2,1,0,1,0,24794,0.098682,0.098366,3.37511,13,0.00578333,10,0.000331996,-2.47171,0.247756,0.238138,31.3567,0.098366,
2,1,0,1,0,24794.1,0.100178,0.0998739,3.42157,13,0.00591103,10,0.000341726,-2.46577,0.260376,0.226596,30.22,0.0998739,
2,1,0,1,0,24794.1,0.101675,0.101359,3.46538,13,0.00604051,10,0.000351248,-2.46025,0.241278,0.244531,33.1369,0.1013593,
2,1,0,1,0,24794.2,0.103175,0.102877,3.52062,13,0.00617215,10,0.000362192,-2.45338,0.211264,0.279272,38.4536,0.102877,
2,1,0,1,0,24794.2,0.104675,0.104351,3.58106,13,0.00630597,10,0.000373689,-2.44599,0.211952,0.278364,38.9429,0.1043514,
2,1,0,1,0,24794.2,0.106171,0.105807,3.64203,13,0.00644173,10,0.000385352,-2.43866,0.201989,0.292094,41.5011,0.105807,
2,1,0,1,0,24794.3,0.107667,0.10734,3.69923,13,0.00657971,10,0.000397075,-2.43189,0.219032,0.269367,38.9194,0.10734,
2,1,0,1,0,24794.3,0.10917,0.108875,3.76211,13,0.00672059,10,0.0004096,-2.42457,0.211823,0.278534,40.8791,0.1088751,
2,1,0,1,0,24794.3,0.110666,0.110354,3.82658,13,0.00686309,10,0.000422278,-2.41719,0.212516,0.277627,41.3582,0.110354,
2,1,0,1,0,24794.4,0.112162,0.111828,3.88494,13,0.0070079,10,0.000434444,-2.41062,0.239409,0.24644,37.2878,0.111828,
2,1,0,1,0,24794.4,0.113662,0.113378,3.93891,13,0.00715529,10,0.000446586,-2.40462,0.246584,0.239269,36.7686,0.113378,
2,1,0,1,0,24794.5,0.115162,0.114806,3.98914,13,0.00730463,10,0.000457978,-2.39912,0.256373,0.230134,35.8408,0.114806,
2,1,0,1,0,24794.5,0.116658,0.11634,4.03895,13,0.0074556,10,0.000469889,-2.39373,0.276267,0.213561,33.7108,0.1163396,
2,1,0,1,0,24794.5,0.118155,0.117859,4.09468,13,0.00760857,10,0.000482595,-2.38778,0.298697,0.197525,31.5402,0.117859,
2,1,0,1,0,24794.6,0.119655,0.119359,4.13855,13,0.00776365,10,0.000493974,-2.38315,0.36622,0.161105,25.9986,0.119359,
2,1,0,1,0,24794.6,0.121155,0.12082,4.17514,13,0.00792014,10,0.000504442,-2.37933,0.39939,0.147725,24.0611,0.12082,
2,1,0,1,0,24794.6,0.122651,0.122352,4.21888,13,0.00807762,10,0.000516187,-2.3748,0.418541,0.140966,23.1356,0.122352,
2,1,0,1,0,24794.7,0.124147,0.123856,4.25077,13,0.00823645,10,0.000526484,-2.37153,0.440152,0.134045,22.1806,0.123856,
2,1,0,1,0,24794.7,0.12565,0.125301,4.27539,13,0.00839731,10,0.000535713,-2.36902,0.528384,0.111661,18.6129,0.125301,
2,1,0,1,0,24794.8,0.127146,0.126829,4.291,13,0.00855838,10,0.000544225,-2.36744,0.525378,0.1123,18.8541,0.126829,
2,1,0,1,0,24794.8,0.128642,0.128309,4.32144,13,0.00872032,10,0.000554478,-2.36437,0.567366,0.103989,17.5889,0.128309,
2,1,0,1,0,24794.8,0.130142,0.129831,4.35582,13,0.0088838,10,0.000565521,-2.36093,0.586381,0.100617,17.1021,0.129831,
2,1,0,1,0,24794.9,0.131642,0.131298,4.37935,13,0.00904834,10,0.000574998,-2.35859,0.78518,0.075142,12.828,0.131298,
2,1,0,1,0,24794.9,0.133139,0.132845,4.4052,13,0.00921325,10,0.00058521,-2.35603,0.83235,0.0708836,12.1633,0.132845,
2,1,0,1,0,24794.9,0.134635,0.134334,4.42104,13,0.00937872,10,0.000593896,-2.35448,0.949982,0.0621064,10.7032,0.134334,
2,1,0,1,0,24795,0.136135,0.135834,4.43749,13,0.00954537,10,0.000602761,-2.35286,1.01059,0.0583816,10.0841,0.135834,
2,1,0,1,0,24795,0.137635,0.137323,4.44401,13,0.00971252,10,0.000610266,-2.35223,4.1384,0.0142567,2.46827,0.137323,
2,1,0,1,0,24795.1,0.13913,0.138798,4.4473,13,0.00987949,10,0.000617274,-2.3519,-2.49265,-0.0236696,-4.0961,0.138798,
2,1,0,1,0,24795.1,0.140626,0.140284,4.42815,13,0.0100461,10,0.0006212,-2.35378,-0.701779,-0.0840721,-14.5097,0.140284,
2,1,0,1,0,24795.1,0.14213,0.141819,4.40115,13,0.0102129,10,0.000624167,-2.35643,-0.465129,-0.126847,-21.7286,0.141819,
2,1,0,1,0,24795.2,0.143626,0.143295,4.3654,13,0.0103776,10,0.000625541,-2.35998,-0.292008,-0.202049,-34.2602,0.143295,
2,1,0,1,0,24795.2,0.145122,0.144805,4.30586,13,0.0105404,10,0.000623512,-2.36594,-0.198042,-0.297916,-49.771,0.144805,
2,1,0,1,0,24795.2,0.146622,0.146274,4.21991,13,0.0107009,10,0.000617262,-2.3747,-0.158549,-0.372125,-60.9797,0.146274,
2,1,0,1,0,24795.3,0.148122,0.147827,4.11893,13,0.0108578,10,0.00060889,-2.38522,-0.129825,-0.454457,-72.6702,0.147827,
2,1,0,1,0,24795.3,0.149619,0.149298,3.9965,13,0.0110102,10,0.000596668,-2.39832,-0.108832,-0.542118,-84.2653,0.149298,
2,1,0,1,0,24795.4,0.151115,0.150755,3.86151,13,0.0111578,10,0.000582143,-2.41324,-0.0928079,-0.635722,-95.366,0.150755,
2,1,0,1,0,24795.4,0.152615,0.15234,3.70807,13,0.0113005,10,0.000564887,-2.43085,-0.0847684,-0.696014,-100.764,0.15234,
2,1,0,1,0,24795.4,0.154115,0.153812,3.56044,13,0.0114375,10,0.000547638,-2.4485,-0.079922,-0.73822,-102.578,0.153812,
2,1,0,1,0,24795.5,0.155611,0.155315,3.40903,13,0.0115684,10,0.000529473,-2.46737,-0.0781349,-0.755104,-100.418,0.155315,
2,1,0,1,0,24795.5,0.157106,0.156793,3.26094,13,0.0116937,10,0.000511294,-2.48666,-0.0759853,-0.776466,-98.6052,0.156793,
2,1,0,1,0,24795.5,0.15861,0.158253,3.11248,13,0.0118141,10,0.000492561,-2.50689,-0.0762289,-0.773984,-94.0813,0.158253,
2,1,0,1,0,24795.6,0.160106,0.1598,2.9782,13,0.0119284,10,0.000475917,-2.52605,-0.0793295,-0.743734,-86.6196,0.1598,
2,1,0,1,0,24795.6,0.161602,0.161274,2.85453,13,0.012038,10,0.00046036,-2.54447,-0.0843803,-0.699216,-78.0138,0.161274,
2,1,0,1,0,24795.7,0.163102,0.162789,2.74488,13,0.0121436,10,0.000446837,-2.56148,-0.0901281,-0.654624,-70.3252,0.162789,
2,1,0,1,0,24795.7,0.164602,0.164288,2.64258,13,0.0122452,10,0.000434144,-2.57797,-0.09569,-0.616574,-63.8283,0.164288,
2,1,0,1,0,24795.7,0.166099,0.165772,2.54928,13,0.0123429,10,0.0004226,-2.59358,-0.101438,-0.581634,-58.1185,0.165772,
2,1,0,1,0,24795.8,0.167595,0.167279,2.47545,13,0.0124374,10,0.000414091,-2.60635,-0.113438,-0.520108,-50.3251,0.167279,
2,1,0,1,0,24795.8,0.169095,0.168784,2.40549,13,0.0125295,10,0.000406007,-2.6188,-0.131449,-0.448844,-42.1785,0.168784,
2,1,0,1,0,24795.8,0.170595,0.170284,2.3445,13,0.0126191,10,0.000399231,-2.62995,-0.128042,-0.460786,-42.1082,0.170284,
2,1,0,1,0,24795.9,0.172091,0.171753,2.28173,13,0.0127061,10,0.000391893,-2.64174,-0.148542,-0.397193,-35.441,0.171753,
2,1,0,1,0,24795.9,0.173586,0.173282,2.23161,13,0.0127911,10,0.000386698,-2.65138,-0.162103,-0.363967,-31.7559,0.173282,
2,1,0,1,0,24796,0.17509,0.174798,2.18567,13,0.0128749,10,0.000382049,-2.66042,-0.181569,-0.324945,-27.8175,0.174798,
2,1,0,1,0,24796,0.176586,0.176298,2.1477,13,0.0129566,10,0.000378635,-2.66803,-0.182765,-0.322818,-27.0826,0.176298,
2,1,0,1,0,24796,0.178083,0.177821,2.1115,13,0.0130369,10,0.000375467,-2.67541,-0.20272,-0.291041,-24.0465,0.177821,
2,1,0,1,0,24796.1,0.179582,0.179294,2.07688,13,0.0131161,10,0.000372372,-2.68259,-0.247316,-0.238561,-19.3965,0.179294,
2,1,0,1,0,24796.1,0.181082,0.180789,2.05741,13,0.0131941,10,0.000371958,-2.68668,-0.274154,-0.215207,-17.2372,0.180789,
2,1,0,1,0,24796.1,0.182579,0.182286,2.02926,13,0.0132711,10,0.000369906,-2.69266,-0.266653,-0.221261,-17.4814,0.182286,
2,1,0,1,0,24796.2,0.184075,0.183785,2.00726,13,0.0133471,10,0.000368906,-2.6974,-0.304707,-0.193629,-15.1327,0.1837855,
2,1,0,1,0,24796.2,0.185579,0.18532,1.98141,13,0.0134225,10,0.000367195,-2.70303,-0.349826,-0.168655,-13.0569,0.1853198,
2,1,0,1,0,24796.3,0.187074,0.186776,1.96106,13,0.0134969,10,0.000366279,-2.70751,-0.416046,-0.141811,-10.8729,0.186776,
2,1,0,1,0,24796.3,0.18857,0.188232,1.94224,13,0.0135707,10,0.000365593,-2.7117,-0.416046,-0.141811,-10.7833,0.188232,
2,1,0,1,0,24796.3,0.19007,0.189752,1.93053,13,0.013644,10,0.000366321,-2.71432,-0.401517,-0.146943,-11.0848,0.189752,
2,1,0,1,0,24796.4,0.19157,0.191263,1.91008,13,0.0137167,10,0.000365328,-2.71895,-0.465626,-0.126711,-9.48272,0.191263,
2,1,0,1,0,24796.4,0.193066,0.192736,1.89945,13,0.0137886,10,0.000366092,-2.72137,-0.67768,-0.0870617,-6.46656,0.192736,
2,1,0,1,0,24796.4,0.194563,0.194274,1.89556,13,0.0138602,10,0.000368258,-2.72226,-0.494752,-0.119252,-8.78057,0.194274,
2,1,0,1,0,24796.5,0.196063,0.195748,1.88173,13,0.0139316,10,0.000368345,-2.72544,-0.497235,-0.118656,-8.71417,0.195748,
2,1,0,1,0,24796.5,0.197563,0.1972,1.86799,13,0.0140025,10,0.000368366,-2.72863,-0.589803,-0.100033,-7.30385,0.1972,
2,1,0,1,0,24796.6,0.199059,0.198774,1.85198,13,0.0140728,10,0.000368126,-2.73236,-0.622667,-0.0947536,-6.88391,0.198774,
2,1,0,1,0,24796.6,0.200555,0.20025,1.85158,13,0.0141428,10,0.000370779,-2.73246,-0.746813,-0.0790023,-5.71107,0.20025,
2,1,0,1,0,24796.6,0.202059,0.201718,1.84277,13,0.0142129,10,0.000371719,-2.73453,-0.647525,-0.0911161,-6.54409,0.201718,
2,1,0,1,0,24796.7,0.203554,0.203233,1.8331,13,0.0142823,10,0.000372546,-2.73681,-0.794707,-0.0742412,-5.31517,0.203233,
2,1,0,1,0,24796.7,0.20505,0.204729,1.82618,13,0.0143513,10,0.000373872,-2.73846,-1.32736,-0.0444493,-3.17386,0.204729,
2,1,0,1,0,24796.7,0.20655,0.206203,1.82135,13,0.0144202,10,0.000375567,-2.73961,-1.26954,-0.0464735,-3.29767,0.206203,
2,1,0,1,0,24796.8,0.20805,0.207762,1.81731,13,0.0144892,10,0.000377568,-2.74057,-0.947362,-0.0622782,-4.40487,0.207762,
2,1,0,1,0,24796.8,0.209546,0.209245,1.80929,13,0.0145577,10,0.000378584,-2.74249,-0.792953,-0.0744054,-5.25502,0.209245,
2,1,0,1,0,24796.9,0.211043,0.210713,1.79946,13,0.0146257,10,0.00037917,-2.74486,-0.735403,-0.0802282,-5.64881,0.210713,
2,1,0,1,0,24796.9,0.212543,0.212239,1.79311,13,0.0146938,10,0.000380568,-2.74639,-1.09003,-0.0541271,-3.7955,0.2122394,
2,1,0,1,0,24796.9,0.214043,0.213705,1.79358,13,0.0147617,10,0.000383297,-2.74628,-1.28255,-0.0460019,-3.21659,0.213705,
2,1,0,1,0,24797,0.215539,0.215231,1.78681,13,0.0148292,10,0.000384578,-2.74792,-1.19087,-0.0495435,-3.45325,0.215231,
2,1,0,1,0,24797,0.217035,0.216711,1.77984,13,0.0148965,10,0.00038571,-2.74962,-1.07575,-0.0548455,-3.80941,0.216711,
2,1,0,1,0,24797,0.218538,0.218206,1.78068,13,0.0149639,10,0.000388555,-2.74941,-2.49756,-0.023623,-1.63451,0.2182059,
2,1,0,1,0,24797.1,0.220034,0.219747,1.77485,13,0.0150309,10,0.000390016,-2.75084,-2.03778,-0.028953,-2.00013,0.2197465,
2,1,0,1,0,24797.1,0.22153,0.221207,1.76733,13,0.0150978,10,0.000390946,-2.75268,-1.18198,-0.0499162,-3.44518,0.221207,
2,1,0,1,0,24797.2,0.22303,0.222722,1.75673,13,0.0151646,10,0.000391263,-2.7553,-1.78131,-0.0331217,-2.28242,0.222722,
2,1,0,1,0,24797.2,0.22453,0.224259,1.7549,13,0.0152312,10,0.000393553,-2.75575,-1.06948,-0.0551668,-3.79665,0.224259,
2,1,0,1,0,24797.2,0.226026,0.225748,1.75194,13,0.0152976,10,0.000395497,-2.75648,-1.42056,-0.041533,-2.84945,0.225748,
2,1,0,1,0,24797.3,0.227523,0.227244,1.7533,13,0.0153639,10,0.000398428,-2.75614,-1.29496,-0.0455611,-3.11222,0.227244,
2,1,0,1,0,24797.3,0.229023,0.22868,1.75184,13,0.0154301,10,0.000400611,-2.75651,-1.60789,-0.0366941,-2.50103,0.2286801,
2,1,0,1,0,24797.3,0.230523,0.230242,1.74843,13,0.0154962,10,0.000402562,-2.75735,-2.44403,-0.0241404,-1.64392,0.230242,
2,1,0,1,0,24797.4,0.232019,0.231726,1.74394,13,0.015562,10,0.000404116,-2.75847,-2.54735,-0.0231614,-1.57316,0.231726,
2,1,0,1,0,24797.4,0.233515,0.233184,1.73901,13,0.0156278,10,0.000405508,-2.7597,-1.78311,-0.0330883,-2.24267,0.233184,
2,1,0,1,0,24797.5,0.235018,0.234727,1.73433,13,0.0156938,10,0.000407094,-2.76087,-1.35146,-0.0436565,-2.96268,0.234727,
2,1,0,1,0,24797.5,0.236514,0.236228,1.72614,13,0.0157592,10,0.000407763,-2.76292,-1.46042,-0.0403993,-2.73533,0.236228,
2,1,0,1,0,24797.5,0.23801,0.237674,1.72873,13,0.0158245,10,0.000410875,-2.76227,-7.65377,-0.00770861,-0.519751,0.237674,
2,1,0,1,0,24797.6,0.23951,0.239201,1.72814,13,0.0158899,10,0.000413374,-2.76242,-1.56631,-0.037668,-2.5365,0.239201,
2,1,0,1,0,24797.6,0.24101,0.240708,1.72421,13,0.0159552,10,0.000415031,-2.76341,-1.87253,-0.0315082,-2.11491,0.240708,
2,1,0,1,0,24797.6,0.242506,0.242184,1.71789,13,0.0160202,10,0.000416047,-2.765,-4.66162,-0.0126565,-0.847963,0.242184,
2,1,0,1,0,24797.7,0.244003,0.243696,1.71637,13,0.0160851,10,0.000418272,-2.76539,-4.26247,-0.0138417,-0.926639,0.2436958,
2,1,0,1,0,24797.7,0.245503,0.245224,1.71985,13,0.0161501,10,0.000421749,-2.76451,-2.1553,-0.0273744,-1.83107,0.245224,
2,1,0,1,0,24797.8,0.247003,0.246619,1.70924,13,0.016215,10,0.000421532,-2.7672,-1.39547,-0.0422797,-2.8264,0.246619,
2,1,0,1,0,24797.8,0.248499,0.24822,1.69971,13,0.0162796,10,0.000421903,-2.76962,-2.41222,-0.0244588,-1.63169,0.24822,
2,1,0,1,0,24797.8,0.249995,0.249706,1.70541,13,0.016344,10,0.000425853,-2.76817,-2.13721,-0.0276061,-1.83986,0.249706,
2,1,0,1,0,24797.9,0.251498,0.251152,1.70413,13,0.0164087,10,0.000427997,-2.7685,-2.16436,-0.0272598,-1.81034,0.251152,
2,1,0,1,0,24797.9,0.252994,0.252702,1.70102,13,0.0164731,10,0.000429852,-2.76929,-1.55956,-0.0378313,-2.5039,0.252702,
2,1,0,1,0,24797.9,0.25449,0.2542,1.6982,13,0.0165373,10,0.000431684,-2.77001,-1.91555,-0.0308006,-2.0386,0.2542,
2,1,0,1,0,24798,0.25599,0.25569,1.69347,13,0.0166014,10,0.000433002,-2.77122,-2.58737,-0.0228031,-1.50813,0.25569,
2,1,0,1,0,24798,0.25749,0.257152,1.68781,13,0.0166655,10,0.000434024,-2.77268,-3.31934,-0.0177746,-1.17337,0.257152,
2,1,0,1,0,24798.1,0.258987,0.258663,1.68923,13,0.0167295,10,0.000436943,-2.77231,-6.33013,-0.00932051,-0.615141,0.258663,
2,1,0,1,0,24798.1,0.260483,0.260186,1.68612,13,0.0167933,10,0.000438704,-2.77311,-1.38873,-0.0424849,-2.80381,0.260186,
2,1,0,1,0,24798.1,0.261983,0.261652,1.68363,13,0.0168571,10,0.000440525,-2.77375,-2.84623,-0.0207292,-1.36339,0.261652,
2,1,0,1,0,24798.2,0.263483,0.263133,1.68409,13,0.0169208,10,0.00044314,-2.77364,-9.23414,-0.00638933,-0.418733,0.263133,
2,1,0,1,0,24798.2,0.264978,0.264695,1.68104,13,0.0169843,10,0.000444964,-2.77442,-4.31091,-0.0136862,-0.895762,0.264695,
2,1,0,1,0,24798.2,0.266474,0.266155,1.67671,13,0.0170477,10,0.000446265,-2.77554,-1.44392,-0.0408608,-2.66999,0.266155,
2,1,0,1,0,24798.3,0.267977,0.267689,1.66973,13,0.0171113,10,0.000446969,-2.77735,-3.10168,-0.0190219,-1.24215,0.267689,
2,1,0,1,0,24798.3,0.269474,0.269181,1.66948,13,0.0171744,10,0.000449392,-2.77742,-3.25344,-0.0181346,-1.18377,0.269181,
2,1,0,1,0,24798.4,0.27097,0.27065,1.66739,13,0.0172375,10,0.000451279,-2.77796,-2.74721,-0.0214763,-1.40186,0.27065,
2,1,0,1,0,24798.4,0.27247,0.272165,1.66462,13,0.0173007,10,0.000453052,-2.77868,-1.3708,-0.0430404,-2.79528,0.272165,
2,1,0,1,0,24798.4,0.27397,0.273675,1.6588,13,0.0173637,10,0.000453972,-2.78021,-2.03809,-0.0289487,-1.88079,0.273675,
2,1,0,1,0,24798.5,0.275467,0.275119,1.65872,13,0.0174264,10,0.000456346,-2.78023,-1.68664,-0.0349808,-2.26744,0.275119,
2,1,0,1,0,24798.5,0.276963,0.276664,1.65833,13,0.0174891,10,0.0004588,-2.78033,-5.39549,-0.0109351,-0.705719,0.276664,
2,1,0,1,0,24798.5,0.278463,0.278128,1.65622,13,0.0175518,10,0.000460642,-2.78088,-2.02083,-0.029196,-1.87805,0.278128,
2,1,0,1,0,24798.6,0.279963,0.279673,1.65587,13,0.0176144,10,0.000463103,-2.78097,-1.63133,-0.0361669,-2.33217,0.279673,
2,1,0,1,0,24798.6,0.281459,0.281161,1.64585,13,0.0176767,10,0.000462749,-2.78361,-1.51325,-0.0389888,-2.50791,0.281161,
2,1,0,1,0,24798.7,0.282954,0.282661,1.64184,13,0.0177388,10,0.000464085,-2.78467,-5.34708,-0.0110341,-0.708543,0.282661,
2,1,0,1,0,24798.7,0.284458,0.28415,1.64171,13,0.0178013,10,0.000466493,-2.7847,-4.5857,-0.0128661,-0.824682,0.28415,
2,1,0,1,0,24798.7,0.285954,0.285634,1.63887,13,0.0178633,10,0.000468117,-2.78546,-1.24964,-0.0472137,-3.02048,0.285634,
2,1,0,1,0,24798.8,0.28745,0.287137,1.6347,13,0.0179251,10,0.000469384,-2.78656,-1.47874,-0.0398987,-2.54698,0.287137,
2,1,0,1,0,24798.8,0.28895,0.288643,1.63472,13,0.017987,10,0.000471851,-2.78656,-5.04423,-0.0116965,-0.743419,0.288643,
2,1,0,1,0,24798.8,0.29045,0.290151,1.63058,13,0.0180488,10,0.000473115,-2.78766,-1.97614,-0.0298561,-1.89499,0.290151,
2,1,0,1,0,24798.9,0.291947,0.291627,1.6278,13,0.0181103,10,0.000474711,-2.7884,-0.908899,-0.0649137,-4.1118,0.291627,
2,1,0,1,0,24798.9,0.293443,0.293138,1.6186,13,0.0181716,10,0.000474474,-2.79086,-1.14489,-0.0515332,-3.26226,0.293138,
2,1,0,1,0,24799,0.294943,0.294605,1.61667,13,0.018233,10,0.000476279,-2.79138,-1.96503,-0.030025,-1.89809,0.294605,
2,1,0,1,0,24799,0.296443,0.296138,1.62092,13,0.0182942,10,0.000480017,-2.79024,-6.58602,-0.00895838,-0.564825,0.296138,
2,1,0,1,0,24799,0.297939,0.297656,1.61308,13,0.0183553,10,0.000480143,-2.79234,-1.59254,-0.0370477,-2.32624,0.297656,
2,1,0,1,0,24799.1,0.299434,0.299133,1.61187,13,0.0184162,10,0.000482165,-2.79267,-0.0137983,-4.2759,-225.031,0.299133,
2,1,0,0,0,24799.1,0.299962,0.299651,1.54093,13,0.0184402,10,0.000461742,-2.81222,0.000784198,75.2361,1877.36,0.299651,
2,1,0,1,0,24799.1,0.298689,0.298372,0.356016,13,0.0184648,10,0.000106225,-3.44853,0.00314309,18.7714,534.187,0.298372,
2,0,0,1,0,24799.2,0.297189,0.296829,-0.0723494,13,0.0184682,10,-2.14754e-05,-4.14056,0.0119117,4.95313,235.563,0.296829,
2,0,0,1,0,24799.2,0.295692,0.2954,-0.260488,13,0.0184609,10,-7.69483e-05,-3.58421,-0.00352066,-16.7582,102.832,0.2954,
2,0,0,1,0,24799.2,0.294196,0.293891,-0.361408,13,0.0184484,10,-0.000106215,-3.442,-0.0123489,-4.77774,59.0907,0.293891,
2,0,0,1,0,24799.3,0.292696,0.292394,-0.427516,13,0.0184328,10,-0.000125003,-3.36905,-0.0230425,-2.56048,41.3154,0.292394,
2,0,0,1,0,24799.3,0.291196,0.290869,-0.483868,13,0.018415,10,-0.000140742,-3.31527,-0.032772,-1.80032,33.2706,0.290869,
2,0,0,1,0,24799.3,0.2897,0.289428,-0.528882,13,0.0183954,10,-0.000153073,-3.27664,-0.0434233,-1.35872,27.4633,0.289428,
2,0,0,1,0,24799.4,0.288205,0.28788,-0.567776,13,0.0183742,10,-0.000163451,-3.24582,-0.0546235,-1.08012,23.4808,0.28788,
2,0,0,1,0,24799.4,0.286701,0.286377,-0.59285,13,0.0183516,10,-0.000169778,-3.22706,-0.0636705,-0.926645,21.3291,0.286377,
2,0,0,1,0,24799.5,0.285205,0.284928,-0.62531,13,0.0183281,10,-0.000178168,-3.2039,-0.0784457,-0.752113,18.3042,0.284928,
2,0,0,1,0,24799.5,0.283708,0.283355,-0.654663,13,0.0183035,10,-0.000185502,-3.18398,-0.082811,-0.712466,18.1101,0.283355,
2,0,0,1,0,24799.5,0.282208,0.281893,-0.675101,13,0.0182778,10,-0.000190306,-3.17063,-0.110861,-0.532198,14.0151,0.281893,
2,0,0,1,0,24799.6,0.280709,0.28041,-0.699339,13,0.0182512,10,-0.000196101,-3.15531,-0.117428,-0.502435,13.7257,0.28041,
2,0,0,1,0,24799.6,0.279212,0.278874,-0.721606,13,0.018224,10,-0.000201237,-3.1417,-0.12918,-0.456728,12.8654,0.278874,
2,0,0,1,0,24799.6,0.277716,0.277399,-0.745823,13,0.0181959,10,-0.000206891,-3.12736,-0.116671,-0.505696,14.5869,0.277399,
2,0,0,1,0,24799.7,0.276216,0.275896,-0.765145,13,0.018167,10,-0.000211101,-3.11626,-0.149866,-0.393685,11.6462,0.275896,
2,0,0,1,0,24799.7,0.274716,0.274373,-0.785195,13,0.0181374,10,-0.000215436,-3.10502,-0.163715,-0.360381,10.888,0.2743727,
2,0,0,1,0,24799.8,0.27322,0.272924,-0.796839,13,0.0181073,10,-0.000217477,-3.09863,-0.153627,-0.384047,11.8919,0.2729241,
2,0,0,1,0,24799.8,0.271725,0.271353,-0.808272,13,0.0180766,10,-0.000219327,-3.09244,-0.140502,-0.419924,13.3083,0.271353,
2,0,0,1,0,24799.8,0.270221,0.269928,-0.82965,13,0.0180449,10,-0.000223946,-3.08111,-0.179585,-0.328536,10.6602,0.269928,
2,0,0,1,0,24799.9,0.268725,0.26842,-0.842122,13,0.0180128,10,-0.000226043,-3.07462,-0.187778,-0.3142,10.3868,0.26842,
2,0,0,1,0,24799.9,0.267228,0.26692,-0.854504,13,0.0179803,10,-0.000228084,-3.06829,-0.206214,-0.28611,9.57054,0.2669203,
2,0,0,1,0,24799.9,0.265728,0.265394,-0.873658,13,0.0179472,10,-0.000231863,-3.05866,-0.200695,-0.293979,9.9977,0.2653937,
2,0,0,1,0,24800,0.264228,0.263955,-0.887784,13,0.0179135,10,-0.000234335,-3.05169,-0.202731,-0.291026,10.0478,0.263955,
2,0,0,1,0,24800,0.262732,0.262422,-0.904627,13,0.0178793,10,-0.000237394,-3.04353,-0.272223,-0.216734,7.57307,0.262422,
2,0,0,1,0,24800.1,0.261236,0.260869,-0.91522,13,0.0178447,10,-0.000238753,-3.03847,-0.269792,-0.218687,7.76722,0.260869,
2,0,0,1,0,24800.1,0.259736,0.259446,-0.928185,13,0.0178096,10,-0.000240814,-3.03237,-0.261911,-0.225267,8.14798,0.259446,
2,0,0,1,0,24800.1,0.258236,0.257935,-0.93253,13,0.017774,10,-0.000240533,-3.03034,-0.241488,-0.244318,8.9547,0.257935,
2,0,0,1,0,24800.2,0.256741,0.256427,-0.947776,13,0.0177379,10,-0.000243035,-3.02329,-0.309078,-0.190891,7.09343,0.256427,
2,0,0,1,0,24800.2,0.255241,0.254939,-0.960071,13,0.0177013,10,-0.000244759,-3.0177,-0.344013,-0.171505,6.43993,0.254939,
2,0,0,1,0,24800.2,0.253741,0.253402,-0.972756,13,0.0176644,10,-0.000246498,-3.012,-0.2895,-0.2038,7.74048,0.2534022,
2,0,0,1,0,24800.3,0.252245,0.251919,-0.988903,13,0.0176271,10,-0.000249123,-3.00485,-0.275117,-0.214454,8.22068,0.251919,
2,0,0,1,0,24800.3,0.250748,0.250374,-1,13,0.0175893,10,-0.000250374,-3,-0.273647,-0.215606,8.35017,0.250374,
2,0,0,1,0,24800.4,0.249248,0.248937,-1.00743,13,0.017551,10,-0.000250786,-2.99679,-0.325939,-0.181016,7.10162,0.248937,
2,0,0,1,0,24800.4,0.247748,0.247414,-1.01445,13,0.0175124,10,-0.000250989,-2.99377,-0.335794,-0.175703,7.0005,0.247414,
2,0,0,1,0,24800.4,0.246252,0.245971,-1.02394,13,0.0174735,10,-0.00025186,-2.98973,-0.275594,-0.214083,8.59485,0.245971,
2,0,0,1,0,24800.5,0.244756,0.244468,-1.0391,13,0.0174341,10,-0.000254028,-2.98334,-0.297233,-0.198497,8.0697,0.244468,
2,0,0,1,0,24800.5,0.243252,0.24295,-1.0489,13,0.0173941,10,-0.000254829,-2.97927,-0.376407,-0.156745,6.4123,0.2429502,
2,0,0,1,0,24800.5,0.241756,0.241408,-1.05441,13,0.017354,10,-0.000254543,-2.97699,-0.417963,-0.141161,5.83741,0.241408,
2,0,0,1,0,24800.6,0.240261,0.23991,-1.07164,13,0.0173135,10,-0.000257097,-2.96995,-0.328012,-0.179871,7.48322,0.23991,
2,0,0,1,0,24800.6,0.238761,0.238447,-1.08458,13,0.0172725,10,-0.000258615,-2.96474,-0.419828,-0.140534,5.90153,0.238447,
2,0,0,1,0,24800.7,0.237261,0.236943,-1.09388,13,0.0172311,10,-0.000259188,-2.96103,-0.410159,-0.143847,6.09964,0.236943,
2,0,0,1,0,24800.7,0.235765,0.23545,-1.09456,13,0.0171895,10,-0.000257714,-2.96076,-0.506185,-0.116558,4.99512,0.23545,
2,0,0,1,0,24800.7,0.234268,0.233952,-1.10285,13,0.0171476,10,-0.000258015,-2.95748,-0.429719,-0.137299,5.97066,0.233952,
2,0,0,1,0,24800.8,0.232768,0.232473,-1.11475,13,0.0171052,10,-0.000259149,-2.95282,-0.337595,-0.174766,7.64675,0.232473,
2,0,0,1,0,24800.8,0.231268,0.230973,-1.12589,13,0.0170623,10,-0.000260049,-2.94851,-0.508047,-0.116131,5.11366,0.230973,
2,0,0,1,0,24800.8,0.229772,0.229461,-1.1375,13,0.0170193,10,-0.000261013,-2.94405,-0.520691,-0.113311,5.02138,0.229461,
2,0,0,1,0,24800.9,0.228275,0.227982,-1.14699,13,0.016976,10,-0.000261493,-2.94044,-0.443012,-0.133179,5.9401,0.227982,
2,0,0,1,0,24800.9,0.226772,0.226467,-1.16232,13,0.016932,10,-0.000263227,-2.93468,-0.341247,-0.172895,7.75653,0.226467,
2,0,0,1,0,24801,0.225276,0.224967,-1.16379,13,0.016888,10,-0.000261813,-2.93413,-0.419942,-0.140496,6.3827,0.224967,
2,0,0,1,0,24801,0.223781,0.223467,-1.17241,13,0.0168435,10,-0.000261996,-2.93092,-0.485617,-0.121495,5.56941,0.223467,
2,0,0,1,0,24801,0.222281,0.221991,-1.17268,13,0.0167987,10,-0.000260325,-2.93082,-0.539585,-0.109343,5.07214,0.221991,
2,0,0,1,0,24801.1,0.220781,0.220454,-1.19244,13,0.0167535,10,-0.000262879,-2.92356,-0.367727,-0.160445,7.47012,0.220454,
2,0,0,1,0,24801.1,0.219284,0.218973,-1.20355,13,0.0167081,10,-0.000263545,-2.91954,-0.495706,-0.119022,5.57591,0.218973,
2,0,0,1,0,24801.1,0.217788,0.217461,-1.21127,13,0.0166622,10,-0.000263404,-2.91676,-0.477523,-0.123554,5.81323,0.2174606,
2,0,0,1,0,24801.2,0.216288,0.215959,-1.21745,13,0.016616,10,-0.000262919,-2.91455,-0.552006,-0.106883,5.07534,0.215959,
2,0,0,1,0,24801.2,0.214788,0.214464,-1.23053,13,0.0165695,10,-0.000263905,-2.90991,-0.440003,-0.13409,6.41954,0.214464,
2,0,0,1,0,24801.2,0.213292,0.212973,-1.23983,13,0.0165227,10,-0.00026405,-2.90664,-0.421115,-0.140104,6.75372,0.212973,
2,0,0,1,0,24801.3,0.211796,0.211481,-1.24689,13,0.0164755,10,-0.000263693,-2.90417,-0.52157,-0.11312,5.49322,0.211481,
2,0,0,1,0,24801.3,0.210293,0.209992,-1.25657,13,0.0164278,10,-0.000263869,-2.90081,-0.471932,-0.125018,6.13014,0.209992,
2,0,0,1,0,24801.4,0.208797,0.208476,-1.2591,13,0.0163801,10,-0.000262491,-2.89994,-0.381318,-0.154727,7.69119,0.208476,
2,0,0,1,0,24801.4,0.207301,0.206994,-1.27641,13,0.016332,10,-0.000264208,-2.89401,-0.385562,-0.153024,7.60362,0.206994,
2,0,0,1,0,24801.4,0.205801,0.205451,-1.28771,13,0.0162832,10,-0.00026456,-2.89018,-0.423959,-0.139164,6.95065,0.205451,
2,0,0,1,0,24801.5,0.204301,0.203959,-1.29573,13,0.0162341,10,-0.000264275,-2.88749,-0.61587,-0.0957995,4.8314,0.203959,
2,0,0,1,0,24801.5,0.202804,0.202482,-1.30295,13,0.0161849,10,-0.000263824,-2.88507,-0.511914,-0.115254,5.84112,0.202482,
2,0,0,1,0,24801.5,0.201308,0.200974,-1.31118,13,0.0161354,10,-0.000263512,-2.88234,-0.37962,-0.155418,7.94107,0.200974,
2,0,0,1,0,24801.6,0.199808,0.199491,-1.31878,13,0.0160853,10,-0.000263084,-2.87983,-0.417681,-0.141256,7.29543,0.199491,
2,0,0,1,0,24801.6,0.198308,0.197978,-1.32903,13,0.0160348,10,-0.00026312,-2.87646,-0.472357,-0.124906,6.50279,0.197978,
2,0,0,1,0,24801.7,0.196812,0.196496,-1.33345,13,0.0159841,10,-0.000262017,-2.87502,-0.472231,-0.124939,6.55945,0.196496,
2,0,0,1,0,24801.7,0.195316,0.194992,-1.35112,13,0.0159331,10,-0.000263457,-2.86931,-0.42898,-0.137536,7.26419,0.194992,
2,0,0,1,0,24801.7,0.193813,0.193457,-1.36684,13,0.0158813,10,-0.000264426,-2.86428,-0.397519,-0.148421,7.87831,0.193457,
2,0,0,1,0,24801.8,0.192317,0.192008,-1.37477,13,0.0158294,10,-0.000263966,-2.86177,-0.483648,-0.12199,6.51743,0.192008,
2,0,0,1,0,24801.8,0.190821,0.190489,-1.38563,13,0.0157772,10,-0.000263948,-2.85835,-0.455041,-0.129659,6.99447,0.1904894,
2,0,0,1,0,24801.8,0.189321,0.188961,-1.39445,13,0.0157244,10,-0.000263496,-2.8556,-0.436144,-0.135276,7.35817,0.188961,
2,0,0,1,0,24801.9,0.187821,0.187506,-1.40569,13,0.0156712,10,-0.000263575,-2.85211,-0.377168,-0.156429,8.58309,0.187506,
2,0,0,1,0,24801.9,0.186324,0.186046,-1.41601,13,0.0156177,10,-0.000263442,-2.84893,-0.416198,-0.141759,7.84072,0.186046,
2,0,0,1,0,24802,0.184828,0.184504,-1.42813,13,0.0155637,10,-0.000263496,-2.84523,-0.475561,-0.124064,6.94671,0.184504,
2,0,0,1,0,24802,0.183328,0.183033,-1.44459,13,0.0155092,10,-0.000264407,-2.84026,-0.35539,-0.166015,9.36359,0.1830328,
2,0,0,1,0,24802,0.181828,0.181474,-1.45927,13,0.0154541,10,-0.00026482,-2.83586,-0.364105,-0.162041,9.20307,0.181474,
2,0,0,1,0,24802.1,0.180332,0.180005,-1.47701,13,0.0153987,10,-0.00026587,-2.83062,-0.360137,-0.163827,9.3828,0.180005,
2,0,0,1,0,24802.1,0.178836,0.178472,-1.49092,13,0.0153427,10,-0.000266087,-2.82655,-0.343139,-0.171942,9.93605,0.1784717,
2,0,0,1,0,24802.1,0.177333,0.177035,-1.49266,13,0.015286,10,-0.000264253,-2.82604,-0.322815,-0.182767,10.6923,0.177035,
2,0,0,1,0,24802.2,0.175837,0.175492,-1.51233,13,0.015229,10,-0.000265402,-2.82035,-0.317995,-0.185537,10.9531,0.175492,
2,0,0,1,0,24802.2,0.174341,0.173977,-1.52947,13,0.0151713,10,-0.000266093,-2.81546,-0.316858,-0.186203,11.1524,0.173977,
2,0,0,1,0,24802.3,0.172841,0.172521,-1.54583,13,0.0151129,10,-0.000266689,-2.81084,-0.320652,-0.184,11.1448,0.172521,
2,0,0,1,0,24802.3,0.171341,0.171033,-1.56393,13,0.0150538,10,-0.000267484,-2.80578,-0.264926,-0.222704,13.6104,0.171033,
2,0,0,1,0,24802.3,0.169844,0.169511,-1.5894,13,0.0149942,10,-0.000269421,-2.79877,-0.27198,-0.216928,13.419,0.169511,
2,0,0,1,0,24802.4,0.168348,0.168038,-1.61215,13,0.0149338,10,-0.000270902,-2.7926,-0.248906,-0.237037,14.8472,0.168038,
2,0,0,1,0,24802.4,0.166848,0.166549,-1.63551,13,0.0148723,10,-0.000272393,-2.78635,-0.274323,-0.215075,13.6351,0.166549,
2,0,0,1,0,24802.4,0.165348,0.165005,-1.65156,13,0.01481,10,-0.000272516,-2.78211,-0.229976,-0.256549,16.5952,0.165005,
2,0,0,1,0,24802.5,0.163852,0.163498,-1.67411,13,0.0147471,10,-0.000273713,-2.77622,-0.21933,-0.269001,17.6864,0.163498,
2,0,0,1,0,24802.5,0.162357,0.162037,-1.70236,13,0.0146831,10,-0.000275845,-2.76895,-0.194106,-0.303958,20.2715,0.162037,
2,0,0,1,0,24802.6,0.160853,0.160541,-1.73016,13,0.0146177,10,-0.00027776,-2.76191,-0.212518,-0.277623,18.863,0.160541,
2,0,0,1,0,24802.6,0.159357,0.159032,-1.76835,13,0.0145514,10,-0.000281223,-2.75243,-0.191008,-0.308887,21.354,0.159032,
2,0,0,1,0,24802.6,0.157861,0.157562,-1.80548,13,0.014484,10,-0.000284475,-2.74341,-0.173756,-0.339557,23.8945,0.157562,
2,0,0,1,0,24802.7,0.156361,0.156018,-1.84523,13,0.014415,10,-0.00028789,-2.73395,-0.147755,-0.399309,28.6494,0.156018,
2,0,0,1,0,24802.7,0.154861,0.154523,-1.89062,13,0.0143443,10,-0.000292144,-2.7234,-0.144682,-0.407792,29.9891,0.154523,
2,0,0,1,0,24802.7,0.153364,0.15304,-1.93138,13,0.0142722,10,-0.000295578,-2.71413,-0.140172,-0.420913,31.8385,0.15304,
2,0,0,1,0,24802.8,0.151868,0.151556,-1.97958,13,0.0141984,10,-0.000300017,-2.70343,-0.125381,-0.470567,36.5956,0.151556,
2,0,0,1,0,24802.8,0.150368,0.150034,-2.0363,13,0.0141223,10,-0.000305515,-2.69116,-0.1105,-0.533936,42.6962,0.150034,
2,0,0,1,0,24802.9,0.148868,0.148562,-2.10477,13,0.0140438,10,-0.000312689,-2.6768,-0.102476,-0.575746,47.4814,0.148562,
2,0,0,1,0,24802.9,0.147372,0.147018,-2.17966,13,0.0139629,10,-0.000320448,-2.66161,-0.105525,-0.559111,47.5636,0.147018,
2,0,0,1,0,24802.9,0.145877,0.145545,-2.25353,13,0.0138792,10,-0.000327991,-2.64714,-0.0958824,-0.615337,54.3195,0.1455449,
2,0,0,1,0,24803,0.144373,0.144077,-2.34536,13,0.0137921,10,-0.000337913,-2.62979,-0.0880097,-0.67038,61.4013,0.144077,
2,0,0,1,0,24803,0.142877,0.142589,-2.44514,13,0.013702,10,-0.000348649,-2.6117,-0.0843986,-0.699064,66.5951,0.142589,
2,0,0,1,0,24803,0.14138,0.141069,-2.54062,13,0.013608,10,-0.000358404,-2.59506,-0.0822295,-0.717504,71.1708,0.1410691,
2,0,0,1,0,24803.1,0.13988,0.13953,-2.65008,13,0.0135099,10,-0.000369765,-2.57674,-0.0809591,-0.728763,75.6238,0.13953,
2,0,0,1,0,24803.1,0.13838,0.138067,-2.76475,13,0.0134076,10,-0.00038172,-2.55834,-0.0813841,-0.724957,78.4898,0.1380666,
2,0,0,1,0,24803.2,0.136884,0.136541,-2.88335,13,0.0133011,10,-0.000393695,-2.5401,-0.0816032,-0.723011,81.4704,0.136541,
2,0,0,1,0,24803.2,0.135388,0.135007,-3.01313,13,0.01319,10,-0.000406793,-2.52098,-0.0847389,-0.696256,81.7664,0.135007,
2,0,0,1,0,24803.2,0.133888,0.133552,-3.14311,13,0.013074,10,-0.000419768,-2.50264,-0.0838146,-0.703934,86.0906,0.1335521,
2,0,0,1,0,24803.3,0.132389,0.132025,-3.26712,13,0.0129532,10,-0.00043134,-2.48583,-0.0912994,-0.646226,82.0324,0.1320246,
2,0,0,1,0,24803.3,0.130893,0.130551,-3.38103,13,0.0128282,10,-0.000441396,-2.47095,-0.09404,-0.627393,82.7927,0.130551,
2,0,0,1,0,24803.3,0.129393,0.12906,-3.51087,13,0.0126981,10,-0.000453115,-2.45458,-0.100901,-0.584731,79.899,0.12906,
2,0,0,1,0,24803.4,0.127893,0.12758,-3.62441,13,0.0125635,10,-0.000462401,-2.44076,-0.111335,-0.529932,74.8818,0.12758,
2,0,0,1,0,24803.4,0.126397,0.126111,-3.73156,13,0.0124252,10,-0.00047059,-2.42811,-0.118732,-0.496916,72.3787,0.1261106,
2,0,0,1,0,24803.5,0.1249,0.124575,-3.83837,13,0.0122827,10,-0.000478163,-2.41585,-0.130301,-0.452798,67.7344,0.124575,
2,0,0,1,0,24803.5,0.1234,0.12309,-3.94068,13,0.0121361,10,-0.000485057,-2.40443,-0.142647,-0.413608,63.4459,0.12309,
2,0,0,1,0,24803.5,0.1219,0.121591,-4.0331,13,0.0119859,10,-0.000490389,-2.39436,-0.163453,-0.360959,56.5703,0.121591,
2,0,0,1,0,24803.6,0.120404,0.120099,-4.11327,13,0.0118329,10,-0.000494002,-2.38581,-0.183222,-0.322015,51.4925,0.120099,
2,0,0,1,0,24803.6,0.118908,0.118653,-4.18488,13,0.0116771,10,-0.000496547,-2.37832,-0.20417,-0.288974,47.1389,0.118653,
2,0,0,1,0,24803.6,0.117404,0.117075,-4.25439,13,0.0115178,10,-0.000498082,-2.37116,-0.220452,-0.267632,44.3331,0.117075,
2,0,0,1,0,24803.7,0.115909,0.115577,-4.31541,13,0.0113567,10,-0.000498764,-2.36498,-0.27752,-0.212597,35.7022,0.1155773,
2,0,0,1,0,24803.7,0.114413,0.114108,-4.35937,13,0.0111937,10,-0.000497441,-2.36058,-0.341995,-0.172517,29.3557,0.114108,
2,0,0,1,0,24803.8,0.112913,0.112615,-4.40495,13,0.0110287,10,-0.000496064,-2.35606,-0.415084,-0.14214,24.4048,0.112615,
2,0,0,1,0,24803.8,0.111413,0.111067,-4.43615,13,0.0108622,10,-0.000492708,-2.35299,-0.477912,-0.123454,21.339,0.111067,
2,0,0,1,0,24803.8,0.109917,0.109561,-4.46684,13,0.0106951,10,-0.000489391,-2.35,-0.673723,-0.0875731,15.2272,0.109561,
2,0,0,1,0,24803.9,0.10842,0.108127,-4.48856,13,0.010527,10,-0.000485336,-2.34789,-1.12833,-0.0522898,9.12126,0.108127,
2,0,0,1,0,24803.9,0.10692,0.106579,-4.49162,13,0.010358,10,-0.000478711,-2.3476,-2.14317,-0.0275293,4.81565,0.106579,
2,0,0,1,0,24803.9,0.10542,0.105103,-4.49014,13,0.0101889,10,-0.000471926,-2.34774,-22.8015,-0.00258755,0.453009,0.105103,
2,0,0,1,0,24804,0.103924,0.103588,-4.48685,13,0.0100202,10,-0.000464784,-2.34806,1.7548,0.0336221,-5.88266,0.103588,
2,0,0,1,0,24804,0.102427,0.102101,-4.47516,13,0.00985174,10,-0.00045692,-2.34919,0.891788,0.0661592,-11.5459,0.102101,
2,0,0,1,0,24804.1,0.100924,0.100612,-4.44981,13,0.00968314,10,-0.000447703,-2.35166,0.653489,0.0902846,-15.6851,0.100612,
2,0,0,1,0,24804.1,0.0994284,0.0991452,-4.43036,13,0.00951637,10,-0.000439249,-2.35356,0.576709,0.102305,-17.6574,0.0991452,
2,0,0,1,0,24804.1,0.0979329,0.0976083,-4.39953,13,0.00935064,10,-0.000429431,-2.35659,0.525106,0.112358,-19.2554,0.0976083,
2,0,0,1,0,24804.2,0.0964329,0.096118,-4.36526,13,0.00918564,10,-0.00041958,-2.35999,0.422936,0.139501,-23.7116,0.096118,
2,0,0,1,0,24804.2,0.094933,0.0945949,-4.32324,13,0.00902198,10,-0.000408957,-2.36419,0.376253,0.156809,-26.4537,0.0945949,
2,0,0,1,0,24804.2,0.0934366,0.0931548,-4.28248,13,0.00886036,10,-0.000398934,-2.3683,0.363307,0.162397,-27.1848,0.0931548,
2,0,0,1,0,24804.3,0.0919401,0.0916052,-4.24269,13,0.00870016,10,-0.000388653,-2.37236,0.352095,0.167568,-27.7687,0.0916052,
2,0,0,1,0,24804.3,0.0904402,0.0901209,-4.20379,13,0.00854092,10,-0.000378849,-2.37636,0.348937,0.169085,-27.7591,0.0901209,
2,0,0,1,0,24804.4,0.0889402,0.0886044,-4.16569,13,0.00838332,10,-0.000369098,-2.38031,0.33855,0.174272,-28.3219,0.0886044,
2,0,0,1,0,24804.4,0.0874438,0.0870992,-4.1219,13,0.00822779,10,-0.000359014,-2.3849,0.360365,0.163723,-26.3551,0.0870992,
2,0,0,1,0,24804.4,0.0859483,0.085646,-4.08518,13,0.00807364,10,-0.000349879,-2.38879,0.41323,0.142778,-22.7525,0.085646,
2,0,0,1,0,24804.5,0.0844447,0.0841337,-4.05472,13,0.00791995,10,-0.000341138,-2.39204,0.402353,0.146638,-23.1541,0.08413367,
2,0,0,1,0,24804.5,0.0829492,0.0826157,-4.02154,13,0.00776834,10,-0.000332243,-2.39561,0.399876,0.147546,-23.1413,0.0826157,
2,0,0,1,0,24804.5,0.0814528,0.0811802,-3.98132,13,0.00761808,10,-0.000323205,-2.39997,0.455037,0.12966,-20.1882,0.0811802,
2,0,0,1,0,24804.6,0.0799528,0.0796345,-3.95088,13,0.00746852,10,-0.000314626,-2.40331,0.617445,0.0955551,-14.775,0.0796345,
2,0,0,1,0,24804.6,0.0784529,0.0781338,-3.92643,13,0.00731987,10,-0.000306787,-2.406,0.568848,0.103718,-15.9358,0.0781338,
2,0,0,1,0,24804.7,0.0769565,0.0766306,-3.91007,13,0.00717247,10,-0.000299631,-2.40782,0.510774,0.115511,-17.6147,0.0766306,
2,0,0,1,0,24804.7,0.0754601,0.0751747,-3.88138,13,0.00702605,10,-0.000291782,-2.41101,0.539987,0.109262,-16.565,0.0751747,
2,0,0,1,0,24804.7,0.0739601,0.0736556,-3.86556,13,0.00688017,10,-0.00028472,-2.41279,0.627942,0.0939577,-14.1591,0.0736556,
2,0,0,1,0,24804.8,0.0724601,0.0720763,-3.84523,13,0.00673504,10,-0.00027715,-2.41508,0.688332,0.0857144,-12.841,0.0720763,
2,0,0,1,0,24804.8,0.0709637,0.0706613,-3.82482,13,0.00659099,10,-0.000270267,-2.41739,0.59879,0.098532,-14.6762,0.0706613,
2,0,0,1,0,24804.8,0.0694682,0.0691593,-3.79896,13,0.00644768,10,-0.000262734,-2.42034,0.639077,0.0923206,-13.6923,0.0691593,
2,0,0,1,0,24804.9,0.0679646,0.0676422,-3.77719,13,0.00630453,10,-0.000255497,-2.42283,0.685699,0.0860436,-12.7195,0.0676422,
2,0,0,1,0,24804.9,0.0664691,0.0661652,-3.75778,13,0.00616279,10,-0.000248634,-2.42507,0.753279,0.0783242,-11.5026,0.0661652,
2,0,0,1,0,24805,0.0649727,0.0646619,-3.73978,13,0.00602166,10,-0.000241821,-2.42715,0.579312,0.101845,-14.8643,0.0646619,
2,0,0,1,0,24805,0.0634727,0.0631407,-3.72137,13,0.00588097,10,-0.00023497,-2.4293,0.580578,0.101623,-14.7482,0.0631407,
2,0,0,1,0,24805,0.0619728,0.0617011,-3.69877,13,0.0057412,10,-0.000228218,-2.43194,0.586649,0.100571,-14.5166,0.06170113,
2,0,0,1,0,24805.1,0.0604764,0.0601666,-3.68676,13,0.00560251,10,-0.00022182,-2.43335,0.621654,0.0949081,-13.6104,0.0601666,
2,0,0,1,0,24805.1,0.05898,0.0586385,-3.66512,13,0.00546449,10,-0.000214917,-2.43591,0.576646,0.102316,-14.6128,0.0586385,
2,0,0,1,0,24805.1,0.05748,0.0571779,-3.63729,13,0.00532689,10,-0.000207972,-2.43922,0.59901,0.0984958,-13.9871,0.0571779,
2,0,0,1,0,24805.2,0.05598,0.0556791,-3.61123,13,0.00519019,10,-0.00020107,-2.44234,0.621061,0.0949987,-13.4271,0.0556791,
2,0,0,1,0,24805.2,0.0544836,0.054163,-3.59304,13,0.00505463,10,-0.00019461,-2.44454,0.755008,0.0781449,-10.9742,0.054163,
2,0,0,1,0,24805.3,0.0529881,0.052665,-3.57903,13,0.00491974,10,-0.00018849,-2.44623,0.641736,0.0919381,-12.8316,0.052665,
2,0,0,1,0,24805.3,0.0514846,0.0511145,-3.55449,13,0.0047849,10,-0.000181686,-2.44922,0.552939,0.106703,-14.7937,0.0511145,
2,0,0,1,0,24805.3,0.049989,0.0496477,-3.53296,13,0.00465167,10,-0.000175403,-2.45186,0.475295,0.124133,-17.086,0.0496477,
2,0,0,1,0,24805.4,0.0484926,0.0481837,-3.51051,13,0.00451934,10,-0.00016915,-2.45463,0.521347,0.113168,-15.482,0.0481837,
2,0,0,1,0,24805.4,0.0469927,0.0466673,-3.48543,13,0.00438748,10,-0.000162656,-2.45774,0.514568,0.114659,-15.594,0.0466673,
2,0,0,1,0,24805.4,0.0454927,0.0451748,-3.46147,13,0.00425644,10,-0.000156371,-2.46074,0.493848,0.11947,-16.1461,0.0451748,
2,0,0,1,0,24805.5,0.0439963,0.0436912,-3.43804,13,0.00412664,10,-0.000150212,-2.46369,0.473477,0.12461,-16.7458,0.0436912,
2,0,0,1,0,24805.5,0.0424999,0.0421472,-3.41217,13,0.00399784,10,-0.000143814,-2.46697,0.499688,0.118074,-15.7705,0.0421472,
2,0,0,1,0,24805.6,0.0409999,0.0406664,-3.39172,13,0.00386951,10,-0.000137929,-2.46958,0.49617,0.118911,-15.745,0.0406664,
2,0,0,1,0,24805.6,0.0394999,0.0391634,-3.37075,13,0.00374203,10,-0.00013201,-2.47227,0.468237,0.126005,-16.5287,0.0391634,
2,0,0,1,0,24805.6,0.0380044,0.0376726,-3.34982,13,0.00361581,10,-0.000126197,-2.47498,0.411915,0.143233,-18.6469,0.0376726,
2,0,0,1,0,24805.7,0.0365089,0.0361741,-3.31538,13,0.00349072,10,-0.000119931,-2.47947,0.445258,0.132507,-17.126,0.0361741,
2,0,0,1,0,24805.7,0.0350054,0.0346977,-3.2881,13,0.00336595,10,-0.000114089,-2.48305,0.42198,0.139817,-17.9239,0.0346977,
2,0,0,1,0,24805.7,0.033509,0.0331833,-3.25907,13,0.00324279,10,-0.000108147,-2.48691,0.413492,0.142687,-18.1623,0.0331833,
2,0,0,1,0,24805.8,0.0320125,0.0316925,-3.22798,13,0.00312065,10,-0.000102303,-2.49107,0.409583,0.144049,-18.1897,0.0316925,
2,0,0,1,0,24805.8,0.0305126,0.030157,-3.19598,13,0.0029993,10,-9.63811e-05,-2.4954,0.400953,0.147149,-18.4211,0.030157,
2,0,0,1,0,24805.9,0.0290126,0.0286734,-3.17612,13,0.00287904,10,-9.10704e-05,-2.4981,0.432899,0.13629,-16.8995,0.0286734,
2,0,0,1,0,24805.9,0.0275162,0.0271851,-3.15322,13,0.00276007,10,-8.57206e-05,-2.50125,0.391191,0.150822,-18.5224,0.0271851,
2,0,0,1,0,24805.9,0.0260198,0.0256946,-3.12601,13,0.00264203,10,-8.03216e-05,-2.50501,0.352175,0.16753,-20.3666,0.0256946,
2,0,0,1,0,24806,0.0245198,0.0242089,-3.09276,13,0.0025248,10,-7.48723e-05,-2.50965,0.377572,0.156262,-18.8536,0.0242089,
2,0,0,1,0,24806,0.0230198,0.0226931,-3.06845,13,0.00240871,10,-6.96327e-05,-2.51308,0.408611,0.144392,-17.2895,0.0226931,
2,0,0,1,0,24806,0.0215243,0.0212072,-3.04106,13,0.00229378,10,-6.44925e-05,-2.51697,0.421679,0.139917,-16.623,0.0212072,
2,0,0,1,0,24806.1,0.0200288,0.0197211,-3.01191,13,0.00217977,10,-5.93983e-05,-2.52116,0.402665,0.146524,-17.2599,0.01972113,
2,0,0,1,0,24806.1,0.0185253,0.0181892,-2.99183,13,0.00206604,10,-5.44189e-05,-2.52406,0.401255,0.147039,-17.1864,0.0181892,
2,0,0,1,0,24806.2,0.0170289,0.0166813,-2.96836,13,0.00195394,10,-4.95161e-05,-2.52748,0.452759,0.130312,-15.1146,0.0166813,
2,0,0,1,0,24806.2,0.0155325,0.0152237,-2.94847,13,0.00184261,10,-4.48865e-05,-2.5304,0.552711,0.106747,-12.2817,0.0152237,
2,0,0,1,0,24806.2,0.0140325,0.0136982,-2.93418,13,0.00173165,10,-4.01929e-05,-2.53251,0.541863,0.108884,-12.4431,0.0136982,
2,0,0,1,0,24806.3,0.0125325,0.0122433,-2.91342,13,0.00162144,10,-3.567e-05,-2.5356,0.482633,0.122246,-13.8684,0.0122433,
2,0,0,1,0,24806.3,0.0110361,0.0107089,-2.88841,13,0.00151235,10,-3.09316e-05,-2.53934,0.500115,0.117973,-13.3114,0.0107089,
2,0,0,1,0,24806.3,0.0095397,0.0092698,-2.87346,13,0.00140391,10,-2.66364e-05,-2.5416,0.663019,0.0889869,-9.98668,0.0092698,
2,0,0,1,0,24806.4,0.00803616,0.00768965,-2.85861,13,0.00129544,10,-2.19817e-05,-2.54384,0.738416,0.0799008,-8.93163,0.007689646,
2,0,0,1,0,24806.4,0.00654064,0.00621413,-2.84352,13,0.00118808,10,-1.767e-05,-2.54614,0.750348,0.0786301,-8.74318,0.00621413,
2,0,0,1,0,24806.5,0.00504513,0.00470845,-2.8276,13,0.00108128,10,-1.33136e-05,-2.54858,1.00491,0.0587117,-6.49448,0.00470845,
2,0,0,1,0,24806.5,0.00354515,0.00323932,-2.82182,13,0.000974623,10,-9.14077e-06,-2.54947,-9.00521,-0.00655176,0.724076,0.00323932,
2,0,0,1,0,24806.5,0.00204518,0.00165618,-2.85278,13,0.000867966,10,-4.72472e-06,-2.54473,1.96967,0.0299542,-3.29287,0.00165618,
2,0,0,1,0,24806.6,0.000548773,0.000157654,-2.81848,13,0.000761324,10,-4.44345e-07,-2.54998, , , ,0.000157654,
2,0,0,1,0,24806.6,0.000177222,-0.000217671,-2.81031,13,0.00073494,10,6.11723e-07,-2.55125, , , ,-0.000217671,