File: Figure_codes/Fig_3-5/rawdata_trumpetplot_data/after 10th/20221101_1-115_003_TrumpetPlot_ParaChange_from10_every3_05_CV_C01_11.csv
mode,ox/red,error,control changes,counter inc.,time/s,control/V,Ewe/V,<I>/mA,cycle number,(Q-Qo)/C,I Range,P/W,log(|I|),Tafel slope mV/dec,alpha_eff,dI/d(E-IR),E-IR/V,
2,0,0,1,0,22791.5,2.44065e-05,-0.000229887,-0.735426,12,0.0000000E+000,10,1.69065e-07,-3.13346, , , ,-0.000229887,
2,1,0,1,0,22791.5,0.00129787,0.00094998,0.182714,12,-8.0048e-06,10,1.73575e-07,-3.73823, , , ,0.00094998,
2,1,0,1,0,22791.6,0.00279606,0.00247821,0.515404,12,2.15605e-05,10,1.27728e-06,-3.28785,0.00314331,18.77,168.052,0.00247821,
2,1,0,1,0,22791.7,0.00429425,0.00399348,0.622142,12,6.60463e-05,10,2.48451e-06,-3.20611,0.0197946,2.98062,65.51,0.00399348,
2,1,0,1,0,22791.7,0.00579244,0.00543155,0.685864,12,0.000116805,10,3.7253e-06,-3.16376,0.0397444,1.48449,38.6843,0.00543155,
2,1,0,1,0,22791.8,0.00729063,0.0070064,0.736082,12,0.000171559,10,5.15729e-06,-3.13307,0.0585246,1.00812,28.5669,0.0070064,
2,1,0,1,0,22791.9,0.00878882,0.00852156,0.773742,12,0.000229564,10,6.59349e-06,-3.1114,0.077161,0.764635,22.8788,0.00852156,
2,1,0,1,0,22792,0.010287,0.00998816,0.806133,12,0.000290182,10,8.05179e-06,-3.09359,0.103156,0.57195,17.7994,0.00998816,
2,1,0,1,0,22792,0.0117852,0.0114769,0.831364,12,0.000352946,10,9.54145e-06,-3.08021,0.104966,0.562086,18.1706,0.0114769,
2,1,0,1,0,22792.1,0.0132847,0.0129715,0.852658,12,0.000417489,10,1.10602e-05,-3.06922,0.112146,0.5261,17.5964,0.0129715,
2,1,0,1,0,22792.2,0.0147802,0.0144784,0.878525,12,0.000483848,10,1.27197e-05,-3.05625,0.127992,0.460968,15.8181,0.0144784,
2,1,0,1,0,22792.3,0.0162798,0.0159827,0.901765,12,0.000552311,10,1.44127e-05,-3.04491,0.153435,0.384527,13.5088,0.0159827,
2,1,0,1,0,22792.3,0.017778,0.0174557,0.925619,12,0.000622208,10,1.61573e-05,-3.03357,0.16276,0.362497,13.0723,0.0174557,
2,1,0,1,0,22792.4,0.0192761,0.0189527,0.940888,12,0.000693308,10,1.78324e-05,-3.02646,0.171971,0.343082,12.6126,0.0189527,
2,1,0,1,0,22792.5,0.0207743,0.0204574,0.961184,12,0.000766043,10,1.96633e-05,-3.01719,0.154726,0.381318,14.2908,0.0204574,
2,1,0,1,0,22792.6,0.0222725,0.0219539,0.981947,12,0.000840353,10,2.15576e-05,-3.00791,0.176103,0.335031,12.8364,0.0219539,
2,1,0,1,0,22792.6,0.0237707,0.0234406,1.0045,12,0.000916202,10,2.3546e-05,-2.99805,0.173743,0.339582,13.2819,0.0234406,
2,1,0,1,0,22792.7,0.0252689,0.0249941,1.01933,12,0.000993311,10,2.54772e-05,-2.99169,0.1761,0.335038,13.3773,0.02499409,
2,1,0,1,0,22792.8,0.0267671,0.0264772,1.04232,12,0.00107191,10,2.75978e-05,-2.982,0.168901,0.349316,14.2025,0.02647724,
2,1,0,1,0,22792.9,0.0282653,0.0279441,1.06509,12,0.0011521,10,2.9763e-05,-2.97261,0.17908,0.329461,13.6352,0.0279441,
2,1,0,1,0,22792.9,0.0297644,0.0294516,1.08233,12,0.00123398,10,3.18763e-05,-2.96564,0.205863,0.286598,12.0635,0.0294516,
2,1,0,1,0,22793,0.0312599,0.0309337,1.09773,12,0.00131694,10,3.39567e-05,-2.95951,0.190257,0.310108,13.3219,0.03093365,
2,1,0,1,0,22793.1,0.0327599,0.0324465,1.11894,12,0.00140144,10,3.63055e-05,-2.95119,0.1981,0.297829,13.0063,0.0324465,
2,1,0,1,0,22793.2,0.034258,0.0339724,1.13902,12,0.00148761,10,3.86952e-05,-2.94347,0.191787,0.307632,13.6642,0.0339724,
2,1,0,1,0,22793.2,0.0357562,0.0354514,1.1598,12,0.00157524,10,4.11164e-05,-2.93562,0.221514,0.266349,12.0449,0.0354514,
2,1,0,1,0,22793.3,0.0372544,0.0369693,1.18356,12,0.00166436,10,4.37555e-05,-2.92681,0.21852,0.269998,12.4368,0.0369693,
2,1,0,1,0,22793.4,0.0387526,0.0384178,1.19802,12,0.00175469,10,4.60253e-05,-2.92154,0.220587,0.267468,12.5385,0.0384178,
2,1,0,1,0,22793.5,0.0402508,0.0399329,1.21914,12,0.00184664,10,4.86838e-05,-2.91395,0.203512,0.28991,13.7654,0.0399329,
2,1,0,1,0,22793.5,0.041749,0.0414568,1.24024,12,0.00194026,10,5.14163e-05,-2.9065,0.225499,0.261642,12.6226,0.0414568,
2,1,0,1,0,22793.6,0.0432472,0.0429264,1.26151,12,0.00203526,10,5.41519e-05,-2.89911,0.238543,0.247335,12.1446,0.0429264,
2,1,0,1,0,22793.7,0.0447449,0.044438,1.27758,12,0.00213141,10,5.67729e-05,-2.89361,0.230887,0.255536,12.7266,0.044438,
2,1,0,1,0,22793.8,0.0462445,0.0459106,1.29396,12,0.00222925,10,5.94064e-05,-2.88808,0.213009,0.276984,13.9565,0.0459106,
2,1,0,1,0,22793.8,0.04774,0.0474585,1.31389,12,0.00232825,10,6.23554e-05,-2.88144,0.236294,0.249689,12.7979,0.0474585,
2,1,0,1,0,22793.9,0.0492399,0.0489127,1.33036,12,0.00242888,10,6.50714e-05,-2.87603,0.284344,0.207495,10.7747,0.0489127,
2,1,0,1,0,22794,0.0507381,0.0504727,1.34384,12,0.00253061,10,6.78272e-05,-2.87165,0.274123,0.215232,11.3341,0.0504727,
2,1,0,1,0,22794.1,0.0522363,0.051904,1.3644,12,0.00263361,10,7.08177e-05,-2.86506,0.236781,0.249176,13.2846,0.051904,
2,1,0,1,0,22794.1,0.0537345,0.0534173,1.38607,12,0.00273809,10,7.40402e-05,-2.85821,0.25643,0.230082,12.4235,0.0534173,
2,1,0,1,0,22794.2,0.0552327,0.0549632,1.40287,12,0.00284396,10,7.71064e-05,-2.85298,0.332589,0.177396,9.67689,0.05496322,
2,1,0,1,0,22794.3,0.0567309,0.0563745,1.41312,12,0.00295092,10,7.96638e-05,-2.84982,0.330633,0.178446,9.87082,0.0563745,
2,1,0,1,0,22794.4,0.0582291,0.0579102,1.43312,12,0.00305893,10,8.2992e-05,-2.84372,0.297348,0.198421,11.0918,0.05791017,
2,1,0,1,0,22794.4,0.0597291,0.059422,1.45119,12,0.00316844,10,8.62325e-05,-2.83828,0.307994,0.191562,10.8346,0.059422,
2,1,0,1,0,22794.5,0.0612246,0.0609082,1.46522,12,0.00327888,10,8.9244e-05,-2.8341,0.380559,0.155035,8.85229,0.06090815,
2,1,0,1,0,22794.6,0.0627241,0.062453,1.47637,12,0.00339076,10,9.22039e-05,-2.8308,0.310036,0.1903,10.9873,0.06245295,
2,1,0,1,0,22794.7,0.0642218,0.0639202,1.49384,12,0.00350345,10,9.54865e-05,-2.8257,0.299797,0.1968,11.4944,0.0639202,
2,1,0,1,0,22794.7,0.06572,0.0654401,1.51152,12,0.00361743,10,9.8914e-05,-2.82059,0.32277,0.182793,10.7739,0.0654401,
2,1,0,1,0,22794.8,0.0672182,0.0668856,1.52778,12,0.00373272,10,0.000102186,-2.81594,0.348296,0.169396,10.0739,0.0668856,
2,1,0,1,0,22794.9,0.0687164,0.0683878,1.53917,12,0.00384896,10,0.000105261,-2.81271,0.493021,0.11967,7.17961,0.0683878,
2,1,0,1,0,22795,0.0702146,0.0699308,1.54905,12,0.00396598,10,0.000108326,-2.80993,0.474243,0.124409,7.53369,0.0699308,
2,1,0,1,0,22795,0.0717128,0.0714115,1.56115,12,0.0040839,10,0.000111484,-2.80655,0.381007,0.154853,9.44463,0.0714115,
2,1,0,1,0,22795.1,0.073211,0.0729373,1.57515,12,0.00420284,10,0.000114887,-2.80268,0.384534,0.153433,9.44193,0.0729373,
2,1,0,1,0,22795.2,0.0747092,0.074395,1.5877,12,0.00432282,10,0.000118117,-2.79923,0.477642,0.123524,7.6468,0.074395,
2,1,0,1,0,22795.3,0.0762087,0.0758741,1.5944,12,0.00444376,10,0.000120974,-2.7974,0.487292,0.121077,7.55413,0.0758741,
2,1,0,1,0,22795.3,0.0777042,0.0773939,1.61047,12,0.00456508,10,0.000124641,-2.79305,0.431101,0.136859,8.60123,0.0773939,
2,1,0,1,0,22795.4,0.0792037,0.0789047,1.6258,12,0.00468768,10,0.000128283,-2.78893,0.454472,0.129821,8.21304,0.0789047,
2,1,0,1,0,22795.5,0.0807019,0.080428,1.63342,12,0.00481115,10,0.000131373,-2.7869,0.542376,0.108781,6.91502,0.080428,
2,1,0,1,0,22795.6,0.0822001,0.0818975,1.63696,12,0.00493538,10,0.000134063,-2.78596,0.592969,0.0994992,6.38126,0.0818975,
2,1,0,1,0,22795.6,0.0836983,0.0833829,1.65366,12,0.00506016,10,0.000137887,-2.78155,0.516778,0.114169,7.38662,0.0833829,
2,1,0,1,0,22795.7,0.0851965,0.0849153,1.66576,12,0.00518595,10,0.000141449,-2.77839,0.476939,0.123706,8.04944,0.0849153,
2,1,0,1,0,22795.8,0.0866947,0.0863797,1.67995,12,0.00531275,10,0.000145113,-2.7747,0.526512,0.112058,7.34271,0.0863797,
2,1,0,1,0,22795.9,0.0881929,0.087859,1.69379,12,0.00544051,10,0.000148815,-2.77114,0.430093,0.13718,9.06036,0.08785902,
2,1,0,1,0,22795.9,0.0896911,0.0893681,1.7083,12,0.00556909,10,0.000152667,-2.76744,0.367926,0.160358,10.7018,0.0893681,
2,1,0,1,0,22796,0.0911893,0.0908612,1.72614,12,0.00569901,10,0.000156839,-2.76292,0.294006,0.200676,13.5002,0.0908612,
2,1,0,1,0,22796.1,0.0926884,0.0924015,1.74782,12,0.00583068,10,0.000161502,-2.7575,0.279058,0.211426,14.3899,0.0924015,
2,1,0,1,0,22796.2,0.0941839,0.0938604,1.76477,12,0.00596349,10,0.000165642,-2.75331,0.302529,0.195023,13.4484,0.0938604,
2,1,0,1,0,22796.2,0.0956838,0.0953965,1.78571,12,0.00609802,10,0.00017035,-2.74819,0.255034,0.231342,16.1735,0.0953965,
2,1,0,1,0,22796.3,0.097182,0.0968706,1.81146,12,0.00623418,10,0.000175478,-2.74197,0.220154,0.267994,18.99,0.0968706,
2,1,0,1,0,22796.4,0.0986802,0.0983585,1.83923,12,0.00637255,10,0.000180904,-2.73536,0.216224,0.272866,19.6103,0.09835849,
2,1,0,1,0,22796.5,0.100178,0.0998643,1.87073,12,0.00651312,10,0.000186819,-2.72799,0.228211,0.258532,18.8935,0.0998643,
2,1,0,1,0,22796.5,0.101677,0.101361,1.90014,12,0.00665588,10,0.0001926,-2.72121,0.201987,0.292098,21.7233,0.101361,
2,1,0,1,0,22796.6,0.103175,0.102894,1.93663,12,0.00680093,10,0.000199267,-2.71295,0.194615,0.303162,22.9619,0.102894,
2,1,0,1,0,22796.7,0.104673,0.104375,1.97204,12,0.00694877,10,0.000205831,-2.70508,0.188795,0.312509,24.0441,0.104375,
2,1,0,1,0,22796.8,0.106171,0.105872,2.00999,12,0.00709943,10,0.000212802,-2.69681,0.205787,0.286704,22.4154,0.105872,
2,1,0,1,0,22796.8,0.107669,0.107297,2.04229,12,0.00725253,10,0.000219131,-2.68988,0.209133,0.282117,22.4775,0.107297,
2,1,0,1,0,22796.9,0.109168,0.108834,2.07198,12,0.00740811,10,0.000225502,-2.68362,0.222097,0.26565,21.5116,0.1088341,
2,1,0,1,0,22797,0.110664,0.110284,2.10221,12,0.00756594,10,0.000231841,-2.67732,0.224872,0.262371,21.5527,0.110284,
2,1,0,1,0,22797.1,0.112164,0.111847,2.13719,12,0.0077266,10,0.000239038,-2.67016,0.264691,0.222902,18.5595,0.111847,
2,1,0,1,0,22797.1,0.113662,0.113345,2.16896,12,0.00788923,10,0.000245841,-2.66375,0.296391,0.199062,16.7953,0.113345,
2,1,0,1,0,22797.2,0.11516,0.114822,2.18972,12,0.00805367,10,0.000251428,-2.65961,0.295861,0.199418,17.0444,0.114822,
2,1,0,1,0,22797.3,0.116658,0.116312,2.21335,12,0.00822004,10,0.000257439,-2.65495,0.32266,0.182855,15.7784,0.116312,
2,1,0,1,0,22797.4,0.118157,0.117862,2.24238,12,0.00838845,10,0.000264291,-2.64929,0.370366,0.159302,13.8953,0.117862,
2,1,0,1,0,22797.4,0.119655,0.119334,2.25861,12,0.00855824,10,0.000269529,-2.64616,0.484663,0.121734,10.7116,0.119334,
2,1,0,1,0,22797.5,0.121153,0.120838,2.26803,12,0.00872918,10,0.000274064,-2.64435,0.469979,0.125538,11.1375,0.120838,
2,1,0,1,0,22797.6,0.122653,0.122352,2.28565,12,0.00890156,10,0.000279654,-2.64099,0.443447,0.133049,11.8824,0.122352,
2,1,0,1,0,22797.7,0.124149,0.123833,2.30703,12,0.00907482,10,0.000285686,-2.63695,0.499066,0.118221,10.6281,0.123833,
2,1,0,1,0,22797.7,0.125648,0.125264,2.32205,12,0.00924979,10,0.000290869,-2.63413,0.534263,0.110432,9.99364,0.1252636,
2,1,0,1,0,22797.8,0.127146,0.126806,2.32864,12,0.00942551,10,0.000295284,-2.6329,0.574957,0.102616,9.35096,0.126806,
2,1,0,1,0,22797.9,0.128644,0.128366,2.35006,12,0.00960228,10,0.000301667,-2.62892,0.584324,0.100971,9.25698,0.1283658,
2,1,0,1,0,22798,0.130142,0.129792,2.36463,12,0.00978027,10,0.00030691,-2.62624,0.570741,0.103374,9.53819,0.129792,
2,1,0,1,0,22798,0.13164,0.131344,2.38009,12,0.00995938,10,0.000312612,-2.62341,0.8468,0.0696741,6.45122,0.131344,
2,1,0,1,0,22798.1,0.133139,0.132807,2.38764,12,0.0101394,10,0.000317095,-2.62203,1.4414,0.0409325,3.80811,0.132807,
2,1,0,1,0,22798.2,0.134637,0.134331,2.38979,12,0.0103196,10,0.000321022,-2.62164,19.2305,0.00306805,0.285964,0.134331,
2,1,0,1,0,22798.3,0.136135,0.135864,2.39312,12,0.0105002,10,0.00032514,-2.62104,-1.8448,-0.0319818,-2.97665,0.135864,
2,1,0,1,0,22798.3,0.137633,0.137348,2.38637,12,0.0106804,10,0.000327764,-2.62226,-0.599394,-0.0984327,-9.11579,0.137348,
2,1,0,1,0,22798.4,0.139133,0.138817,2.3672,12,0.01086,10,0.000328607,-2.62577,-0.340167,-0.173444,-15.918,0.138817,
2,1,0,1,0,22798.5,0.140628,0.140298,2.33184,12,0.011037,10,0.000327151,-2.6323,-0.229275,-0.257333,-23.341,0.140298,
2,1,0,1,0,22798.6,0.142128,0.141808,2.29116,12,0.0112119,10,0.000324904,-2.63995,-0.177315,-0.332741,-29.6195,0.141808,
2,1,0,1,0,22798.6,0.143626,0.143323,2.24081,12,0.0113833,10,0.000321159,-2.6496,-0.136369,-0.432649,-37.646,0.143323,
2,1,0,1,0,22798.7,0.145124,0.144795,2.17245,12,0.0115502,10,0.000314559,-2.66305,-0.103591,-0.569547,-48.1849,0.144795,
2,1,0,1,0,22798.8,0.146622,0.146337,2.09542,12,0.0117117,10,0.000306639,-2.67873,-0.0943415,-0.625388,-51.0741,0.146337,
2,1,0,1,0,22798.9,0.14812,0.147779,2.01908,12,0.0118673,10,0.000298379,-2.69485,-0.0841972,-0.700736,-55.033,0.1477793,
2,1,0,1,0,22798.9,0.149619,0.14929,1.93483,12,0.0120166,10,0.00028885,-2.71336,-0.0760988,-0.775307,-58.3489,0.1492897,
2,1,0,1,0,22799,0.151117,0.150793,1.8462,12,0.0121595,10,0.000278394,-2.73372,-0.0726456,-0.812162,-58.3311,0.1507934,
2,1,0,1,0,22799.1,0.152615,0.15227,1.75306,12,0.0122957,10,0.000266938,-2.7562,-0.07158,-0.824253,-56.5471,0.15227,
2,1,0,1,0,22799.2,0.154113,0.153783,1.67468,12,0.0124254,10,0.000257538,-2.77607,-0.0732853,-0.805072,-52.7335,0.1537832,
2,1,0,1,0,22799.2,0.155613,0.155277,1.60134,12,0.0125495,10,0.000248652,-2.79552,-0.0774932,-0.761358,-47.5752,0.155277,
2,1,0,1,0,22799.3,0.157108,0.15677,1.52842,12,0.0126678,10,0.00023961,-2.81576,-0.0760822,-0.775477,-46.3519,0.15677,
2,1,0,1,0,22799.4,0.158608,0.158281,1.46486,12,0.0127815,10,0.000231859,-2.83421,-0.0832337,-0.708848,-40.6439,0.158281,
2,1,0,1,0,22799.5,0.160106,0.15983,1.40802,12,0.0128902,10,0.000225045,-2.85139,-0.0917477,-0.643068,-35.5105,0.15983,
2,1,0,1,0,22799.5,0.161604,0.161307,1.36129,12,0.0129952,10,0.000219587,-2.86605,-0.102893,-0.573409,-30.4808,0.1613072,
2,1,0,1,0,22799.6,0.163102,0.16278,1.31525,12,0.0130968,10,0.000214096,-2.88099,-0.11098,-0.531628,-27.3962,0.16278,
2,1,0,1,0,22799.7,0.164601,0.164294,1.27909,12,0.0131954,10,0.000210147,-2.8931,-0.121244,-0.486621,-24.3091,0.164294,
2,1,0,1,0,22799.8,0.166099,0.16578,1.24252,12,0.0132912,10,0.000205986,-2.9057,-0.130879,-0.4508,-21.9682,0.16578,
2,1,0,1,0,22799.8,0.167597,0.16727,1.21648,12,0.0133847,10,0.00020348,-2.9149,-0.163452,-0.360962,-17.1589,0.16727,
2,1,0,1,0,22799.9,0.169095,0.168799,1.19254,12,0.0134763,10,0.0002013,-2.92353,-0.177441,-0.332505,-15.4989,0.1687986,
2,1,0,1,0,22800,0.170593,0.170307,1.16692,12,0.013566,10,0.000198735,-2.93296,-0.175522,-0.336141,-15.3375,0.170307,
2,1,0,1,0,22800.1,0.172092,0.171801,1.14491,12,0.0136541,10,0.000196696,-2.94123,-0.207473,-0.284375,-12.7534,0.171801,
2,1,0,1,0,22800.1,0.173588,0.173247,1.12981,12,0.0137406,10,0.000195736,-2.94699,-0.239879,-0.245957,-10.8529,0.173247,
2,1,0,1,0,22800.2,0.175088,0.174778,1.11273,12,0.0138261,10,0.00019448,-2.95361,-0.26791,-0.220223,-9.58551,0.174778,
2,1,0,1,0,22800.3,0.176586,0.176301,1.09873,12,0.0139105,10,0.000193707,-2.95911,-0.27435,-0.215054,-9.2098,0.176301,
2,1,0,1,0,22800.4,0.178084,0.177782,1.08532,12,0.0139938,10,0.00019295,-2.96444,-0.303337,-0.194503,-8.25497,0.177782,
2,1,0,1,0,22800.4,0.179582,0.179294,1.07683,12,0.014076,10,0.00019307,-2.96785,-0.378788,-0.15576,-6.55709,0.179294,
2,1,0,1,0,22800.5,0.181081,0.180773,1.06627,12,0.0141576,10,0.000192752,-2.97213,-0.402099,-0.14673,-6.11377,0.180773,
2,1,0,1,0,22800.6,0.182579,0.182296,1.05705,12,0.0142386,10,0.000192696,-2.9759,-0.374702,-0.157459,-6.49281,0.182296,
2,1,0,1,0,22800.7,0.184077,0.183808,1.05085,12,0.0143189,10,0.000193154,-2.97846,-0.428004,-0.137849,-5.64452,0.183808,
2,1,0,1,0,22800.7,0.185577,0.185275,1.04121,12,0.0143986,10,0.00019291,-2.98246,-0.559044,-0.105537,-4.2965,0.185275,
2,1,0,1,0,22800.8,0.187073,0.186744,1.03606,12,0.0144775,10,0.000193478,-2.98461,-0.737072,-0.0800465,-3.23067,0.186744,
2,1,0,1,0,22800.9,0.188572,0.188228,1.02867,12,0.0145563,10,0.000193624,-2.98773,-0.6502,-0.0907413,-3.64008,0.188228,
2,1,0,1,0,22801,0.19007,0.189783,1.02562,12,0.0146346,10,0.000194644,-2.98901,-0.667561,-0.0883815,-3.53137,0.189783,
2,1,0,1,0,22801,0.191568,0.191279,1.01419,12,0.0147122,10,0.000193993,-2.99388,-0.601434,-0.0980989,-3.89282,0.191279,
2,1,0,1,0,22801.1,0.193066,0.192756,1.00997,12,0.0147896,10,0.000194677,-2.99569,-1.25664,-0.0469508,-1.84894,0.1927564,
2,1,0,1,0,22801.2,0.194564,0.194291,1.00721,12,0.0148667,10,0.000195693,-2.99688,-0.688925,-0.0856407,-3.3676,0.194291,
2,1,0,1,0,22801.3,0.196063,0.195764,1.00384,12,0.0149435,10,0.000196516,-2.99833,-0.52598,-0.112172,-4.3929,0.195764,
2,1,0,1,0,22801.3,0.197561,0.197235,0.994862,12,0.0150198,10,0.000196221,-3.00224,-0.80814,-0.0730071,-2.84817,0.1972346,
2,1,0,1,0,22801.4,0.199059,0.198749,0.995608,12,0.0150957,10,0.000197877,-3.00191,-1.11059,-0.0531251,-2.06209,0.198749,
2,1,0,1,0,22801.5,0.200557,0.200225,0.99206,12,0.0151715,10,0.000198635,-3.00346,-1.27427,-0.0463011,-1.78975,0.200225,
2,1,0,1,0,22801.6,0.202057,0.201769,0.986863,12,0.0152472,10,0.000199118,-3.00574,-0.80781,-0.073037,-2.81647,0.201769,
2,1,0,1,0,22801.6,0.203552,0.203221,0.984493,12,0.0153223,10,0.00020007,-3.00679,-1.10992,-0.0531572,-2.04345,0.2032215,
2,1,0,1,0,22801.7,0.205052,0.204792,0.979831,12,0.0153974,10,0.000200662,-3.00885,8.87236,0.00664986,0.256016,0.204792,
2,1,0,1,0,22801.8,0.20655,0.206269,0.976717,12,0.0154722,10,0.000201467,-3.01023,-2.51079,-0.0234986,-0.897902,0.206269,
2,1,0,1,0,22801.9,0.208048,0.207746,0.974723,12,0.0155471,10,0.000202494,-3.01112,-1.00696,-0.0585919,-2.22969,0.2077456,
2,1,0,1,0,22801.9,0.209546,0.209269,0.974038,12,0.0156215,10,0.000203836,-3.01142,-0.858899,-0.0686926,-2.61225,0.209269,
2,1,0,1,0,22802,0.211044,0.210759,0.969204,12,0.0156956,10,0.000204269,-3.01358,-1.09363,-0.0539487,-2.0435,0.210759,
2,1,0,1,0,22802.1,0.212543,0.212243,0.967535,12,0.0157696,10,0.000205352,-3.01433,-1.36524,-0.043216,-1.6302,0.212243,
2,1,0,1,0,22802.2,0.214041,0.213779,0.967295,12,0.0158434,10,0.000206788,-3.01444,-2.02588,-0.0291232,-1.09721,0.213779,
2,1,0,1,0,22802.2,0.215539,0.215258,0.963028,12,0.015917,10,0.0002073,-3.01636,-1.07833,-0.0547141,-2.05793,0.215258,
2,1,0,1,0,22802.3,0.217037,0.216699,0.957913,12,0.0159903,10,0.000207578,-3.01867,-1.59541,-0.0369811,-1.38624,0.216699,
2,1,0,1,0,22802.4,0.218536,0.218236,0.958438,12,0.0160637,10,0.000209166,-3.01844,-22.2036,-0.00265723,-0.0993264,0.218236,
2,1,0,1,0,22802.5,0.220032,0.219746,0.960017,12,0.0161368,10,0.000210959,-3.01772,-1.41804,-0.0416067,-1.55672,0.219746,
2,1,0,1,0,22802.5,0.221532,0.22125,0.955279,12,0.0162098,10,0.000211356,-3.01987,-1.63398,-0.0361081,-1.34499,0.22125,
2,1,0,1,0,22802.6,0.22303,0.222734,0.947235,12,0.0162827,10,0.000210982,-3.02354,-1.20535,-0.0489486,-1.81484,0.222734,
2,1,0,1,0,22802.7,0.224528,0.22422,0.948823,12,0.0163553,10,0.000212745,-3.02281,-1.22163,-0.0482962,-1.79431,0.22422,
2,1,0,1,0,22802.8,0.226026,0.225749,0.948521,12,0.0164278,10,0.000214127,-3.02295,-2.79675,-0.021096,-0.781403,0.225749,
2,1,0,1,0,22802.8,0.227525,0.227244,0.948594,12,0.0165001,10,0.000215563,-3.02292,-0.748619,-0.0788118,-2.90822,0.2272443,
2,1,0,1,0,22802.9,0.229023,0.228764,0.943083,12,0.0165724,10,0.000215743,-3.02545,-1.79628,-0.0328457,-1.2101,0.228764,
2,1,0,1,0,22803,0.230521,0.230261,0.942196,12,0.0166444,10,0.000216951,-3.02586,-1.82278,-0.0323682,-1.18985,0.230261,
2,1,0,1,0,22803.1,0.232019,0.231728,0.943032,12,0.0167163,10,0.000218527,-3.02547,-1.99499,-0.0295741,-1.08668,0.2317279,
2,1,0,1,0,22803.1,0.233517,0.233199,0.941376,12,0.0167881,10,0.000219528,-3.02624,-1.48875,-0.0396306,-1.45038,0.233199,
2,1,0,1,0,22803.2,0.235016,0.234749,0.937188,12,0.0168599,10,0.000220004,-3.02817,-1.41668,-0.0416467,-1.52221,0.234749,
2,1,0,1,0,22803.3,0.236512,0.236195,0.934169,12,0.0169312,10,0.000220646,-3.02957,-2.06019,-0.0286381,-1.04604,0.236195,
2,1,0,1,0,22803.4,0.238012,0.237694,0.935874,12,0.0170027,10,0.000222451,-3.02878,41.6294,0.00141727,0.0516195,0.237694,
2,1,0,1,0,22803.4,0.23951,0.239196,0.933535,12,0.017074,10,0.000223298,-3.02987,-2.17638,-0.0271092,-0.987344,0.239196,
2,1,0,1,0,22803.5,0.241008,0.240754,0.929409,12,0.0171453,10,0.000223759,-3.03179,-1.56737,-0.0376428,-1.36611,0.2407539,
2,1,0,1,0,22803.6,0.242506,0.242188,0.92731,12,0.0172163,10,0.000224584,-3.03278,-1.19366,-0.0494276,-1.79225,0.242188,
2,1,0,1,0,22803.7,0.244005,0.243692,0.927452,12,0.0172871,10,0.000226013,-3.03271,-3.42049,-0.017249,-0.625432,0.243692,
2,1,0,1,0,22803.7,0.245503,0.245204,0.929004,12,0.017358,10,0.000227796,-3.03198,-1.32499,-0.0445287,-1.60918,0.245204,
2,1,0,1,0,22803.8,0.247001,0.246684,0.925069,12,0.0174288,10,0.000228199,-3.03383,-2.43884,-0.0241919,-0.87162,0.246684,
2,1,0,1,0,22803.9,0.248501,0.248206,0.92082,12,0.0174994,10,0.000228553,-3.03583,-1.44694,-0.0407758,-1.46846,0.248206,
2,1,0,1,0,22804,0.249997,0.249676,0.922648,12,0.0175697,10,0.000230363,-3.03496,-1.75244,-0.0336674,-1.21022,0.249676,
2,1,0,1,0,22804,0.251496,0.251192,0.921155,12,0.0176402,10,0.000231387,-3.03567,-3.45763,-0.0170637,-0.613,0.251192,
2,1,0,1,0,22804.1,0.252994,0.252701,0.916697,12,0.0177104,10,0.00023165,-3.03777,-0.95597,-0.0617174,-2.20897,0.252701,
2,1,0,1,0,22804.2,0.254492,0.254182,0.915625,12,0.0177806,10,0.000232735,-3.03828,-1.22932,-0.0479942,-1.71836,0.254182,
2,1,0,1,0,22804.2,0.25599,0.255665,0.912756,12,0.0178504,10,0.00023336,-3.03965,-4.37086,-0.0134985,-0.483278,0.255665,
2,1,0,1,0,22804.3,0.257488,0.257207,0.916157,12,0.0179203,10,0.000235642,-3.03803,-3.49225,-0.0168945,-0.601659,0.257207,
2,1,0,1,0,22804.4,0.258987,0.258693,0.914468,12,0.0179902,10,0.000236567,-3.03883,-1.57354,-0.0374951,-1.33551,0.2586931,
2,1,0,1,0,22804.5,0.260485,0.260179,0.913488,12,0.01806,10,0.000237671,-3.0393,-1.19464,-0.0493874,-1.75639,0.260179,
2,1,0,1,0,22804.5,0.261983,0.261685,0.909909,12,0.0181294,10,0.00023811,-3.041,-1.26901,-0.0464931,-1.64906,0.261685,
2,1,0,1,0,22804.6,0.263481,0.26317,0.910389,12,0.0181988,10,0.000239587,-3.04077,-3.98768,-0.0147956,-0.523078,0.26317,
2,1,0,1,0,22804.7,0.264981,0.264675,0.905929,12,0.0182683,10,0.000239776,-3.04291,-2.56681,-0.0229857,-0.81187,0.264675,
2,1,0,1,0,22804.8,0.266476,0.266151,0.905666,12,0.0183375,10,0.000241044,-3.04303,-1.93387,-0.0305088,-1.07894,0.2661505,
2,1,0,1,0,22804.8,0.267976,0.267632,0.900619,12,0.0184065,10,0.000241035,-3.04546,-1.90946,-0.0308988,-1.08871,0.267632,
2,1,0,1,0,22804.9,0.269474,0.269179,0.900092,12,0.0184754,10,0.000242286,-3.04571,-5.21292,-0.011318,-0.397955,0.269179,
2,1,0,1,0,22805,0.270972,0.270667,0.902964,12,0.0185443,10,0.000244402,-3.04433,-1.39349,-0.0423398,-1.48616,0.270667,
2,1,0,1,0,22805.1,0.27247,0.272175,0.898108,12,0.0186131,10,0.000244443,-3.04667,-1.49234,-0.0395352,-1.38434,0.272175,
2,1,0,1,0,22805.1,0.273968,0.273649,0.896776,12,0.0186817,10,0.000245402,-3.04732,-1.47818,-0.0399141,-1.39897,0.273649,
2,1,0,1,0,22805.2,0.275467,0.275139,0.894202,12,0.0187501,10,0.00024603,-3.04856,-1.46241,-0.0403444,-1.40912,0.275139,
2,1,0,1,0,22805.3,0.276965,0.27665,0.895225,12,0.0188185,10,0.000247664,-3.04807,-1.66558,-0.035423,-1.23351,0.27665,
2,1,0,1,0,22805.4,0.278463,0.278163,0.893982,12,0.0188868,10,0.000248672,-3.04867,-1.24186,-0.0475095,-1.65021,0.278163,
2,1,0,1,0,22805.4,0.279961,0.279629,0.890391,12,0.0189548,10,0.000248979,-3.05042,-1.17756,-0.0501035,-1.74138,0.279629,
2,1,0,1,0,22805.5,0.28146,0.281156,0.887859,12,0.0190228,10,0.000249627,-3.05166,-1.77475,-0.033244,-1.15218,0.281156,
2,1,0,1,0,22805.6,0.282956,0.2826,0.8863,12,0.0190905,10,0.000250468,-3.05242,-2.12634,-0.0277472,-0.958073,0.2826,
2,1,0,1,0,22805.7,0.284456,0.284148,0.885919,12,0.0191584,10,0.000251732,-3.05261,-2.42421,-0.0243378,-0.839181,0.284148,
2,1,0,1,0,22805.7,0.285954,0.285681,0.882324,12,0.019226,10,0.000252063,-3.05437,-1.82981,-0.0322439,-1.11201,0.285681,
2,1,0,1,0,22805.8,0.287452,0.287107,0.879752,12,0.0192933,10,0.000252583,-3.05564,-2.91346,-0.0202508,-0.696508,0.287107,
2,1,0,1,0,22805.9,0.28895,0.28865,0.877549,12,0.0193606,10,0.000253305,-3.05673,-4.59932,-0.012828,-0.440152,0.2886503,
2,1,0,1,0,22806,0.290449,0.290144,0.878926,12,0.0194278,10,0.000255015,-3.05605,-1.43854,-0.0410139,-1.40588,0.290144,
2,1,0,1,0,22806,0.291947,0.29165,0.876901,12,0.0194949,10,0.000255748,-3.05705,-0.760522,-0.0775783,-2.65327,0.29165,
2,1,0,1,0,22806.1,0.293445,0.293087,0.869471,12,0.0195617,10,0.000254831,-3.06074,-1.83218,-0.0322022,-1.09771,0.293087,
2,1,0,1,0,22806.2,0.294943,0.294609,0.873605,12,0.0196284,10,0.000257372,-3.05868,9.76055,0.00604474,0.205438,0.294609,
2,1,0,1,0,22806.3,0.296441,0.296158,0.873929,12,0.0196951,10,0.000258821,-3.05852,-1.58032,-0.0373342,-1.27086,0.296158,
2,1,0,1,0,22806.3,0.29794,0.297677,0.869047,12,0.0197618,10,0.000258696,-3.06096,-1.86861,-0.0315742,-1.07023,0.297677,
2,1,0,1,0,22806.4,0.299436,0.299161,0.863835,12,0.019828,10,0.000258426,-3.06357,-0.00276049,-21.373,-369.789,0.299161,
2,1,0,1,0,22806.5,0.299739,0.29943,0.493447,12,0.0198608,10,0.000147753,-3.30676,0.00112843,52.2848,771.538,0.29943,
2,1,0,1,0,22806.5,0.298239,0.29793,-0.0280639,12,0.0198705,10,-8.36109e-06,-4.55185,0.00515557,11.4439,256.945,0.29793,
2,0,0,1,0,22806.6,0.296741,0.296429,-0.126364,12,0.0198627,10,-3.74579e-05,-3.89838,-0.00654598,-9.01317,58.6739,0.296429,
2,0,0,1,0,22806.7,0.295243,0.294959,-0.175884,12,0.0198497,10,-5.18788e-05,-3.75477,-0.0124861,-4.72526,28.3016,0.294959,
2,0,0,1,0,22806.8,0.293745,0.293412,-0.211551,12,0.0198338,10,-6.20717e-05,-3.67458,-0.0220896,-2.67094,20.8561,0.293412,
2,0,0,1,0,22806.8,0.292246,0.29195,-0.236567,12,0.0198157,10,-6.90659e-05,-3.62605,-0.0308033,-1.91538,17.259,0.29195,
2,0,0,1,0,22806.9,0.290748,0.290421,-0.260764,12,0.0197957,10,-7.57313e-05,-3.58375,-0.0402978,-1.4641,14.5538,0.290421,
2,0,0,1,0,22807,0.28925,0.289009,-0.278169,12,0.019774,10,-8.03932e-05,-3.55569,-0.0503793,-1.17112,12.6335,0.289009,
2,0,0,1,0,22807.1,0.287752,0.287484,-0.295928,12,0.019751,10,-8.50745e-05,-3.52881,-0.0651796,-0.905191,10.3676,0.287484,
2,0,0,1,0,22807.1,0.286254,0.285983,-0.308239,12,0.019727,10,-8.8151e-05,-3.51111,-0.0706323,-0.835312,10.1354,0.285983,
2,0,0,1,0,22807.2,0.284754,0.284445,-0.324838,12,0.0197017,10,-9.23985e-05,-3.48833,-0.0704465,-0.837515,10.5255,0.284445,
2,0,0,1,0,22807.3,0.283259,0.282979,-0.340673,12,0.0196754,10,-9.6403e-05,-3.46766,-0.090458,-0.652236,8.56934,0.282979,
2,0,0,1,0,22807.4,0.281759,0.281447,-0.351424,12,0.019648,10,-9.89073e-05,-3.45417,-0.103768,-0.568577,7.77121,0.281447,
2,0,0,1,0,22807.4,0.280261,0.279961,-0.360198,12,0.0196199,10,-0.000100842,-3.44346,-0.106103,-0.556062,7.88276,0.279961,
2,0,0,1,0,22807.5,0.278763,0.278443,-0.372468,12,0.0195909,10,-0.000103711,-3.42891,-0.128611,-0.458749,6.66677,0.278443,
2,0,0,1,0,22807.6,0.277264,0.276985,-0.383519,12,0.0195611,10,-0.000106229,-3.41621,-0.133953,-0.440452,6.58059,0.276985,
2,0,0,1,0,22807.7,0.275766,0.27547,-0.394886,12,0.0195305,10,-0.000108779,-3.40353,-0.156949,-0.375918,5.77626,0.27547,
2,0,0,1,0,22807.7,0.274268,0.273966,-0.404644,12,0.0194992,10,-0.000110859,-3.39293,-0.160056,-0.36862,5.81321,0.273966,
2,0,0,1,0,22807.8,0.27277,0.272494,-0.413256,12,0.0194673,10,-0.00011261,-3.38378,-0.151259,-0.39006,6.30901,0.272494,
2,0,0,1,0,22807.9,0.271272,0.270997,-0.420401,12,0.0194347,10,-0.000113928,-3.37634,-0.148313,-0.397808,6.52601,0.270997,
2,0,0,1,0,22808,0.269774,0.269484,-0.432974,12,0.0194013,10,-0.000116679,-3.36354,-0.183853,-0.320908,5.36561,0.269484,
2,0,0,1,0,22808,0.268274,0.267942,-0.440816,12,0.0193673,10,-0.000118113,-3.35574,-0.201308,-0.293084,5.01971,0.267942,
2,0,0,1,0,22808.1,0.266779,0.266423,-0.444547,12,0.0193329,10,-0.000118438,-3.35208,-0.198148,-0.297757,5.17909,0.266423,
2,0,0,1,0,22808.2,0.265279,0.264949,-0.45349,12,0.0192977,10,-0.000120152,-3.34343,-0.163482,-0.360896,6.37477,0.264949,
2,0,0,1,0,22808.3,0.263781,0.263485,-0.461158,12,0.0192619,10,-0.000121508,-3.33615,-0.199245,-0.296117,5.33805,0.2634846,
2,0,0,1,0,22808.3,0.262283,0.261936,-0.468074,12,0.0192257,10,-0.000122606,-3.32969,-0.199481,-0.295768,5.41338,0.261936,
2,0,0,1,0,22808.4,0.260784,0.260479,-0.472088,12,0.0191889,10,-0.000122969,-3.32598,-0.206549,-0.285646,5.30422,0.260479,
2,0,0,1,0,22808.5,0.259286,0.258986,-0.482962,12,0.0191516,10,-0.00012508,-3.31609,-0.252701,-0.233477,4.38748,0.258986,
2,0,0,1,0,22808.6,0.257788,0.257466,-0.492983,12,0.0191138,10,-0.000126926,-3.30717,-0.261604,-0.225531,4.30398,0.257466,
2,0,0,1,0,22808.6,0.25629,0.256003,-0.49798,12,0.0190754,10,-0.000127484,-3.30279,-0.264105,-0.223396,4.30754,0.2560026,
2,0,0,1,0,22808.7,0.25479,0.254533,-0.501365,12,0.0190365,10,-0.000127614,-3.29985,-0.264188,-0.223326,4.38772,0.254533,
2,0,0,1,0,22808.8,0.253294,0.253024,-0.509032,12,0.0189973,10,-0.000128797,-3.29325,-0.234723,-0.25136,5.00898,0.253024,
2,0,0,1,0,22808.9,0.251795,0.251471,-0.515572,12,0.0189575,10,-0.000129652,-3.28771,-0.278529,-0.211827,4.27309,0.251471,
2,0,0,1,0,22808.9,0.250297,0.249981,-0.52083,12,0.0189173,10,-0.000130198,-3.2833,-0.40122,-0.147051,2.98465,0.249981,
2,0,0,1,0,22809,0.248799,0.248477,-0.527144,12,0.0188766,10,-0.000130983,-3.27807,-0.368107,-0.160279,3.29812,0.248477,
2,0,0,1,0,22809.1,0.247301,0.246967,-0.532649,12,0.0188356,10,-0.000131547,-3.27356,-0.371699,-0.158731,3.30254,0.246967,
2,0,0,1,0,22809.2,0.245802,0.245492,-0.539139,12,0.018794,10,-0.000132354,-3.2683,-0.294413,-0.200399,4.20314,0.245492,
2,0,0,1,0,22809.2,0.244304,0.243982,-0.545337,12,0.0187519,10,-0.000133052,-3.26334,-0.354595,-0.166387,3.52995,0.243982,
2,0,0,1,0,22809.3,0.242806,0.242513,-0.548874,12,0.0187095,10,-0.000133109,-3.26053,-0.429547,-0.137354,2.94797,0.242513,
2,0,0,1,0,22809.4,0.241308,0.240983,-0.552845,12,0.0186667,10,-0.000133227,-3.2574,-0.38661,-0.152609,3.31535,0.2409834,
2,0,0,1,0,22809.5,0.23981,0.239527,-0.561638,12,0.0186235,10,-0.000134527,-3.25054,-0.264641,-0.222944,4.88666,0.239527,
2,0,0,1,0,22809.5,0.23831,0.23802,-0.566626,12,0.0185797,10,-0.000134868,-3.2467,-0.302054,-0.19533,4.32504,0.23802,
2,0,0,1,0,22809.6,0.236815,0.236517,-0.569778,12,0.0185357,10,-0.000134762,-3.24429,-0.435617,-0.13544,3.0194,0.236517,
2,0,0,1,0,22809.7,0.235315,0.235008,-0.573101,12,0.0184912,10,-0.000134684,-3.24177,-0.353499,-0.166903,3.75574,0.2350084,
2,0,0,1,0,22809.8,0.233817,0.233499,-0.580296,12,0.0184463,10,-0.000135498,-3.23635,-0.382206,-0.154367,3.52237,0.233499,
2,0,0,1,0,22809.8,0.232319,0.231978,-0.591932,12,0.0184011,10,-0.000137315,-3.22773,-0.414541,-0.142326,3.2705,0.231978,
2,0,0,1,0,22809.9,0.230821,0.230526,-0.594669,12,0.0183553,10,-0.000137087,-3.22572,-0.494158,-0.119395,2.74825,0.2305263,
2,0,0,1,0,22810,0.229322,0.229028,-0.595104,12,0.0183092,10,-0.000136296,-3.22541,-0.418584,-0.140951,3.29572,0.229028,
2,0,0,1,0,22810.1,0.227824,0.22749,-0.607679,12,0.0182627,10,-0.000138241,-3.21633,-0.428015,-0.137846,3.25801,0.22749,
2,0,0,1,0,22810.1,0.226326,0.22604,-0.610914,12,0.0182159,10,-0.000138091,-3.21402,-0.423311,-0.139377,3.32219,0.22604,
2,0,0,1,0,22810.2,0.224828,0.224538,-0.613845,12,0.0181686,10,-0.000137831,-3.21194,-0.525837,-0.112202,2.68525,0.224538,
2,0,0,1,0,22810.3,0.22333,0.223027,-0.622902,12,0.0181209,10,-0.000138924,-3.20558,-0.431909,-0.136603,3.30463,0.223027,
2,0,0,1,0,22810.4,0.22183,0.22151,-0.627499,12,0.0180729,10,-0.000138997,-3.20239,-0.368107,-0.160279,3.90168,0.22151,
2,0,0,1,0,22810.4,0.220335,0.220032,-0.62996,12,0.0180245,10,-0.000138612,-3.20069,-0.318674,-0.185142,4.53299,0.220032,
2,0,0,1,0,22810.5,0.218835,0.218457,-0.634678,12,0.0179756,10,-0.00013865,-3.19745,-0.353743,-0.166788,4.12912,0.2184568,
2,0,0,1,0,22810.6,0.217337,0.217005,-0.6408,12,0.0179264,10,-0.000139057,-3.19328,-0.636167,-0.0927429,2.31818,0.217005,
2,0,0,1,0,22810.7,0.215839,0.215507,-0.643338,12,0.0178769,10,-0.000138644,-3.19156,-0.394507,-0.149554,3.76264,0.215507,
2,0,0,1,0,22810.7,0.21434,0.213995,-0.649078,12,0.017827,10,-0.000138899,-3.1877,-0.368606,-0.160063,4.05905,0.213995,
2,0,0,1,0,22810.8,0.212842,0.212545,-0.65649,12,0.0177767,10,-0.000139534,-3.18277,-0.378701,-0.155796,3.98384,0.212545,
2,0,0,1,0,22810.9,0.211344,0.211056,-0.660931,12,0.017726,10,-0.000139494,-3.17984,-0.537089,-0.109851,2.83124,0.211056,
2,0,0,1,0,22811,0.209846,0.209555,-0.662311,12,0.0176749,10,-0.000138791,-3.17894,-0.444194,-0.132825,3.45115,0.209555,
2,0,0,1,0,22811,0.208348,0.208017,-0.669808,12,0.0176235,10,-0.000139331,-3.17405,-0.345165,-0.170933,4.48379,0.208017,
2,0,0,1,0,22811.1,0.20685,0.206524,-0.680691,12,0.0175715,10,-0.000140579,-3.16705,-0.385182,-0.153174,4.04189,0.206524,
2,0,0,1,0,22811.2,0.20535,0.205036,-0.681642,12,0.0175189,10,-0.000139761,-3.16644,-0.6124,-0.0963423,2.55616,0.205036,
2,0,0,1,0,22811.3,0.203855,0.203528,-0.686073,12,0.0174662,10,-0.000139635,-3.16363,-0.503131,-0.117266,3.15424,0.203528,
2,0,0,1,0,22811.3,0.202355,0.20205,-0.690988,12,0.0174131,10,-0.000139614,-3.16053,-0.409713,-0.144003,3.90109,0.20205,
2,0,0,1,0,22811.4,0.200857,0.200533,-0.700134,12,0.0173596,10,-0.0001404,-3.15482,-0.386336,-0.152717,4.15532,0.200533,
2,0,0,1,0,22811.5,0.199359,0.199016,-0.706409,12,0.0173055,10,-0.000140587,-3.15094,-0.512813,-0.115052,3.16004,0.199016,
2,0,0,1,0,22811.6,0.19786,0.197553,-0.712161,12,0.017251,10,-0.000140689,-3.14742,-0.442457,-0.133346,3.69203,0.197553,
2,0,0,1,0,22811.6,0.196362,0.196058,-0.715459,12,0.0171963,10,-0.000140272,-3.14542,-0.431642,-0.136687,3.82077,0.196058,
2,0,0,1,0,22811.7,0.194864,0.194531,-0.721683,12,0.017141,10,-0.000140389,-3.14165,-0.347655,-0.169708,4.76594,0.194531,
2,0,0,1,0,22811.8,0.193366,0.193058,-0.730665,12,0.0170851,10,-0.000141061,-3.13628,-0.355245,-0.166083,4.72197,0.193058,
2,0,0,1,0,22811.9,0.191866,0.191553,-0.737572,12,0.0170288,10,-0.000141284,-3.1322,-0.405479,-0.145507,4.18855,0.191553,
2,0,0,1,0,22811.9,0.19037,0.190008,-0.738785,12,0.0169722,10,-0.000140375,-3.13148,-0.412492,-0.143033,4.15338,0.1900083,
2,0,0,1,0,22812,0.188871,0.188547,-0.748681,12,0.016915,10,-0.000141161,-3.1257,-0.335883,-0.175657,5.11659,0.188547,
2,0,0,1,0,22812.1,0.187373,0.187073,-0.755323,12,0.0168572,10,-0.0001413,-3.12187,-0.272611,-0.216425,6.37057,0.187073,
2,0,0,1,0,22812.2,0.185875,0.185578,-0.76136,12,0.016799,10,-0.000141292,-3.11841,-0.454978,-0.129677,3.84418,0.1855779,
2,0,0,1,0,22812.2,0.184377,0.184062,-0.765593,12,0.0167403,10,-0.000140917,-3.116,-0.353808,-0.166757,5.01176,0.184062,
2,0,0,1,0,22812.3,0.182878,0.182617,-0.775077,12,0.0166811,10,-0.000141542,-3.11066,-0.332881,-0.17724,5.37013,0.182617,
2,0,0,1,0,22812.4,0.18138,0.181072,-0.785701,12,0.0166211,10,-0.000142269,-3.10474,-0.306669,-0.19239,5.89289,0.181072,
2,0,0,1,0,22812.5,0.179882,0.179554,-0.794486,12,0.0165605,10,-0.000142653,-3.09991,-0.401943,-0.146787,4.53234,0.179554,
2,0,0,1,0,22812.5,0.178384,0.178067,-0.800096,12,0.0164993,10,-0.000142471,-3.09686,-0.318005,-0.185532,5.80142,0.178067,
2,0,0,1,0,22812.6,0.176886,0.176583,-0.808748,12,0.0164376,10,-0.000142811,-3.09219,-0.279335,-0.211216,6.69041,0.176583,
2,0,0,1,0,22812.7,0.175386,0.175087,-0.823433,12,0.016375,10,-0.000144172,-3.08437,-0.295914,-0.199382,6.37618,0.175087,
2,0,0,1,0,22812.8,0.173891,0.173552,-0.832825,12,0.0163118,10,-0.000144538,-3.07945,-0.24432,-0.241486,7.82914,0.173552,
2,0,0,1,0,22812.8,0.172391,0.172068,-0.842462,12,0.0162476,10,-0.000144961,-3.07445,-0.2553,-0.231101,7.59054,0.172068,
2,0,0,1,0,22812.9,0.170893,0.170589,-0.850442,12,0.0161828,10,-0.000145076,-3.07036,-0.265591,-0.222146,7.38949,0.170589,
2,0,0,1,0,22813,0.169395,0.169108,-0.865311,12,0.016117,10,-0.000146331,-3.06283,-0.220378,-0.267722,9.05991,0.169108,
2,0,0,1,0,22813.1,0.167897,0.167569,-0.879305,12,0.0160502,10,-0.000147344,-3.05586,-0.220796,-0.267215,9.17182,0.167569,
2,0,0,1,0,22813.1,0.166398,0.166059,-0.890439,12,0.0159825,10,-0.000147865,-3.0504,-0.232321,-0.253959,8.85645,0.166059,
2,0,0,1,0,22813.2,0.1649,0.164568,-0.902051,12,0.0159137,10,-0.000148449,-3.04477,-0.204994,-0.287813,10.1753,0.1645679,
2,0,0,1,0,22813.3,0.163402,0.163062,-0.922811,12,0.0158439,10,-0.000150475,-3.03489,-0.178777,-0.33002,11.9008,0.163062,
2,0,0,1,0,22813.4,0.161904,0.161593,-0.941667,12,0.0157727,10,-0.000152167,-3.0261,-0.177339,-0.332696,12.1931,0.161593,
2,0,0,1,0,22813.4,0.160406,0.160091,-0.960352,12,0.0157001,10,-0.000153744,-3.01757,-0.177895,-0.331657,12.402,0.160091,
2,0,0,1,0,22813.5,0.158906,0.158576,-0.977825,12,0.0156259,10,-0.00015506,-3.00974,-0.157099,-0.37556,14.4069,0.158576,
2,0,0,1,0,22813.6,0.157411,0.157058,-1.00283,12,0.0155504,10,-0.000157503,-2.99877,-0.137067,-0.430445,16.9312,0.157058,
2,0,0,1,0,22813.7,0.155911,0.155626,-1.03013,12,0.0154727,10,-0.000160316,-2.98711,-0.127581,-0.46245,18.6147,0.155626,
2,0,0,1,0,22813.7,0.154413,0.154044,-1.05591,12,0.0153929,10,-0.000162657,-2.97637,-0.129413,-0.455903,18.8065,0.154044,
2,0,0,1,0,22813.8,0.152915,0.152602,-1.08915,12,0.015311,10,-0.000166206,-2.96291,-0.116599,-0.506008,21.5486,0.152602,
2,0,0,1,0,22813.9,0.151417,0.151088,-1.12389,12,0.0152268,10,-0.000169807,-2.94927,-0.102843,-0.573688,25.2679,0.151088,
2,0,0,1,0,22814,0.149918,0.149594,-1.16246,12,0.0151399,10,-0.000173897,-2.93462,-0.0953378,-0.618852,28.152,0.1495938,
2,0,0,1,0,22814,0.14842,0.148112,-1.20688,12,0.0150497,10,-0.000178754,-2.91834,-0.0915916,-0.644164,30.3351,0.148112,
2,0,0,1,0,22814.1,0.146922,0.1466,-1.25481,12,0.014956,10,-0.000183956,-2.90142,-0.0880264,-0.670253,32.8635,0.1466,
2,0,0,1,0,22814.2,0.145424,0.145122,-1.30455,12,0.0148588,10,-0.000189318,-2.88454,-0.083488,-0.706689,36.1447,0.145122,
2,0,0,1,0,22814.3,0.143926,0.143619,-1.36447,12,0.0147574,10,-0.000195965,-2.86503,-0.0747489,-0.789309,42.0567,0.1436193,
2,0,0,1,0,22814.3,0.142426,0.142107,-1.42854,12,0.0146512,10,-0.000203007,-2.84511,-0.0769566,-0.766666,42.8071,0.142107,
2,0,0,1,0,22814.4,0.140931,0.140645,-1.49323,12,0.0145403,10,-0.000210014,-2.82587,-0.0770842,-0.765397,44.6884,0.140645,
2,0,0,1,0,22814.5,0.139431,0.139109,-1.55867,12,0.0144242,10,-0.000216825,-2.80724,-0.0763371,-0.772888,47.243,0.139109,
2,0,0,1,0,22814.6,0.137933,0.137622,-1.6379,12,0.014303,10,-0.00022541,-2.78571,-0.0762595,-0.773674,49.4379,0.137622,
2,0,0,1,0,22814.6,0.136435,0.136078,-1.71443,12,0.0141759,10,-0.000233295,-2.76588,-0.0797466,-0.739843,49.3584,0.136078,
2,0,0,1,0,22814.7,0.134936,0.134631,-1.78811,12,0.0140431,10,-0.000240736,-2.74761,-0.0852637,-0.691971,48.1511,0.134631,
2,0,0,1,0,22814.8,0.133438,0.133092,-1.8606,12,0.0139049,10,-0.00024763,-2.73035,-0.0885789,-0.666073,48.369,0.133092,
2,0,0,1,0,22814.9,0.13194,0.131617,-1.93277,12,0.0137613,10,-0.000254386,-2.71382,-0.0954641,-0.618033,46.6366,0.131617,
2,0,0,1,0,22814.9,0.130442,0.130117,-2.00225,12,0.0136123,10,-0.000260527,-2.69848,-0.101123,-0.58345,45.4688,0.130117,
2,0,0,1,0,22815,0.128942,0.128587,-2.06844,12,0.013458,10,-0.000265976,-2.68436,-0.114611,-0.514785,41.4496,0.128587,
2,0,0,1,0,22815.1,0.127446,0.127108,-2.12973,12,0.0132994,10,-0.000270706,-2.67168,-0.125649,-0.469561,38.9288,0.127108,
2,0,0,1,0,22815.2,0.125947,0.12564,-2.18309,12,0.0131363,10,-0.000274283,-2.66093,-0.143795,-0.410307,34.8948,0.12564,
2,0,0,1,0,22815.2,0.124449,0.124125,-2.23338,12,0.0129693,10,-0.000277219,-2.65104,-0.158673,-0.371834,32.3055,0.124125,
2,0,0,1,0,22815.3,0.122951,0.122632,-2.27921,12,0.0127987,10,-0.000279504,-2.64222,-0.18413,-0.320427,28.4317,0.122632,
2,0,0,1,0,22815.4,0.121453,0.121131,-2.31781,12,0.0126248,10,-0.000280758,-2.63492,-0.220861,-0.267137,24.1126,0.121131,
2,0,0,1,0,22815.5,0.119955,0.119651,-2.3468,12,0.0124485,10,-0.000280797,-2.62952,-0.288649,-0.2044,18.7257,0.119651,
2,0,0,1,0,22815.5,0.118456,0.118095,-2.37511,12,0.01227,10,-0.000280487,-2.62432,-0.314504,-0.187597,17.3695,0.1180945,
2,0,0,1,0,22815.6,0.116958,0.116622,-2.40347,12,0.0120894,10,-0.000280297,-2.61916,-0.477706,-0.123507,11.5453,0.116622,
2,0,0,1,0,22815.7,0.11546,0.115151,-2.4147,12,0.0119074,10,-0.000278054,-2.61714,-0.790293,-0.0746559,7.02509,0.115151,
2,0,0,1,0,22815.8,0.113962,0.113673,-2.42255,12,0.0117247,10,-0.000275377,-2.61573,-1.37796,-0.0428169,4.04554,0.113673,
2,0,0,1,0,22815.8,0.112462,0.112116,-2.42937,12,0.0115412,10,-0.000272372,-2.61451,-2.95314,-0.0199788,1.8923,0.1121162,
2,0,0,1,0,22815.9,0.110967,0.110669,-2.43194,12,0.0113579,10,-0.000269141,-2.61405,5.52007,0.0106883,-1.01161,0.110669,
2,0,0,1,0,22816,0.109467,0.109189,-2.42771,12,0.0111742,10,-0.000265079,-2.6148,1.10806,0.0532464,-5.02978,0.109189,
2,0,0,1,0,22816.1,0.107969,0.107645,-2.41783,12,0.0109913,10,-0.000260268,-2.61657,0.816225,0.072284,-6.81345,0.107645,
2,0,0,1,0,22816.1,0.106471,0.106178,-2.40393,12,0.0108094,10,-0.000255243,-2.61908,0.669545,0.0881196,-8.27223,0.106178,
2,0,0,1,0,22816.2,0.104973,0.104676,-2.38966,12,0.0106282,10,-0.00025014,-2.62166,0.571877,0.103169,-9.616,0.104676,
2,0,0,1,0,22816.3,0.103474,0.103168,-2.37768,12,0.010448,10,-0.000245301,-2.62385,0.463619,0.12726,-11.7977,0.103168,
2,0,0,1,0,22816.4,0.101976,0.101651,-2.36041,12,0.0102692,10,-0.000239939,-2.62701,0.39118,0.150826,-13.8649,0.1016513,
2,0,0,1,0,22816.4,0.100478,0.100158,-2.3333,12,0.0100921,10,-0.000233698,-2.63203,0.384236,0.153551,-13.9935,0.100158,
2,0,0,1,0,22816.5,0.0989798,0.0986613,-2.31612,12,0.00991654,10,-0.000228512,-2.63524,0.377853,0.156145,-14.0992,0.0986613,
2,0,0,1,0,22816.6,0.0974817,0.0971396,-2.29542,12,0.00974247,10,-0.000222977,-2.63914,0.368205,0.160237,-14.3413,0.0971396,
2,0,0,1,0,22816.7,0.0959821,0.0956698,-2.27148,12,0.00956982,10,-0.000217312,-2.64369,0.332202,0.177603,-15.7459,0.0956698,
2,0,0,1,0,22816.7,0.0944866,0.0941801,-2.24361,12,0.0093995,10,-0.000211303,-2.64905,0.35914,0.164281,-14.4173,0.09418007,
2,0,0,1,0,22816.8,0.0929871,0.092668,-2.22432,12,0.00923036,10,-0.000206123,-2.6528,0.421324,0.140035,-12.1698,0.092668,
2,0,0,1,0,22816.9,0.0914889,0.0911571,-2.20922,12,0.00906289,10,-0.000201386,-2.65576,0.404465,0.145872,-12.56,0.0911571,
2,0,0,1,0,22817,0.0899907,0.0896598,-2.18671,12,0.00889682,10,-0.00019606,-2.66021,0.376316,0.156783,-13.3642,0.0896598,
2,0,0,1,0,22817,0.0884925,0.088178,-2.16473,12,0.00873225,10,-0.000190881,-2.6646,0.372922,0.15821,-13.39,0.088178,
2,0,0,1,0,22817.1,0.0869943,0.0866662,-2.14986,12,0.00856927,10,-0.00018632,-2.66759,0.395682,0.14911,-12.5168,0.0866662,
2,0,0,1,0,22817.2,0.0854961,0.085186,-2.13532,12,0.00840742,10,-0.0001819,-2.67054,0.446186,0.132232,-11.0206,0.08518602,
2,0,0,1,0,22817.3,0.083998,0.0837311,-2.11893,12,0.00824672,10,-0.00017742,-2.67388,0.416701,0.141588,-11.6934,0.0837311,
2,0,0,1,0,22817.3,0.0824998,0.0821912,-2.10139,12,0.00808716,10,-0.000172716,-2.67749,0.463351,0.127333,-10.4558,0.0821912,
2,0,0,1,0,22817.4,0.081002,0.0806577,-2.08814,12,0.00792896,10,-0.000168425,-2.68024,0.59086,0.0998545,-8.147,0.0806577,
2,0,0,1,0,22817.5,0.0795025,0.079166,-2.07496,12,0.00777145,10,-0.000164266,-2.68299,0.588804,0.100203,-8.11083,0.079166,
2,0,0,1,0,22817.6,0.078007,0.0776643,-2.06371,12,0.00761519,10,-0.000160277,-2.68535,0.586884,0.100531,-8.0854,0.0776643,
2,0,0,1,0,22817.6,0.076507,0.0761478,-2.05134,12,0.00745945,10,-0.000156205,-2.68796,0.496403,0.118855,-9.49616,0.0761478,
2,0,0,1,0,22817.7,0.0750088,0.074739,-2.03289,12,0.00730515,10,-0.000151936,-2.69189,0.529723,0.111379,-8.85308,0.074739,
2,0,0,1,0,22817.8,0.0735106,0.0732083,-2.02359,12,0.0071518,10,-0.000148144,-2.69388,0.686694,0.0859189,-6.78004,0.07320831,
2,0,0,1,0,22817.9,0.0720124,0.0717026,-2.00869,12,0.0069992,10,-0.000144029,-2.69709,0.571589,0.103221,-8.09989,0.0717026,
2,0,0,1,0,22817.9,0.0705142,0.0701952,-1.99687,12,0.00684749,10,-0.000140171,-2.69965,0.511189,0.115417,-9.00596,0.0701952,
2,0,0,1,0,22818,0.069016,0.0687263,-1.98491,12,0.00669685,10,-0.000136416,-2.70226,0.554542,0.106394,-8.25375,0.0687263,
2,0,0,1,0,22818.1,0.0675179,0.0671993,-1.97741,12,0.00654716,10,-0.00013288,-2.7039,0.643705,0.0916569,-7.06849,0.0671993,
2,0,0,1,0,22818.2,0.0660179,0.0656969,-1.96844,12,0.00639802,10,-0.00012932,-2.70588,0.668801,0.0882176,-6.75539,0.0656969,
2,0,0,1,0,22818.2,0.0645224,0.0641923,-1.95461,12,0.00624997,10,-0.000125471,-2.70894,0.504514,0.116944,-8.89124,0.06419228,
2,0,0,1,0,22818.3,0.0630229,0.0626821,-1.93697,12,0.00610257,10,-0.000121413,-2.71288,0.513887,0.114811,-8.68818,0.0626821,
2,0,0,1,0,22818.4,0.0615251,0.0611973,-1.92546,12,0.00595651,10,-0.000117833,-2.71547,0.531396,0.111028,-8.35561,0.0611973,
2,0,0,1,0,22818.5,0.0600269,0.0597085,-1.91398,12,0.00581123,10,-0.000114281,-2.71806,0.567576,0.103951,-7.76816,0.0597085,
2,0,0,1,0,22818.5,0.0585287,0.0582357,-1.90221,12,0.0056667,10,-0.000110776,-2.72074,0.504447,0.11696,-8.66901,0.05823566,
2,0,0,1,0,22818.6,0.0570305,0.0567047,-1.89103,12,0.00552315,10,-0.00010723,-2.7233,0.537293,0.10981,-8.1027,0.0567047,
2,0,0,1,0,22818.7,0.0555323,0.0552017,-1.87648,12,0.00538075,10,-0.000103585,-2.72665,0.489271,0.120588,-8.84351,0.0552017,
2,0,0,1,0,22818.8,0.0540342,0.053717,-1.86742,12,0.00523916,10,-0.000100312,-2.72876,0.61164,0.096462,-7.02167,0.053717,
2,0,0,1,0,22818.8,0.052536,0.0521766,-1.85736,12,0.0050983,10,-9.6911e-05,-2.7311,0.526723,0.112013,-8.10249,0.0521766,
2,0,0,1,0,22818.9,0.0510378,0.0507141,-1.84295,12,0.0049584,10,-9.34633e-05,-2.73449,0.434043,0.135931,-9.77813,0.0507141,
2,0,0,1,0,22819,0.0495382,0.0492176,-1.82714,12,0.00481956,10,-8.99275e-05,-2.73823,0.484775,0.121706,-8.68187,0.0492176,
2,0,0,1,0,22819,0.0480427,0.0477167,-1.81072,12,0.00468199,10,-8.64016e-05,-2.74215,0.548505,0.107565,-7.60527,0.0477167,
2,0,0,1,0,22819.1,0.0465432,0.0462202,-1.80006,12,0.00454498,10,-8.3199e-05,-2.74471,0.513042,0.115,-8.0846,0.0462202,
2,0,0,1,0,22819.2,0.045045,0.0447134,-1.78647,12,0.00440913,10,-7.98793e-05,-2.748,0.421801,0.139876,-9.74778,0.0447134,
2,0,0,1,0,22819.3,0.0435468,0.043218,-1.77001,12,0.00427445,10,-7.64965e-05,-2.75202,0.424618,0.138948,-9.61375,0.043218,
2,0,0,1,0,22819.3,0.0420486,0.0417548,-1.75636,12,0.00414095,10,-7.33363e-05,-2.75539,0.449708,0.131196,-9.00757,0.0417548,
2,0,0,1,0,22819.4,0.0405504,0.0402214,-1.74822,12,0.00400829,10,-7.03158e-05,-2.7574,0.4156,0.141963,-9.65468,0.0402214,
2,0,0,1,0,22819.5,0.0390523,0.0387518,-1.73019,12,0.00387654,10,-6.70481e-05,-2.76191,0.374597,0.157503,-10.6285,0.0387518,
2,0,0,1,0,22819.6,0.0375541,0.0372267,-1.71334,12,0.00374608,10,-6.37819e-05,-2.76616,0.351136,0.168026,-11.2552,0.0372267,
2,0,0,1,0,22819.6,0.0360559,0.035751,-1.69974,12,0.00361689,10,-6.07672e-05,-2.76962,0.360746,0.16355,-10.8673,0.035751,
2,0,0,1,0,22819.7,0.0345577,0.0342528,-1.68512,12,0.00348863,10,-5.77199e-05,-2.77337,0.460331,0.128169,-8.42555,0.0342528,
2,0,0,1,0,22819.8,0.0330582,0.0327437,-1.67447,12,0.00336129,10,-5.48284e-05,-2.77612,0.370337,0.159314,-10.3815,0.0327437,
2,0,0,1,0,22819.9,0.0315626,0.0312211,-1.65825,12,0.00323538,10,-5.17725e-05,-2.78035,0.383443,0.153869,-9.94498,0.0312211,
2,0,0,1,0,22819.9,0.0300631,0.0297246,-1.63843,12,0.00311044,10,-4.87018e-05,-2.78557,0.408221,0.14453,-9.25799,0.02972459,
2,0,0,1,0,22820,0.0285649,0.0282672,-1.62824,12,0.00298658,10,-4.60258e-05,-2.78828,0.49561,0.119045,-7.55952,0.0282672,
2,0,0,1,0,22820.1,0.0270667,0.0267379,-1.6163,12,0.00286367,10,-4.32164e-05,-2.79148,0.43216,0.136524,-8.60489,0.0267379,
2,0,0,1,0,22820.2,0.0255685,0.0252921,-1.60095,12,0.00274175,10,-4.04912e-05,-2.79562,0.364201,0.161998,-10.1247,0.0252921,
2,0,0,1,0,22820.2,0.0240704,0.0238206,-1.5836,12,0.00262104,10,-3.77224e-05,-2.80035,0.406421,0.14517,-9.00144,0.0238206,
2,0,0,1,0,22820.3,0.0225722,0.0222784,-1.57281,12,0.00250124,10,-3.50397e-05,-2.80332,0.530192,0.111281,-6.83453,0.0222784,
2,0,0,1,0,22820.4,0.021074,0.0207599,-1.56427,12,0.00238228,10,-3.2474e-05,-2.80569,0.488422,0.120797,-7.37705,0.0207599,
2,0,0,1,0,22820.5,0.0195758,0.0192846,-1.55288,12,0.00226421,10,-2.99467e-05,-2.80886,0.416042,0.141813,-8.58473,0.0192846,
2,0,0,1,0,22820.5,0.018078,0.0177496,-1.53495,12,0.002147,10,-2.72448e-05,-2.81391,0.47655,0.123807,-7.44565,0.0177496,
2,0,0,1,0,22820.6,0.0165785,0.0162862,-1.52955,12,0.00203058,10,-2.49106e-05,-2.81544,0.569354,0.103626,-6.1965,0.0162862,
2,0,0,1,0,22820.7,0.015083,0.0147521,-1.52399,12,0.00191503,10,-2.2482e-05,-2.81702,0.657346,0.0897548,-5.32555,0.0147521,
2,0,0,1,0,22820.8,0.013583,0.0132755,-1.51258,12,0.00179972,10,-2.00803e-05,-2.82028,0.535303,0.110218,-6.49311,0.0132755,
2,0,0,1,0,22820.8,0.0120848,0.0117918,-1.50176,12,0.0016853,10,-1.77085e-05,-2.8234,0.58636,0.100621,-5.90998,0.01179183,
2,0,0,1,0,22820.9,0.0105866,0.0102575,-1.49434,12,0.00157166,10,-1.53282e-05,-2.82555,0.70734,0.0834111,-4.87057,0.0102575,
2,0,0,1,0,22821,0.00908845,0.00873135,-1.49085,12,0.00145839,10,-1.30171e-05,-2.82657,0.965808,0.0610888,-3.55547,0.008731355,
2,0,0,1,0,22821.1,0.00759027,0.00723922,-1.48633,12,0.00134555,10,-1.07599e-05,-2.82788,1.04186,0.0566295,-3.28227,0.00723922,
2,0,0,1,0,22821.1,0.00609208,0.00575314,-1.48229,12,0.00123306,10,-8.5278e-06,-2.82907,0.970399,0.0607997,-3.51124,0.00575314,
2,0,0,1,0,22821.2,0.00459389,0.00430582,-1.47626,12,0.00112101,10,-6.35651e-06,-2.83084,1.29812,0.0454505,-2.62125,0.00430582,
2,0,0,1,0,22821.3,0.00309391,0.00283968,-1.47602,12,0.00100896,10,-4.19143e-06,-2.83091,-1.34473,-0.0438749,2.5314,0.00283968,
2,0,0,1,0,22821.4,0.0015984,0.00122919,-1.49163,12,0.000896228,10,-1.83349e-06,-2.82634, , , ,0.00122919,
2,0,0,1,0,22821.4,0.000199195,-0.000161388,-1.47716,12,0.000791082,10,2.38397e-07,-2.83057, , , ,-0.000161388,