File: Figure_codes/Fig_3-5/rawdata_trumpetplot_data/after 10th/20221101_1-115_003_TrumpetPlot_ParaChange_from10_every3_14_CV_C01_10.csv
mode,ox/red,error,control changes,counter inc.,time/s,control/V,Ewe/V,<I>/mA,cycle number,(Q-Qo)/C,I Range,P/W,log(|I|),Tafel slope mV/dec,alpha_eff,dI/d(E-IR),E-IR/V,
2,1,0,1,0,20900.4,2.44065e-05,-0.000229887,38.5383,11,0.0000000E+000,10,-8.85945e-06,-1.41411, , , ,-0.000229887,
2,1,0,1,0,20900.4,0.00332042,0.00295133,39.8608,11,0.00012207,10,0.000117642,-1.39945, , , ,0.00295133,
2,1,0,1,0,20900.4,0.0073156,0.00695225,40.9248,11,0.000283795,10,0.000284519,-1.38801, , , ,0.00695225,
2,1,0,1,0,20900.4,0.0113108,0.0109532,41.8439,11,0.000449462,10,0.000458323,-1.37837,0.427269,0.138086,224.33,0.0109532,
2,1,0,1,0,20900.4,0.0153059,0.0149498,42.677,11,0.000618597,10,0.000638014,-1.36981,0.48013,0.122883,204.021,0.0149498,
2,1,0,1,0,20900.4,0.0193011,0.0189253,43.4442,11,0.000790952,10,0.000822194,-1.36207,0.533327,0.110626,187.058,0.0189253,
2,1,0,1,0,20900.4,0.0233462,0.0230121,44.2014,11,0.000966381,10,0.00101717,-1.35456,0.58401,0.101026,173.691,0.0230121,
2,1,0,1,0,20900.4,0.0273414,0.0269918,44.8441,11,0.00114453,10,0.00121042,-1.3483,0.63458,0.0929749,162.315,0.0269918,
2,1,0,1,0,20900.4,0.0313366,0.0309705,45.4596,11,0.00132522,10,0.00140791,-1.34237,0.694864,0.0849088,150.407,0.0309705,
2,1,0,1,0,20900.4,0.0353317,0.0349618,46.0472,11,0.00150829,10,0.00160989,-1.3368,0.741347,0.0795848,142.801,0.0349618,
2,1,0,1,0,20900.5,0.0393269,0.0389458,46.5979,11,0.00169366,10,0.00181479,-1.33163,0.791137,0.0745762,135.437,0.0389458,
2,1,0,1,0,20900.5,0.0433221,0.042987,47.1282,11,0.00188118,10,0.0020259,-1.32672,0.844464,0.0698668,128.332,0.042987,
2,1,0,1,0,20900.5,0.0473173,0.0469624,47.6255,11,0.00207072,10,0.00223661,-1.32216,0.880823,0.0669828,124.397,0.0469624,
2,1,0,1,0,20900.5,0.0513124,0.0509453,48.0984,11,0.00226224,10,0.00245039,-1.31787,0.922036,0.0639888,120.065,0.05094533,
2,1,0,1,0,20900.5,0.0553076,0.0549484,48.5886,11,0.00245567,10,0.00266986,-1.31347,0.925164,0.0637725,120.926,0.0549484,
2,1,0,1,0,20900.5,0.0593028,0.0589175,49.0409,11,0.00265097,10,0.00288936,-1.30944,0.9528,0.0619228,118.517,0.0589175,
2,1,0,1,0,20900.5,0.0633479,0.0629735,49.5617,11,0.0028482,10,0.00312107,-1.30485,0.975833,0.0604611,116.841,0.0629735,
2,1,0,1,0,20900.5,0.0673431,0.0669723,49.9978,11,0.00304735,10,0.00334847,-1.30105,0.97284,0.0606472,118.305,0.0669723,
2,1,0,1,0,20900.5,0.0713382,0.0709425,50.4574,11,0.0032483,10,0.00357957,-1.29708,1.00404,0.0587624,115.769,0.0709425,
2,1,0,1,0,20900.5,0.0753334,0.0749604,50.9388,11,0.00345115,10,0.00381839,-1.29295,0.99292,0.0594207,118.119,0.0749604,
2,1,0,1,0,20900.5,0.0793286,0.0789528,51.4116,11,0.00365588,10,0.00405909,-1.28894,0.991287,0.0595186,119.407,0.0789528,
2,1,0,1,0,20900.5,0.0833238,0.0829441,51.8844,11,0.00386254,10,0.00430351,-1.28496,1.00544,0.0586805,118.818,0.0829441,
2,1,0,1,0,20900.5,0.0873189,0.0869302,52.3664,11,0.00407109,10,0.00455222,-1.28095,0.986895,0.0597835,122.205,0.0869302,
2,1,0,1,0,20900.5,0.0913141,0.0909492,52.8386,11,0.00428154,10,0.00480563,-1.27705,0.940259,0.0627487,129.567,0.0909492,
2,1,0,1,0,20900.5,0.0953093,0.0948578,53.3553,11,0.00449393,10,0.00506116,-1.27282,0.902497,0.0653742,136.375,0.0948578,
2,1,0,1,0,20900.5,0.0993045,0.0988556,53.946,11,0.00470861,10,0.00533286,-1.26804,0.854718,0.0690286,145.466,0.0988556,
2,1,0,1,0,20900.5,0.103319,0.102961,54.5527,11,0.00492563,10,0.00561682,-1.26318,0.845584,0.0697743,148.53,0.102961,
2,1,0,1,0,20900.5,0.107345,0.106992,55.1723,11,0.00514519,10,0.005903,-1.25828,0.844744,0.0698436,150.309,0.106992,
2,1,0,1,0,20900.5,0.11134,0.110998,55.7526,11,0.00536707,10,0.00618844,-1.25373,0.842422,0.0700361,152.426,0.110998,
2,1,0,1,0,20900.5,0.115335,0.114906,56.3585,11,0.00559136,10,0.00647592,-1.24904,0.842378,0.0700398,154.138,0.114906,
2,1,0,1,0,20900.5,0.11933,0.119006,56.9984,11,0.00581813,10,0.00678317,-1.24414,0.828426,0.0712194,158.448,0.119006,
2,1,0,1,0,20900.5,0.123325,0.122908,57.6255,11,0.00604743,10,0.00708262,-1.23939,0.820087,0.0719436,161.856,0.122908,
2,1,0,1,0,20900.5,0.127321,0.126946,58.2795,11,0.00627932,10,0.00739833,-1.23448,0.807559,0.0730597,166.27,0.126946,
2,1,0,1,0,20900.5,0.131316,0.130942,58.9541,11,0.00651385,10,0.00771959,-1.22949,0.794462,0.0742641,170.962,0.130942,
2,1,0,1,0,20900.5,0.135311,0.134953,59.6498,11,0.00675111,10,0.0080499,-1.22439,0.774518,0.0761764,177.433,0.134953,
2,1,0,1,0,20900.6,0.139306,0.138962,60.3702,11,0.00699123,10,0.00838918,-1.21918,0.75206,0.0784512,185.003,0.138962,
2,1,0,1,0,20900.6,0.143301,0.142892,61.1089,11,0.00723426,10,0.00873198,-1.2139,0.740471,0.0796791,190.195,0.142892,
2,1,0,1,0,20900.6,0.147346,0.146972,61.9195,11,0.00748043,10,0.00910041,-1.20817,0.724571,0.0814275,196.802,0.146972,
2,1,0,1,0,20900.6,0.151342,0.151001,62.702,11,0.00772975,10,0.00946807,-1.20272,0.715217,0.0824924,201.914,0.151001,
2,1,0,1,0,20900.6,0.155337,0.154938,63.5144,11,0.00798224,10,0.00984081,-1.19713,0.713903,0.0826443,204.953,0.154938,
2,1,0,1,0,20900.6,0.159332,0.158966,64.3544,11,0.00823806,10,0.0102301,-1.19142,0.710263,0.0830679,208.63,0.158966,
2,1,0,1,0,20900.6,0.163327,0.162966,65.1976,11,0.00849725,10,0.010625,-1.18577,0.713053,0.0827428,210.492,0.162966,
2,1,0,1,0,20900.6,0.167322,0.166981,66.036,11,0.0087598,10,0.0110268,-1.18022,0.721053,0.0818248,210.847,0.166981,
2,1,0,1,0,20900.6,0.171317,0.170941,66.8828,11,0.00902574,10,0.011433,-1.17469,0.738904,0.079848,208.318,0.170941,
2,1,0,1,0,20900.6,0.175313,0.174963,67.7274,11,0.00929503,10,0.0118498,-1.16924,0.756297,0.0780117,206.021,0.174963,
2,1,0,1,0,20900.6,0.179308,0.178961,68.5297,11,0.00956763,10,0.0122641,-1.16412,0.780621,0.0755808,202.033,0.178961,
2,1,0,1,0,20900.6,0.183303,0.182961,69.3281,11,0.00984345,10,0.0126843,-1.15909,0.827664,0.071285,192.689,0.182961,
2,1,0,1,0,20900.6,0.187348,0.18701,70.1293,11,0.0101224,10,0.0131149,-1.1541,0.874751,0.0674478,184.244,0.18701,
2,1,0,1,0,20900.6,0.191343,0.191011,70.8197,11,0.0104044,10,0.0135274,-1.14985,0.953717,0.0618632,170.655,0.191011,
2,1,0,1,0,20900.6,0.195338,0.194971,71.4794,11,0.010689,10,0.0139364,-1.14582,1.07866,0.0546973,152.282,0.194971,
2,1,0,1,0,20900.6,0.199334,0.198959,72.0583,11,0.0109762,10,0.0143366,-1.14232,1.23386,0.0478174,134.148,0.198959,
2,1,0,1,0,20900.6,0.203329,0.202973,72.5601,11,0.0112655,10,0.0147277,-1.1393,1.5128,0.0390006,110.132,0.202973,
2,1,0,1,0,20900.6,0.207324,0.206968,72.9603,11,0.0115566,10,0.0151005,-1.13691,1.99448,0.0295816,83.9639,0.206968,
2,1,0,1,0,20900.6,0.211319,0.21097,73.2415,11,0.0118491,10,0.0154518,-1.13524,3.19984,0.0184384,52.5161,0.21097,
2,1,0,1,0,20900.6,0.215314,0.214983,73.4037,11,0.0121424,10,0.0157805,-1.13428,9.30424,0.00634119,18.0918,0.214983,
2,1,0,1,0,20900.6,0.219309,0.219002,73.4019,11,0.0124361,10,0.0160751,-1.13429,-9.36834,-0.00629781,-17.9662,0.219002,
2,1,0,1,0,20900.6,0.223305,0.222974,73.2498,11,0.0127294,10,0.0163328,-1.13519,-2.96834,-0.0198764,-56.5879,0.222974,
2,1,0,1,0,20900.6,0.227314,0.226983,72.9538,11,0.0130218,10,0.0165593,-1.13695,-1.73754,-0.033956,-96.2465,0.226983,
2,1,0,1,0,20900.6,0.231345,0.231004,72.4971,11,0.0133128,10,0.0167471,-1.13968,-1.21172,-0.0486912,-137.095,0.231004,
2,1,0,1,0,20900.6,0.23534,0.235026,71.8597,11,0.0136015,10,0.0168889,-1.14351,-0.916657,-0.0643643,-179.619,0.235026,
2,1,0,1,0,20900.7,0.239335,0.239007,71.0518,11,0.0138873,10,0.0169819,-1.14843,-0.739416,-0.0797927,-220.227,0.239007,
2,1,0,1,0,20900.7,0.24333,0.242994,70.0779,11,0.0141695,10,0.0170285,-1.15442,-0.623211,-0.094671,-257.793,0.242994,
2,1,0,1,0,20900.7,0.247326,0.247009,68.9724,11,0.0144475,10,0.0170368,-1.16132,-0.541544,-0.108948,-292.053,0.2470092,
2,1,0,1,0,20900.7,0.251321,0.251051,67.7283,11,0.0147208,10,0.0170033,-1.16923,-0.485794,-0.121451,-319.837,0.251051,
2,1,0,1,0,20900.7,0.255316,0.255015,66.3766,11,0.0149889,10,0.016927,-1.17798,-0.438791,-0.13446,-347.162,0.255015,
2,1,0,1,0,20900.7,0.259311,0.259045,64.9444,11,0.0152514,10,0.0168235,-1.18746,-0.404882,-0.145722,-368.251,0.2590448,
2,1,0,1,0,20900.7,0.263306,0.263006,63.4187,11,0.015508,10,0.0166795,-1.19778,-0.387442,-0.152281,-376.248,0.263006,
2,1,0,1,0,20900.7,0.267301,0.266972,61.8654,11,0.0157585,10,0.0165163,-1.20855,-0.367765,-0.160429,-386.917,0.266972,
2,1,0,1,0,20900.7,0.271347,0.271067,60.3373,11,0.0160027,10,0.0163554,-1.21941,-0.357542,-0.165015,-388.058,0.271067,
2,1,0,1,0,20900.7,0.275342,0.275043,58.7544,11,0.0162408,10,0.01616,-1.23096,-0.350576,-0.168294,-385.633,0.275043,
2,1,0,1,0,20900.7,0.279337,0.279026,57.2022,11,0.0164725,10,0.0159609,-1.24259,-0.34118,-0.172929,-386.064,0.279026,
2,1,0,1,0,20900.7,0.283332,0.283034,55.6713,11,0.0166981,10,0.0157569,-1.25437,-0.341833,-0.172599,-375.24,0.283034,
2,1,0,1,0,20900.7,0.287327,0.287012,54.1814,11,0.0169176,10,0.0155507,-1.26615,-0.345232,-0.1709,-361.862,0.287012,
2,1,0,1,0,20900.7,0.291322,0.291001,52.7663,11,0.0171314,10,0.015355,-1.27764,-0.350509,-0.168326,-347.473,0.2910012,
2,1,0,1,0,20900.7,0.295318,0.295032,51.4103,11,0.0173396,10,0.0151677,-1.28895,-0.354941,-0.166225,-337.381,0.295032,
2,1,0,1,0,20900.7,0.299013,0.298751,50.2104,11,0.0175275,10,0.0150004,-1.29921,-0.142589,-0.413776,-801.797,0.298751,
2,1,0,0,0,20900.7,0.300012,0.299727,49.8914,11,0.0175776,10,0.0149538,-1.30197,0.00394099,14.9708,26105.1,0.299727,
2,1,0,1,0,20900.7,0.298714,0.298614,46.6624,11,0.0176391,10,0.0139341,-1.33103,0.0427615,1.37975,2182.96,0.298614,
2,1,0,1,0,20900.7,0.294718,0.29454,38.5648,11,0.017808,10,0.0113589,-1.41381,0.0488146,1.20866,1752.57,0.29454,
2,1,0,1,0,20900.7,0.290723,0.2905,32.1987,11,0.0179486,10,0.00935371,-1.49216,0.0495348,1.19108,1527.56,0.2905,
2,1,0,1,0,20900.7,0.286728,0.286549,26.7947,11,0.0180658,10,0.00767798,-1.57195,0.0483092,1.2213,1284.88,0.286549,
2,1,0,1,0,20900.7,0.282733,0.282531,22.0944,11,0.018163,10,0.00624235,-1.65572,0.0451574,1.30654,1122.51,0.282531,
2,1,0,1,0,20900.7,0.278738,0.278497,17.9516,11,0.0182425,10,0.00499948,-1.7459,0.0412355,1.43081,988.333,0.278497,
2,1,0,1,0,20900.7,0.274742,0.274504,14.2439,11,0.0183064,10,0.00391001,-1.84637,0.0361222,1.63334,881.359,0.274504,
2,1,0,1,0,20900.7,0.270747,0.270507,10.9401,11,0.0183564,10,0.00295936,-1.96098,0.0302251,1.95202,788.444,0.270507,
2,1,0,1,0,20900.7,0.266702,0.266464,7.93429,11,0.0183937,10,0.00211421,-2.10049,0.0230424,2.5605,708.583,0.266464,
2,1,0,1,0,20900.7,0.262707,0.262417,5.27345,11,0.0184198,10,0.00138384,-2.27791,0.0130817,4.51011,641.154,0.262417,
2,1,0,1,0,20900.8,0.258712,0.258439,2.86042,11,0.0184357,10,0.000739244,-2.54357,0.020809,2.83531,581.561,0.2584393,
2,1,0,1,0,20900.8,0.254717,0.254455,0.64865,11,0.0184425,10,0.000165052,-3.18799,0.0728606,0.809766,528.689,0.254455,
2,0,0,1,0,20900.8,0.250722,0.250492,-1.35492,11,0.0184408,10,-0.000339396,-2.86809,-0.0691391,-0.853352,484.261,0.250492,
2,0,0,1,0,20900.8,0.246726,0.246425,-3.18132,11,0.0184315,10,-0.000783957,-2.49739,-0.016133,-3.65709,439.429,0.246425,
2,0,0,1,0,20900.8,0.242731,0.242483,-4.86642,11,0.0184152,10,-0.00118003,-2.31279,-0.021019,-2.80698,404.534,0.242483,
2,0,0,1,0,20900.8,0.238736,0.238418,-6.39872,11,0.0183925,10,-0.00152557,-2.19391,-0.0347779,-1.69648,374.296,0.238418,
2,0,0,1,0,20900.8,0.234741,0.234472,-7.83538,11,0.0183638,10,-0.00183718,-2.10594,-0.0484381,-1.21805,347.116,0.234472,
2,0,0,1,0,20900.8,0.230746,0.230452,-9.15992,11,0.0183297,10,-0.00211092,-2.03811,-0.0622661,-0.947546,322.689,0.230452,
2,0,0,1,0,20900.8,0.226701,0.226427,-10.4399,11,0.0182904,10,-0.00236388,-1.9813,-0.0775434,-0.760864,298.045,0.226427,
2,0,0,1,0,20900.8,0.222705,0.222426,-11.5592,11,0.0182463,10,-0.00257106,-1.93707,-0.0930481,-0.634081,278.181,0.222426,
2,0,0,1,0,20900.8,0.21871,0.218428,-12.6172,11,0.0181978,10,-0.00275595,-1.89904,-0.111215,-0.530503,256.36,0.218428,
2,0,0,1,0,20900.8,0.214715,0.214431,-13.6166,11,0.0181452,10,-0.00291982,-1.86593,-0.1272,-0.463838,242.69,0.214431,
2,0,0,1,0,20900.8,0.21072,0.210388,-14.5516,11,0.0180888,10,-0.00306148,-1.83709,-0.14505,-0.406757,228.08,0.210388,
2,0,0,1,0,20900.8,0.206725,0.20643,-15.4413,11,0.0180287,10,-0.00318754,-1.81132,-0.162863,-0.362268,216.016,0.20643,
2,0,0,1,0,20900.8,0.202729,0.202399,-16.2731,11,0.0179651,10,-0.00329366,-1.78853,-0.180329,-0.327181,206.05,0.202399,
2,0,0,1,0,20900.8,0.198734,0.198438,-17.0713,11,0.0178984,10,-0.0033876,-1.76773,-0.199089,-0.29635,196.132,0.198438,
2,0,0,1,0,20900.8,0.194739,0.194461,-17.8334,11,0.0178285,10,-0.0034679,-1.74877,-0.215893,-0.273284,189.245,0.194461,
2,0,0,1,0,20900.8,0.190744,0.19047,-18.5714,11,0.0177556,10,-0.0035373,-1.73116,-0.232728,-0.253515,183.061,0.19047,
2,0,0,1,0,20900.8,0.186735,0.186402,-19.3005,11,0.0176798,10,-0.00359765,-1.71443,-0.249109,-0.236844,177.676,0.186402,
2,0,0,1,0,20900.8,0.182704,0.182377,-20.0114,11,0.017601,10,-0.00364963,-1.69872,-0.264978,-0.22266,173.176,0.182377,
2,0,0,1,0,20900.8,0.178709,0.178433,-20.6812,11,0.0175195,10,-0.0036902,-1.68442,-0.280771,-0.210136,169.121,0.178433,
2,0,0,1,0,20900.8,0.174713,0.17442,-21.3509,11,0.0174354,10,-0.00372403,-1.67058,-0.293341,-0.201131,167.344,0.17442,
2,0,0,1,0,20900.8,0.170718,0.170423,-22.0028,11,0.0173486,10,-0.00374979,-1.65752,-0.303422,-0.194449,166.889,0.170423,
2,0,0,1,0,20900.8,0.166723,0.166417,-22.6823,11,0.0172592,10,-0.00377472,-1.64431,-0.309384,-0.190702,168.753,0.166417,
2,0,0,1,0,20900.8,0.162728,0.162403,-23.3565,11,0.017167,10,-0.00379315,-1.63159,-0.308393,-0.191314,174.499,0.162403,
2,0,0,1,0,20900.9,0.158733,0.158419,-24.0512,11,0.0170722,10,-0.00381016,-1.61886,-0.308353,-0.191339,179.907,0.158419,
2,0,0,1,0,20900.9,0.154737,0.154421,-24.7952,11,0.0169744,10,-0.0038289,-1.60563,-0.301419,-0.195741,189.752,0.154421,
2,0,0,1,0,20900.9,0.150742,0.150423,-25.5597,11,0.0168736,10,-0.00384477,-1.59244,-0.289629,-0.203709,203.903,0.150423,
2,0,0,1,0,20900.9,0.146747,0.146449,-26.3837,11,0.0167697,10,-0.00386386,-1.57866,-0.281778,-0.209384,216.466,0.146449,
2,0,0,1,0,20900.9,0.142702,0.14242,-27.3133,11,0.0166622,10,-0.00388997,-1.56363,-0.269942,-0.218565,233.635,0.14242,
2,0,0,1,0,20900.9,0.138707,0.138413,-28.2604,11,0.016551,10,-0.0039116,-1.54882,-0.257878,-0.228791,253.231,0.138413,
2,0,0,1,0,20900.9,0.134712,0.13439,-29.3057,11,0.0164358,10,-0.00393838,-1.53305,-0.249011,-0.236937,272.203,0.13439,
2,0,0,1,0,20900.9,0.130717,0.130456,-30.4337,11,0.0163162,10,-0.00397024,-1.51665,-0.237395,-0.248531,296.503,0.130456,
2,0,0,1,0,20900.9,0.126721,0.126421,-31.6684,11,0.0161919,10,-0.00400355,-1.49937,-0.227771,-0.259032,321.463,0.126421,
2,0,0,1,0,20900.9,0.122726,0.122426,-33.0005,11,0.0160625,10,-0.00404012,-1.48148,-0.220438,-0.267649,346.027,0.122426,
2,0,0,1,0,20900.9,0.118731,0.118449,-34.4301,11,0.0159275,10,-0.0040782,-1.46306,-0.215581,-0.273679,368.814,0.118449,
2,0,0,1,0,20900.9,0.114736,0.114442,-35.9747,11,0.0157866,10,-0.00411703,-1.444,-0.213843,-0.275903,387.694,0.114442,
2,0,0,1,0,20900.9,0.110741,0.110447,-37.5598,11,0.0156394,10,-0.00414837,-1.42528,-0.213574,-0.276251,405.107,0.110447,
2,0,0,1,0,20900.9,0.106745,0.106467,-39.1877,11,0.0154857,10,-0.00417221,-1.40685,-0.218641,-0.269849,412.649,0.106467,
2,0,0,1,0,20900.9,0.102703,0.102462,-40.9065,11,0.0153254,10,-0.00419136,-1.38821,-0.224207,-0.26315,419.236,0.102462,
2,0,0,1,0,20900.9,0.0987052,0.0984441,-42.5764,11,0.0151583,10,-0.00419139,-1.37083,-0.232798,-0.253438,419.995,0.0984441,
2,0,0,1,0,20900.9,0.09471,0.0944474,-44.2674,11,0.0149844,10,-0.00418094,-1.35392,-0.246018,-0.23982,413.034,0.0944474,
2,0,0,1,0,20900.9,0.0907148,0.0904487,-45.9154,11,0.0148039,10,-0.00415299,-1.33804,-0.259154,-0.227664,406.467,0.0904487,
2,0,0,1,0,20900.9,0.0867197,0.086452,-47.5191,11,0.0146168,10,-0.00410812,-1.32313,-0.275965,-0.213795,395.123,0.086452,
2,0,0,1,0,20900.9,0.0827245,0.0824627,-49.0723,11,0.0144235,10,-0.00404663,-1.30916,-0.294949,-0.200035,381.718,0.0824627,
2,0,0,1,0,20900.9,0.0787293,0.0784608,-50.5841,11,0.014224,10,-0.00396886,-1.29599,-0.316582,-0.186365,366.358,0.0784608,
2,0,0,1,0,20900.9,0.0747341,0.0745012,-52.0028,11,0.0140186,10,-0.00387427,-1.28397,-0.338352,-0.174375,352.771,0.0745012,
2,0,0,1,0,20900.9,0.070739,0.0705809,-53.3336,11,0.0138078,10,-0.00376433,-1.273,-0.364951,-0.161666,335.736,0.0705809,
2,0,0,1,0,20900.9,0.0667438,0.0664951,-54.7052,11,0.0135916,10,-0.00363763,-1.26197,-0.390274,-0.151176,321.785,0.0664951,
2,0,0,1,0,20900.9,0.0627403,0.0625345,-55.9311,11,0.0133702,10,-0.00349762,-1.25235,-0.421959,-0.139824,304.18,0.0625345,
2,0,0,1,0,20901,0.0587035,0.0584763,-57.1594,11,0.0131438,10,-0.00334247,-1.24291,-0.46733,-0.126249,280.447,0.0584763,
2,0,0,1,0,20901,0.0547083,0.0545083,-58.2226,11,0.0129129,10,-0.00317361,-1.23491,-0.518205,-0.113855,257.588,0.0545083,
2,0,0,1,0,20901,0.0507132,0.0504957,-59.1922,11,0.0126779,10,-0.00298895,-1.22774,-0.587378,-0.100446,231.227,0.0504957,
2,0,0,1,0,20901,0.046718,0.0465054,-60.06,11,0.0124393,10,-0.00279311,-1.22141,-0.655493,-0.0900085,210.389,0.0465054,
2,0,0,1,0,20901,0.0427228,0.0425204,-60.8488,11,0.0121974,10,-0.00258732,-1.21575,-0.731965,-0.0806049,190.978,0.0425204,
2,0,0,1,0,20901,0.0387276,0.0384792,-61.5949,11,0.0119524,10,-0.00237012,-1.21045,-0.81789,-0.0721369,172.961,0.03847919,
2,0,0,1,0,20901,0.0347325,0.0344677,-62.2532,11,0.0117047,10,-0.00214572,-1.20584,-0.92822,-0.0635625,153.998,0.0344677,
2,0,0,1,0,20901,0.0307373,0.0304678,-62.8339,11,0.0114544,10,-0.00191441,-1.20181,-1.0855,-0.0543528,132.908,0.0304678,
2,0,0,1,0,20901,0.0267421,0.0264256,-63.3274,11,0.011202,10,-0.00167346,-1.19841,-1.23727,-0.0476857,117.608,0.0264256,
2,0,0,1,0,20901,0.022747,0.0224119,-63.7304,11,0.0109479,10,-0.00142832,-1.19565,-1.45124,-0.040655,100.975,0.0224119,
2,0,0,1,0,20901,0.0187018,0.0183622,-64.1473,11,0.010692,10,-0.00117789,-1.19282,-1.73069,-0.0340904,85.1594,0.01836222,
2,0,0,1,0,20901,0.0147067,0.0144154,-64.4548,11,0.0104348,10,-0.00092914,-1.19075,-2.03652,-0.028971,72.7136,0.0144154,
2,0,0,1,0,20901,0.0107115,0.0103752,-64.6943,11,0.0101764,10,-0.000671218,-1.18913,-2.59127,-0.0227687,57.4061,0.0103752,
2,0,0,1,0,20901,0.00671632,0.00638281,-64.896,11,0.0099172,10,-0.000414218,-1.18778,-3.21708,-0.0183396,46.3987,0.00638281,
2,0,0,1,0,20901,0.00272115,0.00243597,-65.0616,11,0.00965728,10,-0.000158488,-1.18668,-4.08243,-0.0144522,36.6547,0.002435975,
2,0,0,1,0,20901,-0.00127403,-0.00163281,-65.1994,11,0.00939667,10,0.000106458,-1.18576,-5.88117,-0.010032,25.4877,-0.00163281,
2,0,0,1,0,20901,-0.0052692,-0.00567932,-65.2827,11,0.00913571,10,0.000370761,-1.1852,-10.1154,-0.00583269,14.8372,-0.00567932,
2,0,0,1,0,20901,-0.00926438,-0.009606,-65.3035,11,0.00887454,10,0.000627305,-1.18506,-69.2821,-0.000851591,2.16747,-0.009606,
2,0,0,1,0,20901,-0.0132596,-0.0136154,-65.2997,11,0.00861332,10,0.000889082,-1.18509,24.4989,0.00240827,-6.13113,-0.0136154,
2,0,0,1,0,20901,-0.0172547,-0.01761,-65.234,11,0.00835228,10,0.00114877,-1.18553,9.69897,0.00608312,-15.4738,-0.01761,
2,0,0,1,0,20901,-0.0212915,-0.0216904,-65.1846,11,0.00809148,10,0.00141388,-1.18586,5.4619,0.0108021,-27.4357,-0.0216904,
2,0,0,1,0,20901,-0.025295,-0.0256913,-65.0546,11,0.007831,10,0.00167134,-1.18672,3.93022,0.0150119,-38.0397,-0.0256913,
2,0,0,1,0,20901,-0.0292902,-0.0296498,-64.8598,11,0.00757118,10,0.00192308,-1.18802,2.8459,0.0207316,-52.4009,-0.0296498,
2,0,0,1,0,20901,-0.0332854,-0.0336242,-64.6248,11,0.00731221,10,0.00217296,-1.1896,2.30137,0.0256369,-64.5724,-0.0336242,
2,0,0,1,0,20901,-0.0372805,-0.037657,-64.3479,11,0.00705428,10,0.00242315,-1.19147,2.01835,0.0292319,-73.3221,-0.037657,
2,0,0,1,0,20901.1,-0.0412757,-0.0416345,-64.0251,11,0.00679755,10,0.00266565,-1.19365,1.79246,0.0329157,-82.1697,-0.0416345,
2,0,0,1,0,20901.1,-0.0452709,-0.045663,-63.6857,11,0.00654216,10,0.00290808,-1.19596,1.61322,0.0365728,-90.8066,-0.045663,
2,0,0,1,0,20901.1,-0.0492661,-0.0496173,-63.3107,11,0.00628821,10,0.0031413,-1.19852,1.51879,0.0388468,-95.8972,-0.0496173,
2,0,0,1,0,20901.1,-0.0532612,-0.0536224,-62.8981,11,0.00603581,10,0.00337275,-1.20136,1.42285,0.041466,-101.743,-0.0536224,
2,0,0,1,0,20901.1,-0.0572564,-0.0576552,-62.4887,11,0.00578507,10,0.0036028,-1.2042,1.42913,0.0412837,-100.698,-0.0576552,
2,0,0,1,0,20901.1,-0.0612544,-0.0616179,-62.0624,11,0.00553603,10,0.00382416,-1.20717,1.41463,0.0417071,-101.056,-0.0616179,
2,0,0,1,0,20901.1,-0.0652967,-0.065657,-61.6955,11,0.00528846,10,0.00405074,-1.20975,1.39698,0.0422341,-101.652,-0.065657,
2,0,0,1,0,20901.1,-0.0692919,-0.0696356,-61.2799,11,0.00504255,10,0.00426727,-1.21268,1.42604,0.0413733,-98.9219,-0.0696356,
2,0,0,1,0,20901.1,-0.0732871,-0.0736493,-60.8629,11,0.00479831,10,0.00448251,-1.21565,1.40801,0.0419033,-99.5866,-0.07364928,
2,0,0,1,0,20901.1,-0.0772822,-0.077682,-60.4733,11,0.00455568,10,0.00469769,-1.21844,1.48298,0.0397847,-93.9747,-0.077682,
2,0,0,1,0,20901.1,-0.0812774,-0.0816426,-60.1036,11,0.00431458,10,0.00490701,-1.2211,1.60756,0.0367015,-86.1843,-0.0816426,
2,0,0,1,0,20901.1,-0.0852726,-0.0856467,-59.7753,11,0.00407486,10,0.00511956,-1.22348,1.72168,0.0342689,-80.023,-0.0856467,
2,0,0,1,0,20901.1,-0.0892678,-0.0896657,-59.4825,11,0.0038364,10,0.00533354,-1.22561,1.88826,0.0312457,-72.5814,-0.0896657,
2,0,0,1,0,20901.1,-0.0932629,-0.0935924,-59.2001,11,0.00359908,10,0.00554068,-1.22768,2.10729,0.027998,-64.7484,-0.0935924,
2,0,0,1,0,20901.1,-0.0972581,-0.097641,-58.9424,11,0.00336284,10,0.00575519,-1.22957,2.53211,0.0233007,-53.6993,-0.097641,
2,0,0,1,0,20901.1,-0.101253,-0.101618,-58.7412,11,0.00312751,10,0.00596913,-1.23106,2.97349,0.019842,-45.5584,-0.101618,
2,0,0,1,0,20901.1,-0.105298,-0.105656,-58.6239,11,0.00289282,10,0.00619394,-1.23193,3.61456,0.0163229,-37.3577,-0.105656,
2,0,0,1,0,20901.1,-0.109294,-0.109683,-58.467,11,0.00265867,10,0.00641284,-1.23309,4.33817,0.0136002,-31.046,-0.109683,
2,0,0,1,0,20901.1,-0.113289,-0.113612,-58.3457,11,0.00242507,10,0.00662876,-1.23399,4.94901,0.0119216,-27.1744,-0.113612,
2,0,0,1,0,20901.1,-0.117284,-0.117638,-58.2438,11,0.00219191,10,0.00685169,-1.23475,7.20094,0.00819338,-18.648,-0.117638,
2,0,0,1,0,20901.1,-0.121279,-0.121617,-58.1902,11,0.00195905,10,0.0070769,-1.23515,11.7988,0.0050005,-11.3686,-0.121617,
2,0,0,1,0,20901.1,-0.125274,-0.125626,-58.1697,11,0.00172634,10,0.00730764,-1.2353,39.0067,0.00151256,-3.43654,-0.125626,
2,0,0,1,0,20901.1,-0.129269,-0.129665,-58.1632,11,0.00149367,10,0.00754175,-1.23535,-56.0923,-0.00105184,2.38948,-0.129665,
2,0,0,1,0,20901.1,-0.133265,-0.133596,-58.189,11,0.00126095,10,0.00777382,-1.23516,-16.0773,-0.00366978,8.34061,-0.133596,
2,0,0,1,0,20901.1,-0.13726,-0.137616,-58.2284,11,0.00102812,10,0.00801317,-1.23487,-7.60363,-0.00775945,17.6561,-0.137616,
2,0,0,1,0,20901.2,-0.141255,-0.141615,-58.3031,11,0.000795044,10,0.00825659,-1.23431,-5.87983,-0.0100343,22.859,-0.141615,
2,0,0,1,0,20901.2,-0.145286,-0.145664,-58.4457,11,0.000561589,10,0.00851341,-1.23325,-4.85509,-0.0121522,27.7207,-0.145664,
2,0,0,1,0,20901.2,-0.149295,-0.149651,-58.556,11,0.000327558,10,0.00876294,-1.23243,-4.36458,-0.0135179,30.889,-0.149651,
2,0,0,1,0,20901.2,-0.15329,-0.153645,-58.6727,11,9.309e-05,10,0.00901479,-1.23156,-4.35324,-0.0135531,31.045,-0.153645,
2,0,0,1,0,20901.2,-0.157286,-0.157662,-58.7988,11,-0.00014185,10,0.00927034,-1.23063,-3.8464,-0.015339,35.2214,-0.157662,
2,0,0,1,0,20901.2,-0.161281,-0.161631,-58.9414,11,-0.000377355,10,0.00952678,-1.22958,-3.53252,-0.0167019,38.444,-0.161631,
2,0,0,1,0,20901.2,-0.165276,-0.165595,-59.1175,11,-0.000613486,10,0.00978957,-1.22828,-3.27175,-0.0180331,41.6144,-0.165595,
2,0,0,1,0,20901.2,-0.169271,-0.16961,-59.2865,11,-0.000850314,10,0.0100556,-1.22704,-3.12411,-0.0188854,43.6991,-0.16961,
2,0,0,1,0,20901.2,-0.173266,-0.173616,-59.4627,11,-0.00108784,10,0.0103237,-1.22576,-3.08879,-0.0191013,44.3336,-0.173616,
2,0,0,1,0,20901.2,-0.177261,-0.177625,-59.6404,11,-0.00132604,10,0.0105936,-1.22446,-2.89393,-0.0203875,47.4727,-0.177625,
2,0,0,1,0,20901.2,-0.181257,-0.181579,-59.8261,11,-0.001565,10,0.0108631,-1.22311,-2.6719,-0.0220817,51.5993,-0.181579,
2,0,0,1,0,20901.2,-0.185252,-0.185569,-60.0441,11,-0.00180475,10,0.0111423,-1.22153,-2.60947,-0.02261,52.9996,-0.185569,
2,0,0,1,0,20901.2,-0.189297,-0.189645,-60.2898,11,-0.0020455,10,0.0114337,-1.21976,-2.5693,-0.0229635,54.0039,-0.189645,
2,0,0,1,0,20901.2,-0.193292,-0.193622,-60.4881,11,-0.0022871,10,0.0117118,-1.21833,-2.64112,-0.022339,52.688,-0.193622,
2,0,0,1,0,20901.2,-0.197287,-0.197658,-60.6945,11,-0.00252947,10,0.0119967,-1.21685,-6.90417,-0.00854556,20.1433,-0.197658,
2,0,0,0,0,20901.2,-0.199984,-0.200418,-60.8264,11,-0.00269353,10,0.0121907,-1.21591,0.0658158,0.896441,-1988.35,-0.200418,
2,0,0,0,1,20901.2,-0.199984,-0.200437,-60.5072,11,-0.00272988,10,0.0121279,-1.21819,-0.0397867,-1.48291,3091.87,-0.2004368,
2,0,0,1,1,20901.2,-0.196688,-0.197222,-53.33,11,-0.0029035,10,0.0105178,-1.27303,-0.0668505,-0.882566,1736.72,-0.197222,
2,0,0,1,1,20901.2,-0.192693,-0.193151,-46.7602,11,-0.00310263,10,0.00903177,-1.33012,-0.0696184,-0.847477,1569.48,-0.193151,
2,0,0,1,1,20901.2,-0.188698,-0.189162,-41.2776,11,-0.00327795,10,0.00780813,-1.38429,-0.0731525,-0.806535,1317.09,-0.189162,
2,0,0,1,1,20901.2,-0.184653,-0.185094,-36.4267,11,-0.00343272,10,0.00674236,-1.43858,-0.0735086,-0.802627,1150.34,-0.185094,
2,0,0,1,1,20901.2,-0.180657,-0.181132,-32.1385,11,-0.0035693,10,0.00582132,-1.49297,-0.0716648,-0.823278,1036.14,-0.181132,
2,0,0,1,1,20901.2,-0.176662,-0.17705,-28.2383,11,-0.00368959,10,0.00499957,-1.54916,-0.0685974,-0.86009,946.085,-0.17705,
2,0,0,1,1,20901.2,-0.172667,-0.173107,-24.6428,11,-0.0037949,10,0.00426585,-1.60831,-0.0647779,-0.910804,870.403,-0.173107,
2,0,0,1,1,20901.2,-0.168672,-0.169097,-21.2919,11,-0.00388637,10,0.00360039,-1.67179,-0.0592667,-0.9955,817.96,-0.169097,
2,0,0,1,1,20901.2,-0.164677,-0.16507,-18.1581,11,-0.00396491,10,0.00299737,-1.74093,-0.053849,-1.09566,762.839,-0.16507,
2,0,0,1,1,20901.3,-0.160681,-0.161116,-15.2052,11,-0.00403128,10,0.00244979,-1.81801,-0.047466,-1.24299,718.209,-0.161116,
2,0,0,1,1,20901.3,-0.156686,-0.157086,-12.4217,11,-0.00408621,10,0.00195128,-1.90582,-0.0400642,-1.47264,683.535,-0.157086,
2,0,0,1,1,20901.3,-0.152691,-0.153085,-9.79259,11,-0.00413034,10,0.0014991,-2.0091,-0.0321693,-1.83405,647.849,-0.153085,
2,0,0,1,1,20901.3,-0.148696,-0.149138,-7.26765,11,-0.00416417,10,0.00108388,-2.13861,-0.0231856,-2.54468,618.204,-0.149138,
2,0,0,1,1,20901.3,-0.14467,-0.145109,-4.83515,11,-0.00418815,10,0.000701624,-2.31559,-0.0110366,-5.34587,590.017,-0.145109,
2,0,0,1,1,20901.3,-0.140656,-0.141101,-2.53932,11,-0.00420261,10,0.0003583,-2.59528,-0.0259071,-2.27736,560.69,-0.1411007,
2,0,0,1,1,20901.3,-0.136661,-0.137076,-0.347022,11,-0.00420813,10,4.75686e-05,-3.45964,-0.146121,-0.403775,537.583,-0.137076,
2,1,0,1,1,20901.3,-0.132665,-0.133068,1.74231,11,-0.00420511,10,-0.000231846,-2.75888,0.0453214,1.30181,517.396,-0.133068,
2,1,0,1,1,20901.3,-0.12867,-0.129123,3.75846,11,-0.00419388,10,-0.000485305,-2.42499,0.0118706,4.97024,498.744,-0.129123,
2,1,0,1,1,20901.3,-0.124675,-0.125164,5.70634,11,-0.00417474,10,-0.000714227,-2.24364,0.0217051,2.71825,481.797,-0.125164,
2,1,0,1,1,20901.3,-0.12068,-0.121176,7.58341,11,-0.00414795,10,-0.000918925,-2.12014,0.0337264,1.74937,464.314,-0.121176,
2,1,0,1,1,20901.3,-0.116685,-0.117185,9.39458,11,-0.00411379,10,-0.00110091,-2.02712,0.0452691,1.30332,447.898,-0.117185,
2,1,0,1,1,20901.3,-0.112689,-0.113182,11.1601,11,-0.00407251,10,-0.00126313,-1.95233,0.0566503,1.04148,434.299,-0.113182,
2,1,0,1,1,20901.3,-0.108694,-0.109182,12.8644,11,-0.00402426,10,-0.00140456,-1.89061,0.0680013,0.86763,422.816,-0.109182,
2,1,0,1,1,20901.3,-0.104699,-0.105169,14.5352,11,-0.00396928,10,-0.00152865,-1.83758,0.079812,0.739237,409.555,-0.105169,
2,1,0,1,1,20901.3,-0.100654,-0.101106,16.193,11,-0.00390759,10,-0.00163722,-1.79067,0.0918428,0.642402,397.237,-0.101106,
2,1,0,1,1,20901.3,-0.0966588,-0.0971214,17.738,11,-0.00383956,10,-0.00172274,-1.7511,0.104389,0.565192,384.72,-0.09712138,
2,1,0,1,1,20901.3,-0.0926637,-0.0931003,19.2528,11,-0.00376542,10,-0.00179244,-1.71551,0.117602,0.501692,372.28,-0.0931003,
2,1,0,1,1,20901.3,-0.0886685,-0.0891143,20.7117,11,-0.00368533,10,-0.00184571,-1.68378,0.130652,0.451583,361.141,-0.0891143,
2,1,0,1,1,20901.3,-0.0846733,-0.0851197,22.1445,11,-0.00359945,10,-0.00188494,-1.65473,0.144801,0.407456,348.705,-0.0851197,
2,1,0,1,1,20901.3,-0.0806781,-0.0811209,23.5164,11,-0.00350799,10,-0.00190767,-1.62863,0.158546,0.372133,338.748,-0.0811209,
2,1,0,1,1,20901.3,-0.076683,-0.0770723,24.8419,11,-0.00341113,10,-0.00191462,-1.60482,0.173346,0.34036,327.794,-0.0770723,
2,1,0,1,1,20901.3,-0.0726878,-0.0730639,26.1487,11,-0.00330901,10,-0.00191053,-1.58255,0.187683,0.314359,318.839,-0.07306394,
2,1,0,1,1,20901.3,-0.0686926,-0.069098,27.3964,11,-0.00320179,10,-0.00189303,-1.56231,0.199431,0.295842,315.047,-0.069098,
2,1,0,1,1,20901.3,-0.0646974,-0.0650886,28.6281,11,-0.0030896,10,-0.00186336,-1.54321,0.216346,0.272711,303.414,-0.0650886,
2,1,0,1,1,20901.4,-0.0606523,-0.061058,29.8871,11,-0.00297249,10,-0.00182485,-1.52452,0.232896,0.253332,293.595,-0.061058,
2,1,0,1,1,20901.4,-0.0566571,-0.0570571,31.0054,11,-0.0028506,10,-0.00176908,-1.50856,0.249445,0.236525,284.828,-0.05705709,
2,1,0,1,1,20901.4,-0.052662,-0.0530074,32.1205,11,-0.00272423,10,-0.00170262,-1.49322,0.269994,0.218524,273.058,-0.0530074,
2,1,0,1,1,20901.4,-0.0486668,-0.0490478,33.197,11,-0.00259349,10,-0.00162824,-1.4789,0.286095,0.206225,266.304,-0.0490478,
2,1,0,1,1,20901.4,-0.0446716,-0.0450883,34.2478,11,-0.00245847,10,-0.00154417,-1.46537,0.30482,0.193557,257.839,-0.0450883,
2,1,0,1,1,20901.4,-0.0406764,-0.0410725,35.2621,11,-0.00231935,10,-0.0014483,-1.45269,0.324143,0.182019,249.688,-0.0410725,
2,1,0,1,1,20901.4,-0.0366813,-0.0370758,36.2283,11,-0.00217626,10,-0.00134319,-1.44095,0.346896,0.17008,239.841,-0.0370758,
2,1,0,1,1,20901.4,-0.0326861,-0.0331078,37.177,11,-0.00202934,10,-0.00123085,-1.42973,0.368802,0.159978,231.515,-0.0331078,
2,1,0,1,1,20901.4,-0.0286909,-0.0290825,38.0866,11,-0.00187872,10,-0.00110765,-1.41923,0.38768,0.152187,225.735,-0.0290825,
2,1,0,1,1,20901.4,-0.0246957,-0.0250901,38.9623,11,-0.00172452,10,-0.000977567,-1.40936,0.412913,0.142887,216.87,-0.0250901,
2,1,0,1,1,20901.4,-0.0206756,-0.0210679,39.8418,11,-0.00156684,10,-0.000839385,-1.39966,0.439636,0.134202,208.087,-0.0210679,
2,1,0,1,1,20901.4,-0.0166554,-0.0170681,40.6555,11,-0.00140571,10,-0.000693913,-1.39088,0.466516,0.126469,200.106,-0.0170681,
2,1,0,1,1,20901.4,-0.0126603,-0.0130608,41.4205,11,-0.00124148,10,-0.000540986,-1.38278,0.501755,0.117587,189.71,-0.0130608,
2,1,0,1,1,20901.4,-0.0086651,-0.00908641,42.1647,11,-0.00107422,10,-0.000383126,-1.37505,0.534626,0.110358,181.155,-0.00908641,
2,1,0,1,1,20901.4,-0.00466992,-0.00508231,42.8745,11,-0.000904054,10,-0.000217901,-1.3678, , , ,-0.00508231,
2,1,0,1,1,20901.4,-0.000974387,-0.00137035,43.4993,11,-0.000744214,10,-5.96094e-05,-1.36152, , , ,-0.00137035,
2,1,0,0,1,20901.4,-0.000175352,-0.000611633,43.6272,11,-0.00070938,10,-2.66838e-05,-1.36024, , , ,-0.000611633,