File: Figure_codes/Fig_3-5/rawdata_trumpetplot_data/after 10th/20221101_1-115_003_TrumpetPlot_ParaChange_from10_every3_11_CV_C01_27.csv
mode,ox/red,error,control changes,counter inc.,time/s,control/V,Ewe/V,<I>/mA,cycle number,(Q-Qo)/C,I Range,P/W,log(|I|),Tafel slope mV/dec,alpha_eff,dI/d(E-IR),E-IR/V,
2,1,0,1,0,54388,2.44065e-05,-0.000344411,9.43918,28,0.0000000E+000,10,-3.25095e-06,-2.02507, , , ,-0.000344411,
2,1,0,1,0,54388,0.00214129,0.00167884,10.5405,28,5.15661e-05,10,1.76958e-05,-1.97714, , , ,0.00167884,
2,1,0,1,0,54388.1,0.00454949,0.0041761,11.3521,28,0.000117447,10,4.74077e-05,-1.94492,0.0845652,0.697686,303.647,0.0041761,
2,1,0,1,0,54388.1,0.0069466,0.00657368,11.9639,28,0.000187481,10,7.86467e-05,-1.92213,0.109554,0.538546,249.666,0.00657368,
2,1,0,1,0,54388.1,0.0093437,0.00899247,12.5226,28,0.000261014,10,0.000112609,-1.90231,0.130269,0.452907,220.162,0.00899247,
2,1,0,1,0,54388.1,0.0117408,0.0113922,13.0204,28,0.000337725,10,0.00014833,-1.88538,0.151109,0.390447,197.461,0.0113922,
2,1,0,1,0,54388.1,0.0141462,0.0137335,13.4637,28,0.000417232,10,0.000184904,-1.87084,0.170001,0.347056,181.923,0.0137335,
2,1,0,1,0,54388.1,0.0165433,0.0161778,13.8834,28,0.000499315,10,0.000224602,-1.8575,0.192116,0.307106,165.937,0.0161778,
2,1,0,1,0,54388.1,0.0189404,0.0185648,14.2613,28,0.000583823,10,0.000264758,-1.84584,0.212324,0.277877,154.366,0.0185648,
2,1,0,1,0,54388.1,0.0213486,0.0209751,14.6279,28,0.000670536,10,0.000306822,-1.83482,0.237043,0.2489,141.783,0.0209751,
2,1,0,1,0,54388.1,0.0237457,0.023362,14.9592,28,0.000759325,10,0.000349478,-1.82509,0.253344,0.232885,135.738,0.023362,
2,1,0,1,0,54388.1,0.0261429,0.0257935,15.2687,28,0.000850041,10,0.000393834,-1.8162,0.269697,0.218764,130.261,0.0257935,
2,1,0,1,0,54388.1,0.02854,0.0282102,15.5724,28,0.000942614,10,0.000439302,-1.80764,0.292274,0.201865,122.536,0.0282102,
2,1,0,1,0,54388.1,0.0309482,0.0305611,15.8605,28,0.00103697,10,0.000484715,-1.79968,0.312795,0.188622,116.661,0.0305611,
2,1,0,1,0,54388.1,0.0333453,0.0329842,16.1355,28,0.00113295,10,0.000532217,-1.79222,0.330768,0.178373,112.262,0.0329842,
2,1,0,1,0,54388.1,0.0357424,0.0353584,16.3989,28,0.00123058,10,0.00057984,-1.78518,0.345839,0.1706,109.081,0.0353584,
2,1,0,1,0,54388.1,0.0381478,0.037739,16.6482,28,0.00132977,10,0.000628286,-1.77863,0.364937,0.161672,105.033,0.037739,
2,1,0,1,0,54388.1,0.0405449,0.040179,16.8999,28,0.00143044,10,0.00067902,-1.77212,0.384239,0.15355,101.246,0.040179,
2,1,0,1,0,54388.1,0.042942,0.0425745,17.1475,28,0.00153263,10,0.000730044,-1.7658,0.38494,0.153271,102.497,0.04257448,
2,1,0,1,0,54388.2,0.0453391,0.0449954,17.3735,28,0.00163624,10,0.000781726,-1.76011,0.411924,0.14323,97.1471,0.0449954,
2,1,0,1,0,54388.2,0.0477473,0.0474004,17.6158,28,0.00174126,10,0.000834994,-1.7541,0.41152,0.143371,98.5543,0.0474004,
2,1,0,1,0,54388.2,0.0501444,0.0497577,17.8523,28,0.0018477,10,0.000888288,-1.74831,0.428932,0.137551,95.8013,0.0497577,
2,1,0,1,0,54388.2,0.0525415,0.0521669,18.0807,28,0.00195552,10,0.000943214,-1.74278,0.439637,0.134202,94.6901,0.0521669,
2,1,0,1,0,54388.2,0.0549469,0.0545719,18.3143,28,0.00206472,10,0.000999448,-1.73721,0.440726,0.13387,95.6584,0.0545719,
2,1,0,1,0,54388.2,0.057344,0.0569737,18.5337,28,0.00217527,10,0.00105593,-1.73204,0.449736,0.131188,94.9058,0.0569737,
2,1,0,1,0,54388.2,0.0597411,0.0593491,18.7711,28,0.00228722,10,0.00111405,-1.72651,0.448735,0.131481,96.2815,0.0593491,
2,1,0,1,0,54388.2,0.0621438,0.0617763,18.9916,28,0.00240052,10,0.00117323,-1.72144,0.462469,0.127576,94.5609,0.0617763,
2,1,0,1,0,54388.2,0.0645465,0.0642089,19.2164,28,0.00251519,10,0.00123386,-1.71633,0.458311,0.128733,96.5829,0.0642089,
2,1,0,1,0,54388.2,0.0669436,0.0665577,19.4622,28,0.00263125,10,0.00129536,-1.71081,0.473265,0.124666,94.605,0.0665577,
2,1,0,1,0,54388.2,0.0693407,0.0689987,19.6813,28,0.00274871,10,0.00135799,-1.70595,0.478252,0.123366,94.77,0.0689987,
2,1,0,1,0,54388.2,0.0717489,0.0713879,19.9124,28,0.0028675,10,0.0014215,-1.70088,0.469462,0.125676,97.6851,0.07138785,
2,1,0,1,0,54388.2,0.074146,0.0737706,20.149,28,0.00298772,10,0.0014864,-1.69575,0.485279,0.12158,95.5944,0.0737706,
2,1,0,1,0,54388.2,0.0765431,0.0761374,20.3769,28,0.00310933,10,0.00155144,-1.69086,0.480712,0.122735,97.6351,0.0761374,
2,1,0,1,0,54388.2,0.0789485,0.0785435,20.6192,28,0.00323231,10,0.00161951,-1.68573,0.486756,0.121211,97.5332,0.0785435,
2,1,0,1,0,54388.2,0.0813456,0.0809782,20.8564,28,0.00335676,10,0.00168891,-1.68076,0.472805,0.124787,101.56,0.0809782,
2,1,0,1,0,54388.3,0.0837427,0.0833185,21.0918,28,0.00348264,10,0.00175734,-1.67589,0.484678,0.12173,100.203,0.0833185,
2,1,0,1,0,54388.3,0.0861398,0.0857701,21.3287,28,0.00360995,10,0.00182937,-1.67104,0.496625,0.118802,98.9077,0.0857701,
2,1,0,1,0,54388.3,0.088548,0.0882048,21.5731,28,0.00373871,10,0.00190285,-1.66609,0.497542,0.118583,99.8181,0.0882048,
2,1,0,1,0,54388.3,0.0909451,0.0905632,21.8091,28,0.00386888,10,0.00197511,-1.66136,0.514687,0.114633,97.5648,0.0905632,
2,1,0,1,0,54388.3,0.0933422,0.0929745,22.0465,28,0.00400049,10,0.00204977,-1.65666,0.525227,0.112332,96.6236,0.0929745,
2,1,0,1,0,54388.3,0.0957477,0.0953721,22.2784,28,0.00413347,10,0.00212473,-1.65212,0.543806,0.108495,94.319,0.0953721,
2,1,0,1,0,54388.3,0.0981447,0.0977623,22.5054,28,0.00426784,10,0.00220017,-1.64771,0.544717,0.108313,95.0927,0.0977623,
2,1,0,1,0,54388.3,0.100542,0.100116,22.729,28,0.00440357,10,0.00227554,-1.64342,0.539052,0.109451,97.1534,0.100116,
2,1,0,1,0,54388.3,0.102939,0.102538,22.9697,28,0.00454066,10,0.00235527,-1.63885,0.515484,0.114456,102.661,0.102538,
2,1,0,1,0,54388.3,0.105347,0.104945,23.234,28,0.00467929,10,0.0024383,-1.63388,0.510696,0.115529,104.669,0.104945,
2,1,0,1,0,54388.3,0.107744,0.10735,23.4744,28,0.00481945,10,0.00251999,-1.62941,0.534625,0.110358,101.057,0.10735,
2,1,0,1,0,54388.3,0.110141,0.109757,23.7085,28,0.00496103,10,0.00260216,-1.6251,0.533701,0.110549,102.352,0.109757,
2,1,0,1,0,54388.3,0.11255,0.112159,23.9683,28,0.00510407,10,0.00268827,-1.62036,0.520201,0.113418,106.093,0.112159,
2,1,0,1,0,54388.3,0.114947,0.114581,24.2184,28,0.00524867,10,0.00277498,-1.61585,0.522002,0.113026,106.843,0.114581,
2,1,0,1,0,54388.3,0.117344,0.116976,24.4745,28,0.00539479,10,0.00286292,-1.61129,0.516091,0.114321,109.257,0.116976,
2,1,0,1,0,54388.3,0.119744,0.119374,24.7453,28,0.00554247,10,0.00295395,-1.60651,0.498395,0.11838,114.378,0.119374,
2,1,0,1,0,54388.3,0.122146,0.12178,25.0257,28,0.00569182,10,0.00304765,-1.60161,0.49119,0.120117,117.328,0.12178,
2,1,0,1,0,54388.4,0.124543,0.124166,25.3146,28,0.0058429,10,0.00314322,-1.59663,0.490991,0.120165,118.694,0.1241664,
2,1,0,1,0,54388.4,0.126941,0.126552,25.5962,28,0.00599566,10,0.00323925,-1.59183,0.478088,0.123408,123.378,0.126552,
2,1,0,1,0,54388.4,0.129349,0.128976,25.9149,28,0.00615018,10,0.00334241,-1.58645,0.464641,0.12698,128.41,0.128976,
2,1,0,1,0,54388.4,0.131746,0.131396,26.2205,28,0.00630663,10,0.00344527,-1.58136,0.470081,0.12551,128.373,0.131396,
2,1,0,1,0,54388.4,0.134143,0.13374,26.5165,28,0.00646489,10,0.00354631,-1.57648,0.475178,0.124164,128.594,0.13374,
2,1,0,1,0,54388.4,0.13654,0.136168,26.8289,28,0.00662494,10,0.00365323,-1.5714,0.475704,0.124027,129.908,0.136168,
2,1,0,1,0,54388.4,0.138945,0.138591,27.1593,28,0.00678698,10,0.00376404,-1.56608,0.478175,0.123386,130.662,0.138591,
2,1,0,1,0,54388.4,0.141343,0.140964,27.4589,28,0.00695087,10,0.00387072,-1.56132,0.493704,0.119505,128.071,0.1409643,
2,1,0,1,0,54388.4,0.14374,0.143379,27.7566,28,0.00711655,10,0.00397971,-1.55663,0.508277,0.116078,125.772,0.143379,
2,1,0,1,0,54388.4,0.146148,0.145759,28.0807,28,0.00728411,10,0.00409303,-1.55159,0.526538,0.112053,122.689,0.145759,
2,1,0,1,0,54388.4,0.148545,0.148222,28.3641,28,0.00745347,10,0.00420418,-1.54723,0.556714,0.105979,117.252,0.1482217,
2,1,0,1,0,54388.4,0.150942,0.150544,28.6386,28,0.0076245,10,0.00431138,-1.54305,0.575169,0.102579,114.643,0.150544,
2,1,0,1,0,54388.4,0.153345,0.152967,28.9166,28,0.00779717,10,0.00442328,-1.53885,0.59455,0.0992347,111.945,0.152967,
2,1,0,1,0,54388.4,0.155747,0.155382,29.1844,28,0.00797148,10,0.00453472,-1.53485,0.633632,0.093114,105.951,0.155382,
2,1,0,1,0,54388.4,0.158144,0.157774,29.4158,28,0.00814732,10,0.00464105,-1.53142,0.681773,0.086539,99.304,0.157774,
2,1,0,1,0,54388.4,0.160542,0.160165,29.643,28,0.00832452,10,0.00474778,-1.52808,0.740938,0.0796288,92.0991,0.160165,
2,1,0,1,0,54388.4,0.162947,0.16258,29.8649,28,0.00850311,10,0.00485542,-1.52484,0.854223,0.0690686,80.3906,0.16258,
2,1,0,1,0,54388.5,0.165344,0.164952,30.0384,28,0.00868287,10,0.00495489,-1.52232,1.0375,0.0568674,66.6111,0.164952,
2,1,0,1,0,54388.5,0.167741,0.167364,30.1794,28,0.00886354,10,0.00505096,-1.52029,1.23618,0.0477275,56.1933,0.167364,
2,1,0,1,0,54388.5,0.170149,0.169764,30.3212,28,0.00904504,10,0.00514744,-1.51825,1.71122,0.0344784,40.7212,0.169764,
2,1,0,1,0,54388.5,0.172547,0.172178,30.3794,28,0.00922717,10,0.00523068,-1.51742,3.25514,0.0181252,21.4581,0.172178,
2,1,0,1,0,54388.5,0.174944,0.174564,30.4069,28,0.00940956,10,0.00530796,-1.51703,18.745,0.0031475,3.73139,0.174564,
2,1,0,1,0,54388.5,0.177341,0.176915,30.4002,28,0.00959198,10,0.00537826,-1.51712,-4.87815,-0.0120947,-14.3287,0.176915,
2,1,0,1,0,54388.5,0.179746,0.179382,30.3461,28,0.00977424,10,0.00544354,-1.5179,-1.97244,-0.0299122,-35.3635,0.179382,
2,1,0,1,0,54388.5,0.182143,0.181819,30.2336,28,0.00995598,10,0.00549703,-1.51951,-1.21662,-0.0484949,-57.1302,0.181819,
2,1,0,1,0,54388.5,0.18454,0.18419,30.0626,28,0.0101369,10,0.00553722,-1.52197,-0.932974,-0.0632386,-74.1276,0.18419,
2,1,0,1,0,54388.5,0.186949,0.186604,29.8762,28,0.0103167,10,0.00557502,-1.52467,-0.733944,-0.0803876,-93.5634,0.186604,
2,1,0,1,0,54388.5,0.189346,0.188988,29.6206,28,0.0104952,10,0.00559794,-1.52841,-0.587675,-0.100396,-115.879,0.188988,
2,1,0,1,0,54388.5,0.191743,0.191386,29.3136,28,0.010672,10,0.0056102,-1.53293,-0.519367,-0.1136,-129.893,0.191386,
2,1,0,1,0,54388.5,0.19414,0.193742,28.9907,28,0.0108469,10,0.0056167,-1.53774,-0.456983,-0.129108,-145.859,0.193742,
2,1,0,1,0,54388.5,0.196548,0.196172,28.6199,28,0.0110197,10,0.00561443,-1.54333,-0.402615,-0.146542,-163.397,0.196172,
2,1,0,1,0,54388.5,0.198945,0.198595,28.1949,28,0.0111901,10,0.00559937,-1.54983,-0.362754,-0.162645,-178.851,0.198595,
2,1,0,1,0,54388.5,0.201342,0.200974,27.7623,28,0.011358,10,0.00557949,-1.55654,-0.33737,-0.174882,-189.277,0.200974,
2,1,0,1,0,54388.6,0.203748,0.203365,27.301,28,0.0115231,10,0.00555207,-1.56382,-0.318504,-0.185241,-197.164,0.203365,
2,1,0,1,0,54388.6,0.206145,0.205787,26.8081,28,0.0116854,10,0.00551677,-1.57173,-0.300615,-0.196264,-205.292,0.205787,
2,1,0,1,0,54388.6,0.208542,0.208171,26.3179,28,0.0118448,10,0.00547863,-1.57975,-0.295112,-0.199924,-205.233,0.208171,
2,1,0,1,0,54388.6,0.210939,0.210595,25.8055,28,0.0120011,10,0.00543451,-1.58829,-0.279946,-0.210755,-212.184,0.210595,
2,1,0,1,0,54388.6,0.213347,0.212978,25.3007,28,0.0121544,10,0.00538848,-1.59687,-0.270261,-0.218308,-215.427,0.212978,
2,1,0,1,0,54388.6,0.215744,0.215389,24.7801,28,0.0123045,10,0.00533736,-1.6059,-0.267185,-0.220821,-213.601,0.215389,
2,1,0,1,0,54388.6,0.218141,0.217794,24.2733,28,0.0124516,10,0.00528659,-1.61487,-0.270276,-0.218296,-206.862,0.217794,
2,1,0,1,0,54388.6,0.220547,0.220216,23.7886,28,0.0125958,10,0.00523863,-1.62363,-0.26829,-0.219911,-204.062,0.2202159,
2,1,0,1,0,54388.6,0.222944,0.222569,23.2889,28,0.012737,10,0.0051834,-1.63285,-0.26787,-0.220256,-200.343,0.222569,
2,1,0,1,0,54388.6,0.225341,0.224995,22.8243,28,0.0128752,10,0.00513535,-1.6416,-0.273963,-0.215357,-191.934,0.224995,
2,1,0,1,0,54388.6,0.227744,0.227403,22.3765,28,0.0130108,10,0.00508849,-1.65021,-0.277587,-0.212546,-185.572,0.227403,
2,1,0,1,0,54388.6,0.230146,0.229773,21.9239,28,0.0131436,10,0.00503754,-1.65908,-0.283337,-0.208233,-178.309,0.229773,
2,1,0,1,0,54388.6,0.232543,0.232165,21.504,28,0.0132739,10,0.00499246,-1.66748,-0.29178,-0.202207,-169.81,0.232165,
2,1,0,1,0,54388.6,0.234941,0.234614,21.1134,28,0.0134017,10,0.0049535,-1.67544,-0.294843,-0.200107,-164.878,0.234614,
2,1,0,1,0,54388.6,0.237349,0.237009,20.7242,28,0.0135271,10,0.00491181,-1.68352,-0.305444,-0.193162,-156.272,0.2370085,
2,1,0,1,0,54388.6,0.239746,0.239355,20.3539,28,0.0136503,10,0.00487182,-1.69135,-0.313463,-0.18822,-149.644,0.239355,
2,1,0,1,0,54388.6,0.242143,0.241782,20.0086,28,0.0137713,10,0.00483772,-1.69878,-0.32627,-0.180832,-141.296,0.241782,
2,1,0,1,0,54388.7,0.244548,0.244163,19.678,28,0.0138903,10,0.00480464,-1.70602,-0.335234,-0.175997,-135.22,0.244163,
2,1,0,1,0,54388.7,0.246946,0.246581,19.3646,28,0.0140074,10,0.00477493,-1.71299,-0.347144,-0.169958,-128.504,0.246581,
2,1,0,1,0,54388.7,0.249343,0.249018,19.0624,28,0.0141226,10,0.00474687,-1.71982,-0.363687,-0.162228,-120.758,0.249018,
2,1,0,1,0,54388.7,0.25174,0.251392,18.7792,28,0.0142361,10,0.00472094,-1.72632,-0.371228,-0.158932,-116.527,0.251392,
2,1,0,1,0,54388.7,0.254148,0.253789,18.5114,28,0.014348,10,0.004698,-1.73256,-0.38924,-0.151577,-109.563,0.253789,
2,1,0,1,0,54388.7,0.256545,0.256232,18.2517,28,0.0144582,10,0.00467666,-1.7387,-0.408293,-0.144504,-103.052,0.256232,
2,1,0,1,0,54388.7,0.258942,0.258594,18.0162,28,0.014567,10,0.00465888,-1.74434,-0.420986,-0.140147,-98.5432,0.258594,
2,1,0,1,0,54388.7,0.261348,0.261,17.7865,28,0.0146744,10,0.00464228,-1.74991,-0.436633,-0.135125,-93.8155,0.261,
2,1,0,1,0,54388.7,0.263745,0.2634,17.5581,28,0.0147804,10,0.00462479,-1.75552,-0.452284,-0.130449,-89.4561,0.2633999,
2,1,0,1,0,54388.7,0.266142,0.265812,17.357,28,0.0148851,10,0.00461369,-1.76053,-0.471518,-0.125128,-84.773,0.265812,
2,1,0,1,0,54388.7,0.268539,0.268184,17.1503,28,0.0149886,10,0.00459945,-1.76573,-0.481259,-0.122595,-82.1083,0.268184,
2,1,0,1,0,54388.7,0.270947,0.270617,16.9653,28,0.015091,10,0.00459109,-1.77044,-0.51051,-0.115571,-76.5446,0.270617,
2,1,0,1,0,54388.7,0.273344,0.272983,16.7879,28,0.0151922,10,0.00458279,-1.775,-0.513718,-0.114849,-75.2521,0.272983,
2,1,0,1,0,54388.7,0.275741,0.275398,16.6097,28,0.0152924,10,0.00457427,-1.77964,-0.542858,-0.108684,-70.4905,0.275398,
2,1,0,1,0,54388.7,0.278149,0.27786,16.4479,28,0.0153915,10,0.0045702,-1.78389,-0.556901,-0.105944,-68.0116,0.2778596,
2,1,0,1,0,54388.7,0.280547,0.280163,16.2792,28,0.0154897,10,0.00456084,-1.78837,-0.589331,-0.100113,-63.6671,0.280163,
2,1,0,1,0,54388.7,0.282944,0.282579,16.136,28,0.0155869,10,0.00455971,-1.7922,-0.609143,-0.0968574,-61.0099,0.282579,
2,1,0,1,0,54388.8,0.285344,0.284981,15.9849,28,0.0156833,10,0.0045554,-1.79629,-0.598653,-0.0985546,-61.5092,0.284981,
2,1,0,1,0,54388.8,0.287746,0.287394,15.8439,28,0.0157788,10,0.00455343,-1.80014,-0.634181,-0.0930333,-57.571,0.287394,
2,1,0,1,0,54388.8,0.290143,0.289794,15.7196,28,0.0158734,10,0.00455544,-1.80356,-0.659849,-0.0894143,-54.8353,0.289794,
2,1,0,1,0,54388.8,0.29254,0.292195,15.5825,28,0.0159673,10,0.00455313,-1.80736,-0.682109,-0.0864964,-52.606,0.292195,
2,1,0,1,0,54388.8,0.294949,0.294592,15.4587,28,0.0160604,10,0.004554,-1.81083,-0.712043,-0.0828602,-50.0186,0.294592,
2,1,0,1,0,54388.8,0.297346,0.297022,15.3437,28,0.0161528,10,0.00455741,-1.81407,-0.75195,-0.0784627,-47.0438,0.297022,
2,1,0,1,0,54388.8,0.299621,0.299287,15.2334,28,0.01624,10,0.00455916,-1.8172,-0.0866524,-0.680882,-392.646,0.299287,
2,1,0,1,0,54388.8,0.299962,0.299575,15.0986,28,0.0162582,10,0.00452315,-1.82106,0.0127922,4.6122,2347.1,0.299575,
2,1,0,1,0,54388.8,0.297903,0.297608,11.9299,28,0.0163257,10,0.00355042,-1.92336,0.0224923,2.62311,1200.48,0.297608,
2,1,0,1,0,54388.8,0.295506,0.295178,9.49956,28,0.0163894,10,0.00280406,-2.0223,0.0242032,2.4377,921.317,0.295178,
2,1,0,1,0,54388.8,0.293101,0.292804,7.58242,28,0.0164403,10,0.00222016,-2.12019,0.0238268,2.47621,735.592,0.292804,
2,1,0,1,0,54388.8,0.290704,0.290394,5.96955,28,0.0164807,10,0.00173352,-2.22406,0.0217931,2.70728,627.698,0.290394,
2,1,0,1,0,54388.8,0.288307,0.28799,4.57911,28,0.0165121,10,0.00131874,-2.33922,0.0191648,3.07856,542.702,0.28799,
2,1,0,1,0,54388.8,0.28591,0.285621,3.38352,28,0.0165357,10,0.000966402,-2.47063,0.0156615,3.76721,479.064,0.285621,
2,1,0,1,0,54388.8,0.283501,0.283158,2.30141,28,0.0165526,10,0.000651665,-2.63801,0.0116136,5.08024,422.832,0.283158,
2,1,0,1,0,54388.8,0.281104,0.28077,1.34892,28,0.0165634,10,0.000378737,-2.87001,0.00616977,9.56276,376.469,0.28077,
2,1,0,1,0,54388.8,0.278707,0.278356,0.506426,28,0.0165688,10,0.000140967,-3.29548,0.0122303,4.82409,334.769,0.278356,
2,0,0,1,0,54388.9,0.276302,0.275971,-0.259568,28,0.0165695,10,-7.16333e-05,-3.58575,-0.0366656,-1.60914,302.603,0.275971,
2,0,0,1,0,54388.9,0.273905,0.27356,-0.950758,28,0.0165658,10,-0.000260089,-3.02193,-0.00288871,-20.4243,278.001,0.27356,
2,0,0,1,0,54388.9,0.271508,0.271141,-1.58092,28,0.0165581,10,-0.000428653,-2.80109,-0.0126518,-4.66338,251.592,0.271141,
2,0,0,1,0,54388.9,0.269105,0.26876,-2.16003,28,0.0165468,10,-0.000580531,-2.66554,-0.0202918,-2.90758,229.933,0.26876,
2,0,0,1,0,54388.9,0.266702,0.266389,-2.6808,28,0.0165322,10,-0.000714136,-2.57174,-0.0280165,-2.10591,212.419,0.266389,
2,0,0,1,0,54388.9,0.264305,0.263972,-3.16736,28,0.0165146,10,-0.000836097,-2.4993,-0.0367749,-1.60435,193.249,0.263972,
2,0,0,1,0,54388.9,0.261908,0.261575,-3.61213,28,0.0164942,10,-0.000944842,-2.44224,-0.0454022,-1.2995,180.269,0.261575,
2,0,0,1,0,54388.9,0.2595,0.25917,-4.03325,28,0.0164712,10,-0.0010453,-2.39434,-0.0546891,-1.07883,167.58,0.25917,
2,0,0,1,0,54388.9,0.257103,0.25676,-4.42095,28,0.0164458,10,-0.00113512,-2.35448,-0.0652201,-0.904629,154.192,0.25676,
2,0,0,1,0,54388.9,0.254706,0.254362,-4.76663,28,0.0164182,10,-0.00121245,-2.32179,-0.0759693,-0.776629,143.643,0.254362,
2,0,0,1,0,54388.9,0.2523,0.251943,-5.10535,28,0.0163886,10,-0.00128626,-2.29197,-0.0862385,-0.684149,135.62,0.251943,
2,0,0,1,0,54388.9,0.249903,0.249546,-5.42397,28,0.0163569,10,-0.00135353,-2.26568,-0.0969221,-0.608736,127.981,0.249546,
2,0,0,1,0,54388.9,0.247506,0.247169,-5.71064,28,0.0163235,10,-0.0014115,-2.24331,-0.108847,-0.542044,120.464,0.2471693,
2,0,0,1,0,54388.9,0.245109,0.244757,-5.98961,28,0.0162883,10,-0.001466,-2.2226,-0.121966,-0.483743,112.781,0.244757,
2,0,0,1,0,54388.9,0.242701,0.242336,-6.26809,28,0.0162515,10,-0.00151898,-2.20286,-0.13169,-0.448023,108.995,0.242336,
2,0,0,1,0,54388.9,0.240304,0.239968,-6.50434,28,0.0162132,10,-0.00156083,-2.1868,-0.150977,-0.390787,98.9758,0.239968,
2,0,0,1,0,54388.9,0.237906,0.237576,-6.74098,28,0.0161734,10,-0.00160149,-2.17128,-0.160946,-0.366583,96.2567,0.2375758,
2,0,0,1,0,54389,0.235501,0.235161,-6.9697,28,0.0161323,10,-0.001639,-2.15679,-0.171466,-0.344091,93.4195,0.235161,
2,0,0,1,0,54389,0.233104,0.232757,-7.18412,28,0.0160898,10,-0.00167216,-2.14363,-0.188239,-0.313431,87.6084,0.232757,
2,0,0,1,0,54389,0.230707,0.230347,-7.38436,28,0.0160461,10,-0.00170097,-2.13169,-0.202318,-0.291621,83.9971,0.230347,
2,0,0,1,0,54389,0.22831,0.227959,-7.57273,28,0.0160012,10,-0.00172627,-2.12075,-0.215575,-0.273686,80.9305,0.227959,
2,0,0,1,0,54389,0.225902,0.22556,-7.77934,28,0.0159551,10,-0.00175471,-2.10906,-0.232699,-0.253546,76.7359,0.22556,
2,0,0,1,0,54389,0.223504,0.223156,-7.95615,28,0.0159079,10,-0.00177547,-2.0993,-0.252208,-0.233934,72.5352,0.223156,
2,0,0,1,0,54389,0.221107,0.220793,-8.1241,28,0.0158596,10,-0.00179374,-2.09022,-0.255114,-0.231269,73.3716,0.220793,
2,0,0,1,0,54389,0.218699,0.218326,-8.30541,28,0.0158103,10,-0.00181329,-2.08064,-0.267081,-0.220907,71.453,0.218326,
2,0,0,1,0,54389,0.216302,0.215936,-8.46699,28,0.01576,10,-0.00182833,-2.07227,-0.292082,-0.201998,66.6557,0.215936,
2,0,0,1,0,54389,0.213905,0.213534,-8.61459,28,0.0157087,10,-0.00183951,-2.06477,-0.307378,-0.191946,64.5883,0.213534,
2,0,0,1,0,54389,0.211505,0.211128,-8.77487,28,0.0156566,10,-0.00185262,-2.05676,-0.310397,-0.190079,65.0608,0.211128,
2,0,0,1,0,54389,0.209102,0.208727,-8.9302,28,0.0156034,10,-0.00186398,-2.04914,-0.325715,-0.18114,63.0328,0.208727,
2,0,0,1,0,54389,0.206705,0.206372,-9.07992,28,0.0155494,10,-0.00187384,-2.04192,-0.351012,-0.168085,59.4816,0.206372,
2,0,0,1,0,54389,0.204308,0.203943,-9.21348,28,0.0154945,10,-0.00187902,-2.03558,-0.349982,-0.16858,60.6177,0.203943,
2,0,0,1,0,54389,0.2019,0.20156,-9.36606,28,0.0154388,10,-0.00188782,-2.02844,-0.37059,-0.159206,58.1103,0.20156,
2,0,0,1,0,54389,0.199503,0.199176,-9.5003,28,0.0153822,10,-0.00189223,-2.02226,-0.395924,-0.149019,55.1765,0.199176,
2,0,0,1,0,54389,0.197106,0.196735,-9.62835,28,0.0153248,10,-0.00189424,-2.01645,-0.390192,-0.151207,56.893,0.196735,
2,0,0,1,0,54389.1,0.194709,0.194345,-9.76779,28,0.0152666,10,-0.00189832,-2.0102,-0.391253,-0.150797,57.4716,0.194345,
2,0,0,1,0,54389.1,0.192303,0.191965,-9.90973,28,0.0152075,10,-0.00190232,-2.00394,-0.409133,-0.144207,55.6859,0.191965,
2,0,0,1,0,54389.1,0.189906,0.189515,-10.0281,28,0.0151477,10,-0.00190048,-1.99878,-0.427732,-0.137937,54.0114,0.189515,
2,0,0,1,0,54389.1,0.187509,0.187134,-10.1603,28,0.0150872,10,-0.00190133,-1.9931,-0.426413,-0.138364,54.8487,0.1871344,
2,0,0,1,0,54389.1,0.185101,0.184719,-10.3034,28,0.0150257,10,-0.00190322,-1.98702,-0.433048,-0.136244,54.702,0.1847188,
2,0,0,1,0,54389.1,0.182704,0.1824,-10.4241,28,0.0149636,10,-0.00190135,-1.98196,-0.45004,-0.131099,53.3861,0.1824,
2,0,0,1,0,54389.1,0.180307,0.179971,-10.5578,28,0.0149006,10,-0.0019001,-1.97643,-0.431036,-0.13688,56.4317,0.179971,
2,0,0,1,0,54389.1,0.177904,0.177563,-10.6969,28,0.0148368,10,-0.00189937,-1.97074,-0.437731,-0.134786,56.2469,0.177563,
2,0,0,1,0,54389.1,0.175501,0.175122,-10.8327,28,0.0147722,10,-0.00189705,-1.96526,-0.439912,-0.134118,56.6765,0.1751221,
2,0,0,1,0,54389.1,0.173104,0.172758,-10.9659,28,0.0147068,10,-0.00189446,-1.95995,-0.440729,-0.133869,57.3171,0.172758,
2,0,0,1,0,54389.1,0.170707,0.170347,-11.1082,28,0.0146406,10,-0.00189225,-1.95436,-0.42638,-0.138374,60.0148,0.170347,
2,0,0,1,0,54389.1,0.168302,0.167988,-11.2635,28,0.0145735,10,-0.00189212,-1.94833,-0.423305,-0.139379,61.199,0.1679877,
2,0,0,1,0,54389.1,0.165905,0.165523,-11.4058,28,0.0145055,10,-0.00188792,-1.94287,-0.415659,-0.141943,63.1939,0.165523,
2,0,0,1,0,54389.1,0.163507,0.16315,-11.5472,28,0.0144366,10,-0.00188393,-1.93752,-0.388292,-0.151947,68.6008,0.16315,
2,0,0,1,0,54389.1,0.161099,0.160758,-11.7317,28,0.0143668,10,-0.00188596,-1.93064,-0.384676,-0.153376,70.1349,0.160758,
2,0,0,1,0,54389.1,0.158702,0.158322,-11.8867,28,0.0142959,10,-0.00188193,-1.92494,-0.3709,-0.159073,73.8541,0.158322,
2,0,0,1,0,54389.2,0.156305,0.155981,-12.0682,28,0.0142241,10,-0.0018824,-1.91836,-0.355123,-0.16614,78.3786,0.155981,
2,0,0,1,0,54389.2,0.153908,0.153563,-12.2668,28,0.014151,10,-0.00188373,-1.91127,-0.335911,-0.175642,84.1025,0.153563,
2,0,0,1,0,54389.2,0.151503,0.151136,-12.4725,28,0.0140768,10,-0.00188505,-1.90404,-0.331513,-0.177972,86.6665,0.151136,
2,0,0,1,0,54389.2,0.149105,0.148764,-12.6841,28,0.0140013,10,-0.00188693,-1.89674,-0.30999,-0.190328,94.3939,0.148764,
2,0,0,1,0,54389.2,0.146708,0.146384,-12.9348,28,0.0139245,10,-0.00189345,-1.88824,-0.282959,-0.208511,105.361,0.146384,
2,0,0,1,0,54389.2,0.1443,0.143961,-13.2066,28,0.013846,10,-0.00190124,-1.87921,-0.265328,-0.222366,114.619,0.143961,
2,0,0,1,0,54389.2,0.141903,0.141534,-13.4878,28,0.013766,10,-0.00190898,-1.87006,-0.24634,-0.239506,126.22,0.141534,
2,0,0,1,0,54389.2,0.139506,0.139173,-13.7863,28,0.0136841,10,-0.00191869,-1.86055,-0.228008,-0.258762,139.644,0.139173,
2,0,0,1,0,54389.2,0.137109,0.136796,-14.1401,28,0.0136003,10,-0.00193431,-1.84955,-0.2143,-0.275315,152.212,0.136796,
2,0,0,1,0,54389.2,0.134701,0.13437,-14.5288,28,0.0135142,10,-0.00195222,-1.83777,-0.203445,-0.290004,164.668,0.13437,
2,0,0,1,0,54389.2,0.132303,0.131973,-14.9358,28,0.0134259,10,-0.00197112,-1.82577,-0.190947,-0.308987,180.588,0.131973,
2,0,0,1,0,54389.2,0.129906,0.129547,-15.4058,28,0.0133348,10,-0.00199578,-1.81232,-0.180719,-0.326473,196.345,0.129547,
2,0,0,1,0,54389.2,0.127501,0.127143,-15.8938,28,0.0132409,10,-0.00202078,-1.79877,-0.176144,-0.334952,207.775,0.127143,
2,0,0,1,0,54389.2,0.125104,0.124788,-16.3934,28,0.013144,10,-0.0020457,-1.78533,-0.173651,-0.339763,217.772,0.124788,
2,0,0,1,0,54389.2,0.122707,0.122351,-16.9368,28,0.013044,10,-0.00207224,-1.77117,-0.169361,-0.348368,230.34,0.122351,
2,0,0,1,0,54389.2,0.12031,0.120004,-17.4919,28,0.0129406,10,-0.00209911,-1.75716,-0.169519,-0.348043,237.6,0.120004,
2,0,0,1,0,54389.2,0.117901,0.117563,-18.0629,28,0.0128339,10,-0.00212353,-1.74321,-0.173846,-0.339381,239.297,0.117563,
2,0,0,1,0,54389.3,0.115504,0.115137,-18.6504,28,0.0127237,10,-0.00214735,-1.72931,-0.176225,-0.3348,243.626,0.115137,
2,0,0,1,0,54389.3,0.113107,0.112765,-19.2344,28,0.01261,10,-0.00216897,-1.71592,-0.178977,-0.329651,247.345,0.1127649,
2,0,0,1,0,54389.3,0.110702,0.110329,-19.8279,28,0.0124927,10,-0.0021876,-1.70272,-0.188669,-0.312717,241.627,0.110329,
2,0,0,1,0,54389.3,0.108305,0.107968,-20.3955,28,0.012372,10,-0.00220205,-1.69047,-0.199642,-0.295529,234.842,0.107968,
2,0,0,1,0,54389.3,0.105908,0.105607,-20.9387,28,0.0122479,10,-0.00221128,-1.67905,-0.205851,-0.286615,234.281,0.105607,
2,0,0,1,0,54389.3,0.103505,0.103185,-21.503,28,0.0121206,10,-0.00221879,-1.6675,-0.21234,-0.277856,233.105,0.103185,
2,0,0,1,0,54389.3,0.101102,0.100815,-22.0603,28,0.0119898,10,-0.00222401,-1.65639,-0.220492,-0.267583,230.228,0.100815,
2,0,0,1,0,54389.3,0.0987052,0.098425,-22.6082,28,0.0118557,10,-0.00222521,-1.64573,-0.237015,-0.248929,219.375,0.098425,
2,0,0,1,0,54389.3,0.0963081,0.0959776,-23.1345,28,0.0117184,10,-0.0022204,-1.63574,-0.249245,-0.236714,213.426,0.0959776,
2,0,0,1,0,54389.3,0.0938999,0.0936065,-23.6265,28,0.0115781,10,-0.00221159,-1.6266,-0.266642,-0.22127,203.849,0.0936065,
2,0,0,1,0,54389.3,0.0915028,0.0911888,-24.1099,28,0.0114349,10,-0.00219855,-1.6178,-0.286353,-0.20604,193.62,0.0911888,
2,0,0,1,0,54389.3,0.0891057,0.0887668,-24.5632,28,0.0112888,10,-0.0021804,-1.60971,-0.305847,-0.192907,184.616,0.0887668,
2,0,0,1,0,54389.3,0.0867002,0.0863915,-24.989,28,0.0111401,10,-0.00215884,-1.60225,-0.334903,-0.17617,171.571,0.0863915,
2,0,0,1,0,54389.3,0.0843031,0.0839632,-25.3761,28,0.010989,10,-0.00213066,-1.59558,-0.36545,-0.161445,159.694,0.0839632,
2,0,0,1,0,54389.3,0.081906,0.0815624,-25.7425,28,0.0108356,10,-0.00209962,-1.58935,-0.398598,-0.148019,148.608,0.0815624,
2,0,0,1,0,54389.3,0.0795089,0.079203,-26.0867,28,0.01068,10,-0.00206615,-1.58358,-0.440454,-0.133953,136.275,0.079203,
2,0,0,1,0,54389.3,0.0771007,0.07678,-26.4125,28,0.0105225,10,-0.00202795,-1.57819,-0.479864,-0.122951,126.601,0.07678,
2,0,0,1,0,54389.4,0.0747036,0.074428,-26.6975,28,0.0103631,10,-0.00198705,-1.57353,-0.532823,-0.110731,115.277,0.074428,
2,0,0,1,0,54389.4,0.0723065,0.0720368,-26.9676,28,0.0102021,10,-0.00194266,-1.56916,-0.603874,-0.0977025,102.684,0.0720368,
2,0,0,1,0,54389.4,0.0699011,0.069565,-27.2066,28,0.0100396,10,-0.00189263,-1.56533,-0.690474,-0.0854486,90.6042,0.069565,
2,0,0,1,0,54389.4,0.067504,0.0672024,-27.3988,28,0.00987575,10,-0.00184127,-1.56227,-0.789044,-0.074774,79.8834,0.0672024,
2,0,0,1,0,54389.4,0.0651069,0.0647561,-27.5824,28,0.00971077,10,-0.00178613,-1.55937,-0.91544,-0.0644499,69.2966,0.0647561,
2,0,0,1,0,54389.4,0.0627098,0.0623521,-27.7164,28,0.00954483,10,-0.00172817,-1.55726,-1.13195,-0.0521226,56.3569,0.0623521,
2,0,0,1,0,54389.4,0.0603016,0.0599736,-27.8412,28,0.0093781,10,-0.00166974,-1.55531,-1.37065,-0.0430452,46.7564,0.0599736,
2,0,0,1,0,54389.4,0.0579045,0.057522,-27.9581,28,0.00921067,10,-0.0016082,-1.55349,-1.72129,-0.0342766,37.3612,0.057522,
2,0,0,1,0,54389.4,0.0555074,0.0551551,-28.0289,28,0.0090427,10,-0.00154594,-1.55239,-2.03588,-0.0289801,31.6926,0.0551551,
2,0,0,1,0,54389.4,0.0530992,0.0527162,-28.1104,28,0.0088743,10,-0.00148188,-1.55113,-2.64278,-0.022325,24.4723,0.05271621,
2,0,0,1,0,54389.4,0.0507021,0.0503632,-28.1623,28,0.0087055,10,-0.00141834,-1.55033,-3.65044,-0.0161624,17.7469,0.0503632,
2,0,0,1,0,54389.4,0.048305,0.0479507,-28.1892,28,0.00853647,10,-0.0013517,-1.54992,-5.41448,-0.0108967,11.9844,0.0479507,
2,0,0,1,0,54389.4,0.0459051,0.0455775,-28.2123,28,0.00836728,10,-0.00128585,-1.54956,-10.0898,-0.00584746,6.43473,0.0455775,
2,0,0,1,0,54389.4,0.0435024,0.0431418,-28.2105,28,0.00819798,10,-0.00121705,-1.54959,-19.1639,-0.00307871,3.3899,0.0431418,
2,0,0,1,0,54389.4,0.0411053,0.0407326,-28.2172,28,0.00802868,10,-0.00114936,-1.54949,34.8567,0.00169265,-1.8635,0.0407326,
2,0,0,1,0,54389.4,0.0387082,0.0383233,-28.2096,28,0.00785937,10,-0.00108109,-1.5496,11.5961,0.00508794,-5.59975,0.0383233,
2,0,0,1,0,54389.5,0.0363,0.0359427,-28.1895,28,0.00769018,10,-0.00101321,-1.54991,7.25657,0.00813056,-8.94391,0.0359427,
2,0,0,1,0,54389.5,0.0339029,0.033561,-28.1692,28,0.00752111,10,-0.000945387,-1.55023,4.89951,0.012042,-13.2304,0.033561,
2,0,0,1,0,54389.5,0.0315058,0.0311539,-28.1374,28,0.00735219,10,-0.000876591,-1.55072,4.29905,0.013724,-15.0656,0.0311539,
2,0,0,1,0,54389.5,0.0291087,0.0287691,-28.0808,28,0.00718357,10,-0.000807859,-1.55159,3.52898,0.0167187,-18.3281,0.02876905,
2,0,0,1,0,54389.5,0.0267033,0.0263566,-28.0555,28,0.00701514,10,-0.000739449,-1.55198,3.18744,0.0185102,-20.2524,0.0263566,
2,0,0,1,0,54389.5,0.0243062,0.0239686,-27.9955,28,0.00684699,10,-0.000671013,-1.55291,2.51826,0.0234289,-25.589,0.0239686,
2,0,0,1,0,54389.5,0.0219091,0.0215498,-27.9282,28,0.00667924,10,-0.000601846,-1.55396,2.45054,0.0240763,-26.2471,0.0215498,
2,0,0,1,0,54389.5,0.0195009,0.0191596,-27.8726,28,0.00651185,10,-0.000534029,-1.55482,2.3133,0.0255047,-27.7298,0.0191596,
2,0,0,1,0,54389.5,0.0171038,0.0167504,-27.7884,28,0.00634487,10,-0.000465466,-1.55614,1.86574,0.0316228,-34.2918,0.0167504,
2,0,0,1,0,54389.5,0.0147067,0.0143475,-27.706,28,0.00617837,10,-0.000397513,-1.55743,1.77952,0.0331549,-35.8423,0.0143475,
2,0,0,1,0,54389.5,0.012304,0.011969,-27.6178,28,0.00601241,10,-0.000330559,-1.55881,1.60055,0.0368623,-39.719,0.011969,
2,0,0,1,0,54389.5,0.00990136,0.00952373,-27.5196,28,0.00584701,10,-0.00026209,-1.56036,1.44158,0.0409272,-43.9312,0.00952373,
2,0,0,1,0,54389.5,0.00750426,0.00716751,-27.4118,28,0.00568223,10,-0.000196475,-1.56206,1.26559,0.0466184,-49.8441,0.00716751,
2,0,0,1,0,54389.5,0.00510715,0.00475508,-27.2824,28,0.00551817,10,-0.00012973,-1.56412,1.46365,0.0403101,-42.9639,0.00475508,
2,0,0,1,0,54389.5,0.00270173,0.0024031,-27.1619,28,0.00535485,10,-6.52728e-05,-1.56604,1.24334,0.0474529,-50.3085,0.0024031,
2,0,0,1,0,54389.5,0.000304623,-0.00010794,-27.0632,28,0.00519207,10,2.9212e-06,-1.56762,1.08688,0.0542836,-57.2424,-0.00010794,
2,0,0,1,0,54389.5,-0.00209248,-0.00247477,-26.8908,28,0.00503025,10,6.65485e-05,-1.5704,0.952426,0.0619471,-65.0408,-0.00247477,
2,0,0,1,0,54389.6,-0.00450068,-0.00494234,-26.7503,28,0.00486938,10,0.000132209,-1.57267,0.965044,0.0611371,-63.7824,-0.00494234,
2,0,0,1,0,54389.6,-0.00689779,-0.00730386,-26.5908,28,0.00470939,10,0.000194215,-1.57527,0.908577,0.0649367,-67.3258,-0.00730386,
2,0,0,1,0,54389.6,-0.00929489,-0.00970144,-26.4095,28,0.00455041,10,0.00025621,-1.57824,0.876212,0.0673353,-69.4355,-0.00970144,
2,0,0,1,0,54389.6,-0.011692,-0.0120874,-26.2433,28,0.00439247,10,0.000317212,-1.58098,0.858365,0.0687353,-70.4058,-0.0120874,
2,0,0,1,0,54389.6,-0.0140974,-0.014486,-26.0712,28,0.00423549,10,0.000377667,-1.58384,0.854541,0.0690429,-70.2532,-0.014486,
2,0,0,1,0,54389.6,-0.0164945,-0.0169271,-25.8972,28,0.00407956,10,0.000438364,-1.58675,0.804539,0.0733339,-74.1356,-0.0169271,
2,0,0,1,0,54389.6,-0.0188916,-0.0192748,-25.7307,28,0.00392468,10,0.000495953,-1.58955,0.827803,0.071273,-71.5953,-0.0192748,
2,0,0,1,0,54389.6,-0.0212998,-0.0216618,-25.5645,28,0.00377084,10,0.000553773,-1.59236,0.852332,0.0692218,-69.0686,-0.0216618,
2,0,0,1,0,54389.6,-0.0236969,-0.0240689,-25.4112,28,0.00361795,10,0.000611619,-1.59498,0.866797,0.0680667,-67.465,-0.0240689,
2,0,0,1,0,54389.6,-0.026094,-0.0264951,-25.2424,28,0.00346604,10,0.000668799,-1.59787,0.916241,0.0643935,-63.4613,-0.0264951,
2,0,0,1,0,54389.6,-0.0284912,-0.0288991,-25.0842,28,0.00331512,10,0.000724909,-1.6006,0.972273,0.0606826,-59.435,-0.0288991,
2,0,0,1,0,54389.6,-0.0308994,-0.031303,-24.9467,28,0.00316503,10,0.000780906,-1.60299,0.997933,0.0591222,-57.5359,-0.031303,
2,0,0,1,0,54389.6,-0.0332965,-0.0337006,-24.8029,28,0.00301578,10,0.000835873,-1.6055,1.02295,0.0576765,-55.8603,-0.0337006,
2,0,0,1,0,54389.6,-0.0356936,-0.0360982,-24.6629,28,0.00286741,10,0.000890287,-1.60796,1.13581,0.0519453,-50.0517,-0.0360982,
2,0,0,1,0,54389.6,-0.038099,-0.0384597,-24.5672,28,0.0027197,10,0.000944848,-1.60964,1.17925,0.050032,-47.957,-0.0384597,
2,0,0,1,0,54389.6,-0.0404961,-0.0409156,-24.4452,28,0.00257267,10,0.00100019,-1.61181,1.22511,0.0481591,-45.9674,-0.0409156,
2,0,0,1,0,54389.6,-0.0428932,-0.0433195,-24.3465,28,0.00242633,10,0.00105468,-1.61356,1.47401,0.0400267,-38.0529,-0.0433195,
2,0,0,1,0,54389.7,-0.0452903,-0.045698,-24.2554,28,0.00228054,10,0.00110842,-1.61519,1.62863,0.0362269,-34.3027,-0.045698,
2,0,0,1,0,54389.7,-0.0476985,-0.0481401,-24.1833,28,0.00213523,10,0.00116419,-1.61648,1.83021,0.0322368,-30.4279,-0.0481401,
2,0,0,1,0,54389.7,-0.0500956,-0.050473,-24.1078,28,0.00199038,10,0.00121679,-1.61784,1.95576,0.0301673,-28.394,-0.050473,
2,0,0,1,0,54389.7,-0.0524927,-0.0528547,-24.0391,28,0.00184593,10,0.00127058,-1.61908,2.47068,0.02388,-22.4232,-0.0528547,
2,0,0,1,0,54389.7,-0.0548981,-0.0552894,-24.0001,28,0.00170181,10,0.00132695,-1.61979,2.77393,0.0212695,-19.9223,-0.0552894,
2,0,0,1,0,54389.7,-0.0572953,-0.0576509,-23.9471,28,0.00155795,10,0.00138057,-1.62075,3.04059,0.0194041,-18.1447,-0.0576509,
2,0,0,1,0,54389.7,-0.0596924,-0.0601418,-23.9154,28,0.00141438,10,0.00143831,-1.62132,5.46798,0.0107901,-10.0793,-0.0601418,
2,0,0,1,0,54389.7,-0.062095,-0.0624779,-23.9078,28,0.00127096,10,0.00149371,-1.62146,7.31832,0.00806196,-7.51744,-0.0624779,
2,0,0,1,0,54389.7,-0.0644977,-0.0649168,-23.8861,28,0.00112756,10,0.00155061,-1.62185,11.1657,0.00528406,-4.92568,-0.0649168,
2,0,0,1,0,54389.7,-0.0668948,-0.0673218,-23.8656,28,0.000984328,10,0.00160668,-1.62223,15.2349,0.00387269,-3.61012,-0.0673218,
2,0,0,1,0,54389.7,-0.0692919,-0.069694,-23.8698,28,0.000841115,10,0.00166358,-1.62215,-19.9127,-0.00296294,2.76154,-0.069694,
2,0,0,1,0,54389.7,-0.0717001,-0.0720863,-23.8866,28,0.000697819,10,0.0017219,-1.62185,-9.39659,-0.00627887,5.85338,-0.0720863,
2,0,0,1,0,54389.7,-0.0740972,-0.0745156,-23.9029,28,0.000554475,10,0.00178114,-1.62155,-7.96677,-0.00740576,6.91305,-0.0745156,
2,0,0,1,0,54389.7,-0.0764943,-0.0769111,-23.9227,28,0.000411023,10,0.00183992,-1.62119,-4.27702,-0.0137947,12.8837,-0.0769111,
2,0,0,1,0,54389.7,-0.0788997,-0.0793055,-23.9571,28,0.000267386,10,0.00189993,-1.62057,-3.68141,-0.0160265,14.9856,-0.0793055,
2,0,0,1,0,54389.7,-0.0812968,-0.0817062,-23.9909,28,0.000123521,10,0.0019602,-1.61995,-3.32419,-0.0177487,16.6199,-0.0817062,
2,0,0,1,0,54389.8,-0.0836939,-0.0841357,-24.0357,28,-2.05745e-05,10,0.00202226,-1.61914,-2.68333,-0.0219876,20.6354,-0.0841357,
2,0,0,1,0,54389.8,-0.086091,-0.0864834,-24.0814,28,-0.000164939,10,0.00208264,-1.61832,-2.32402,-0.025387,23.8759,-0.0864834,
2,0,0,1,0,54389.8,-0.0884992,-0.0888969,-24.1556,28,-0.000309702,10,0.00214736,-1.61698,-2.24909,-0.0262329,24.7254,-0.0888969,
2,0,0,1,0,54389.8,-0.0908963,-0.0912913,-24.2142,28,-0.000454831,10,0.00221054,-1.61593,-2.12441,-0.0277724,26.2611,-0.0912913,
2,0,0,1,0,54389.8,-0.0932935,-0.0936931,-24.2948,28,-0.000600334,10,0.00227626,-1.61449,-1.80336,-0.0327167,31.0303,-0.0936931,
2,0,0,1,0,54389.8,-0.0956989,-0.0960896,-24.3815,28,-0.00074633,10,0.00234281,-1.61294,-1.65037,-0.0357496,34.0041,-0.0960896,
2,0,0,1,0,54389.8,-0.098096,-0.0985201,-24.4475,28,-0.000892809,10,0.00240857,-1.61177,-2.14788,-0.0274689,26.166,-0.09852007,
2,0,0,0,0,54389.8,-0.0999548,-0.100419,-24.502,28,-0.00100789,10,0.00246047,-1.6108,0.0282245,2.09038,-1878.46,-0.100419,
2,0,0,1,1,54389.8,-0.0994555,-0.0999177,-23.1768,28,-0.00104812,10,0.00231577,-1.63495,-0.0267418,-2.20628,1831.47,-0.0999177,
2,0,0,1,1,54389.8,-0.0970583,-0.097501,-19.3323,28,-0.00117447,10,0.00188492,-1.71372,-0.0316449,-1.86444,1434.01,-0.097501,
2,0,0,1,1,54389.8,-0.0946501,-0.0950971,-16.5004,28,-0.00128146,10,0.00156914,-1.78251,-0.0352931,-1.67171,1088.95,-0.0950971,
2,0,0,1,1,54389.8,-0.092253,-0.0926634,-14.1386,28,-0.00137299,10,0.00131013,-1.84959,-0.03538,-1.66761,924.561,-0.0926634,
2,0,0,1,1,54389.8,-0.0898559,-0.0902733,-12.0752,28,-0.00145134,10,0.00109007,-1.91811,-0.0337995,-1.74559,821.656,-0.0902733,
2,0,0,1,1,54389.8,-0.0874588,-0.0879149,-10.2106,28,-0.00151795,10,0.000897662,-1.99095,-0.0316466,-1.86434,740.444,-0.0879149,
2,0,0,1,1,54389.8,-0.0850534,-0.085459,-8.51198,28,-0.00157385,10,0.000727425,-2.06997,-0.0287994,-2.04866,676.558,-0.085459,
2,0,0,1,1,54389.8,-0.0826563,-0.0830731,-6.9725,28,-0.00162009,10,0.000579227,-2.15661,-0.0249693,-2.3629,633.354,-0.0830731,
2,0,0,1,1,54389.8,-0.0802592,-0.0806936,-5.52768,28,-0.00165737,10,0.000446048,-2.25746,-0.0213182,-2.76758,583.088,-0.0806936,
2,0,0,1,1,54389.8,-0.077851,-0.0783013,-4.16682,28,-0.00168627,10,0.000326267,-2.3802,-0.0170857,-3.45317,540.611,-0.0783013,
2,0,0,1,1,54389.9,-0.0754539,-0.0759419,-2.92793,28,-0.00170739,10,0.000222353,-2.53344,-0.0122143,-4.83038,503.977,-0.0759419,
2,0,0,1,1,54389.9,-0.0730568,-0.0734892,-1.74725,28,-0.00172126,10,0.000128404,-2.75765,-0.0059917,-9.84696,475.585,-0.0734892,
2,0,0,1,1,54389.9,-0.0706597,-0.0710895,-0.644827,28,-0.0017283,10,4.58404e-05,-3.19056,-0.0138859,-4.24893,443.152,-0.0710895,
2,1,0,1,1,54389.9,-0.0682542,-0.0686707,0.401446,28,-0.00172887,10,-2.75675e-05,-3.39637,0.0282375,2.08942,419.964,-0.0686707,
2,1,0,1,1,54389.9,-0.0658571,-0.0663091,1.3798,28,-0.00172341,10,-9.14936e-05,-2.86018,0.0039776,14.833,399.56,-0.0663091,
2,1,0,1,1,54389.9,-0.06346,-0.0638893,2.30664,28,-0.00171227,10,-0.00014737,-2.63702,0.0123079,4.79366,380.201,-0.0638893,
2,1,0,1,1,54389.9,-0.0610518,-0.0615161,3.19292,28,-0.00169566,10,-0.000196416,-2.49581,0.0191309,3.08401,359.383,-0.0615161,
2,1,0,1,1,54389.9,-0.0586547,-0.0591132,4.01587,28,-0.00167392,10,-0.000237391,-2.39622,0.0264131,2.23374,338.364,-0.0591132,
2,1,0,1,1,54389.9,-0.0562576,-0.0566828,4.79915,28,-0.0016474,10,-0.000272029,-2.31884,0.0336703,1.75229,321.904,-0.0566828,
2,1,0,1,1,54389.9,-0.053855,-0.0543138,5.57242,28,-0.00161621,10,-0.000302659,-2.25396,0.0409713,1.44003,307.076,-0.05431382,
2,1,0,1,1,54389.9,-0.0514523,-0.0519194,6.27386,28,-0.00158056,10,-0.000325735,-2.20247,0.0492686,1.19752,289.743,-0.0519194,
2,1,0,1,1,54389.9,-0.0490552,-0.0495038,6.95575,28,-0.00154079,10,-0.000344336,-2.15766,0.0573372,1.029,276.957,-0.0495038,
2,1,0,1,1,54389.9,-0.0466581,-0.0471646,7.61034,28,-0.001497,10,-0.000358938,-2.1186,0.0654702,0.901173,265.332,-0.0471646,
2,1,0,1,1,54389.9,-0.0442527,-0.0447118,8.22556,28,-0.00144941,10,-0.00036778,-2.08483,0.0759533,0.776793,247.59,-0.0447118,
2,1,0,1,1,54389.9,-0.0418556,-0.0422782,8.80374,28,-0.00139827,10,-0.000372207,-2.05533,0.0850735,0.693518,237.136,-0.0422782,
2,1,0,1,1,54389.9,-0.0394585,-0.0398796,9.35635,28,-0.00134374,10,-0.000373127,-2.02889,0.09421,0.62626,227.723,-0.0398796,
2,1,0,1,1,54389.9,-0.0370558,-0.0374788,9.89249,28,-0.00128594,10,-0.000370759,-2.00469,0.106145,0.555843,213.506,-0.0374788,
2,1,0,1,1,54390,-0.0346532,-0.0350537,10.3853,28,-0.00122502,10,-0.000364043,-1.98358,0.117645,0.50151,202.447,-0.0350537,
2,1,0,1,1,54390,-0.0322561,-0.0326349,10.8477,28,-0.00116124,10,-0.000354015,-1.96466,0.130887,0.450772,190.525,-0.0326349,
2,1,0,1,1,54390,-0.0298589,-0.0302447,11.3026,28,-0.00109471,10,-0.000341845,-1.94682,0.142161,0.415022,182.61,-0.0302447,
2,1,0,1,1,54390,-0.0274535,-0.0278885,11.7299,28,-0.00102552,10,-0.000327129,-1.93071,0.15842,0.372427,170.012,-0.0278885,
2,1,0,1,1,54390,-0.0250564,-0.0255036,12.13,28,-0.000953898,10,-0.000309358,-1.91614,0.172105,0.342813,162.114,-0.0255036,
2,1,0,1,1,54390,-0.0226593,-0.0230764,12.5166,28,-0.000879934,10,-0.000288837,-1.90251,0.183159,0.322124,156.97,-0.0230764,
2,1,0,1,1,54390,-0.0202511,-0.020682,12.8884,28,-0.000803673,10,-0.000266558,-1.8898,0.202532,0.291311,146.081,-0.020682,
2,1,0,1,1,54390,-0.017854,-0.0182536,13.2158,28,-0.000725336,10,-0.000241237,-1.87891,0.220444,0.267642,137.893,-0.0182536,
2,1,0,1,1,54390,-0.0154569,-0.0158613,13.5471,28,-0.000645029,10,-0.000214875,-1.86815,0.233049,0.253166,133.617,-0.0158613,
2,1,0,1,1,54390,-0.0130598,-0.0134797,13.8445,28,-0.000562809,10,-0.000186619,-1.85872,0.251968,0.234157,126.406,-0.0134797,
2,1,0,1,1,54390,-0.0106516,-0.0110333,14.1379,28,-0.000478799,10,-0.000155987,-1.84962,0.276096,0.213694,117.794,-0.0110333,
2,1,0,1,1,54390,-0.00825448,-0.00864316,14.4076,28,-0.000393103,10,-0.000124528,-1.84141,0.300848,0.196112,110.205,-0.00864316,
2,1,0,1,1,54390,-0.00585738,-0.00628269,14.6716,28,-0.000305819,10,-9.21771e-05,-1.83352,0.322688,0.182839,104.577,-0.00628269,
2,1,0,1,1,54390,-0.00345195,-0.00384057,14.9222,28,-0.000217005,10,-5.73096e-05,-1.82617,0.347332,0.169866,98.7218,-0.00384057,
2,1,0,1,1,54390,-0.00105485,-0.00147799,15.1405,28,-0.000126797,10,-2.23774e-05,-1.81986, , , ,-0.001477986,
2,1,0,0,1,54390,-7.54729e-05,-0.000573459,15.2271,28,-8.88366e-05,10,-8.73209e-06,-1.81738, , , ,-0.000573459,