File: Figure_codes/Fig_3-5/rawdata_trumpetplot_data/after 10th/20221101_1-115_003_TrumpetPlot_ParaChange_from10_every3_08_CV_C01_17.csv
mode,ox/red,error,control changes,counter inc.,time/s,control/V,Ewe/V,<I>/mA,cycle number,(Q-Qo)/C,I Range,P/W,log(|I|),Tafel slope mV/dec,alpha_eff,dI/d(E-IR),E-IR/V,
2,0,0,0,0,34667.2,2.44065e-05,-0.000363498,-4.01989,18,0.0000000E+000,10,1.46122e-06,-2.39579, , , ,-0.000363498,
2,0,0,1,0,34667.3,0.0012943,0.000936484,-2.35622,18,-4.79384e-05,10,-2.20657e-06,-2.62778, , , ,0.000936484,
2,0,0,1,0,34667.3,0.00279784,0.00248051,-1.12648,18,-7.9605e-05,10,-2.79426e-06,-2.94828,-0.00239782,-24.6057,696.952,0.00248051,
2,0,0,1,0,34667.3,0.00429425,0.00398709,-0.292468,18,-9.20898e-05,10,-1.1661e-06,-3.53392,-0.00863931,-6.82925,488.925,0.00398709,
2,1,0,1,0,34667.3,0.00579065,0.00548302,0.336129,18,-9.11314e-05,10,1.843e-06,-3.47349,0.0160128,3.68456,371.84,0.00548302,
2,1,0,1,0,34667.3,0.00729419,0.00695649,0.81886,18,-7.98434e-05,10,5.69639e-06,-3.08679,0.00417507,14.1315,294.852,0.00695649,
2,1,0,1,0,34667.3,0.00878347,0.00846439,1.20559,18,-6.06561e-05,10,1.02046e-05,-2.9188,0.010609,5.5613,232.869,0.00846439,
2,1,0,1,0,34667.4,0.010287,0.00994808,1.51742,18,-3.48162e-05,10,1.50954e-05,-2.81889,0.0173342,3.40368,190.131,0.00994808,
2,1,0,1,0,34667.4,0.0117905,0.0114543,1.77384,18,-3.61939e-06,10,2.03181e-05,-2.75108,0.0249709,2.36275,157.946,0.0114543,
2,1,0,1,0,34667.4,0.013278,0.0129721,1.98998,18,3.1566e-05,10,2.58141e-05,-2.70115,0.0323945,1.8213,138.653,0.0129721,
2,1,0,1,0,34667.4,0.0147816,0.014499,2.17306,18,7.0866e-05,10,3.15073e-05,-2.66293,0.0421005,1.40141,117.044,0.014499,
2,1,0,1,0,34667.4,0.0162851,0.0159667,2.32982,18,0.000113487,10,3.71995e-05,-2.63268,0.0524184,1.12556,101.204,0.0159667,
2,1,0,1,0,34667.5,0.0177744,0.017461,2.47009,18,0.000158379,10,4.31303e-05,-2.60729,0.0627421,0.940357,90.0488,0.017461,
2,1,0,1,0,34667.5,0.0192779,0.0189433,2.58706,18,0.000206147,10,4.90074e-05,-2.58719,0.0727759,0.810708,81.5974,0.0189433,
2,1,0,1,0,34667.5,0.0207743,0.0204575,2.70321,18,0.000255938,10,5.53009e-05,-2.56812,0.0815424,0.72355,76.0395,0.0204575,
2,1,0,1,0,34667.5,0.0222707,0.0219417,2.808,18,0.000307725,10,6.16125e-05,-2.5516,0.0983963,0.599616,65.5487,0.0219417,
2,1,0,1,0,34667.5,0.0237743,0.0234684,2.90043,18,0.000361714,10,6.80683e-05,-2.53754,0.109574,0.538447,60.8415,0.0234684,
2,1,0,1,0,34667.6,0.0252636,0.0249688,2.98828,18,0.000416793,10,7.46137e-05,-2.52458,0.120481,0.489705,57.1505,0.0249688,
2,1,0,1,0,34667.6,0.0267671,0.026463,3.07443,18,0.000474075,10,8.13589e-05,-2.51223,0.126584,0.466095,55.885,0.026463,
2,1,0,1,0,34667.6,0.0282706,0.0279955,3.15653,18,0.00053295,10,8.83687e-05,-2.50079,0.137954,0.427678,52.6996,0.0279955,
2,1,0,1,0,34667.6,0.0297581,0.0294223,3.24354,18,0.000592706,10,9.54324e-05,-2.48898,0.148892,0.396262,50.0348,0.0294223,
2,1,0,1,0,34667.6,0.0312617,0.0309646,3.3086,18,0.000654527,10,0.000102449,-2.48036,0.159697,0.36945,47.7304,0.0309646,
2,1,0,1,0,34667.6,0.0327652,0.0324493,3.38945,18,0.000717725,10,0.000109985,-2.46987,0.166015,0.35539,46.945,0.0324493,
2,1,0,1,0,34667.7,0.0342545,0.0339408,3.46754,18,0.000781644,10,0.000117691,-2.45998,0.168615,0.34991,47.1827,0.0339408,
2,1,0,1,0,34667.7,0.035758,0.0354665,3.53716,18,0.000847609,10,0.000125451,-2.45134,0.174185,0.33872,46.5899,0.0354665,
2,1,0,1,0,34667.7,0.0372544,0.0369272,3.60301,18,0.000914527,10,0.000133049,-2.44333,0.175844,0.335525,47.1216,0.0369272,
2,1,0,1,0,34667.7,0.0387508,0.0384529,3.66953,18,0.000982678,10,0.000141104,-2.43539,0.180327,0.327184,46.893,0.0384529,
2,1,0,1,0,34667.7,0.0402544,0.0399363,3.73918,18,0.00105253,10,0.000149329,-2.42722,0.178875,0.329839,48.1291,0.0399363,
2,1,0,1,0,34667.8,0.0417437,0.0414793,3.81272,18,0.00112298,10,0.000158149,-2.41877,0.189941,0.310623,46.1441,0.0414793,
2,1,0,1,0,34667.8,0.0432472,0.0429552,3.87913,18,0.00119546,10,0.000166629,-2.41127,0.198039,0.297921,45.024,0.0429552,
2,1,0,1,0,34667.8,0.0447507,0.0444699,3.93161,18,0.00126911,10,0.000174838,-2.40543,0.195897,0.301178,46.329,0.0444699,
2,1,0,1,0,34667.8,0.0462382,0.0459641,4.00069,18,0.00134323,10,0.000183888,-2.39786,0.198992,0.296494,46.3385,0.0459641,
2,1,0,1,0,34667.8,0.0477418,0.0474066,4.06696,18,0.00141939,10,0.000192801,-2.39073,0.218326,0.270238,42.9517,0.0474066,
2,1,0,1,0,34667.9,0.0492453,0.0489172,4.13256,18,0.0014968,10,0.000202153,-2.38378,0.234115,0.252013,40.6407,0.0489172,
2,1,0,1,0,34667.9,0.0507346,0.0504507,4.19295,18,0.00157453,10,0.000211537,-2.37748,0.244839,0.240974,39.4675,0.0504507,
2,1,0,1,0,34667.9,0.0522381,0.0519306,4.2552,18,0.00165423,10,0.000220975,-2.37108,0.24416,0.241645,40.18,0.0519306,
2,1,0,1,0,34667.9,0.0537345,0.0534436,4.32851,18,0.00173475,10,0.000231331,-2.36366,0.248558,0.237369,40.0309,0.05344364,
2,1,0,1,0,34667.9,0.0552309,0.0548783,4.39197,18,0.00181644,10,0.000241024,-2.35734,0.270673,0.217975,37.3061,0.0548783,
2,1,0,1,0,34667.9,0.0567345,0.0563995,4.44539,18,0.00189972,10,0.000250718,-2.35209,0.273774,0.215507,37.3781,0.0563995,
2,1,0,1,0,34668,0.0582237,0.0578923,4.51044,18,0.00198316,10,0.00026112,-2.34578,0.265851,0.221929,39.0526,0.0578923,
2,1,0,1,0,34668,0.0597273,0.0594142,4.57486,18,0.00206861,10,0.000271812,-2.33962,0.259499,0.227361,40.5035,0.0594142,
2,1,0,1,0,34668,0.0612308,0.0609231,4.62726,18,0.00215526,10,0.000281907,-2.33468,0.274074,0.21527,38.8154,0.0609231,
2,1,0,1,0,34668,0.0627183,0.0624379,4.68892,18,0.00224205,10,0.000292766,-2.32893,0.270744,0.217918,39.8307,0.0624379,
2,1,0,1,0,34668,0.0642218,0.0639045,4.73188,18,0.00233078,10,0.000302389,-2.32497,0.262462,0.224794,41.5899,0.0639045,
2,1,0,1,0,34668.1,0.0657254,0.065378,4.78822,18,0.00242061,10,0.000313044,-2.31983,0.267562,0.22051,41.2515,0.065378,
2,1,0,1,0,34668.1,0.0672147,0.0669169,4.85056,18,0.00251058,10,0.000324584,-2.31421,0.29305,0.201331,38.0993,0.0669169,
2,1,0,1,0,34668.1,0.0687182,0.0684057,4.90244,18,0.00260256,10,0.000335355,-2.30959,0.31869,0.185133,35.4112,0.0684057,
2,1,0,1,0,34668.1,0.0702146,0.0699002,4.95182,18,0.00269499,10,0.000346133,-2.30523,0.320361,0.184167,35.6301,0.0699002,
2,1,0,1,0,34668.1,0.071711,0.0713475,5.00478,18,0.00278838,10,0.000357079,-2.30062,0.336127,0.175529,34.3066,0.07134755,
2,1,0,1,0,34668.1,0.0732146,0.0728759,5.05583,18,0.00288327,10,0.000368448,-2.29621,0.358535,0.164558,32.4978,0.0728759,
2,1,0,1,0,34668.2,0.0747038,0.0743875,5.10738,18,0.00297808,10,0.000379925,-2.2918,0.399216,0.14779,29.4552,0.07438755,
2,1,0,1,0,34668.2,0.0762074,0.0758757,5.15385,18,0.00307478,10,0.000391052,-2.28787,0.392935,0.150152,30.1984,0.0758757,
2,1,0,1,0,34668.2,0.0777109,0.0773815,5.20615,18,0.00317237,10,0.000402859,-2.28348,0.403557,0.1462,29.6791,0.0773815,
2,1,0,1,0,34668.2,0.0791984,0.0788772,5.25313,18,0.00326981,10,0.000414352,-2.27958,0.423764,0.139228,28.5148,0.0788772,
2,1,0,1,0,34668.2,0.0807019,0.0804225,5.29993,18,0.00336915,10,0.000426234,-2.27573,0.4496,0.131228,27.0863,0.08042255,
2,1,0,1,0,34668.3,0.0822055,0.0819056,5.3381,18,0.00346934,10,0.00043722,-2.27261,0.456289,0.129304,26.9099,0.0819056,
2,1,0,1,0,34668.3,0.0836947,0.0833627,5.38217,18,0.00356917,10,0.000448672,-2.26904,0.462778,0.127491,26.7744,0.0833627,
2,1,0,1,0,34668.3,0.0851983,0.0848692,5.41795,18,0.00367088,10,0.000459817,-2.26617,0.424705,0.13892,29.3694,0.0848692,
2,1,0,1,0,34668.3,0.0866947,0.0863482,5.46224,18,0.00377283,10,0.000471654,-2.26263,0.45484,0.129716,27.6203,0.0863482,
2,1,0,1,0,34668.3,0.0881911,0.0879003,5.50268,18,0.00387553,10,0.000483687,-2.25943,0.482542,0.122269,26.2318,0.0879003,
2,1,0,1,0,34668.4,0.0896946,0.0893646,5.53464,18,0.00397945,10,0.000494601,-2.25691,0.456845,0.129147,27.9279,0.0893646,
2,1,0,1,0,34668.4,0.0911839,0.090865,5.57766,18,0.00408305,10,0.000506814,-2.25355,0.419055,0.140793,30.6394,0.090865,
2,1,0,1,0,34668.4,0.0926857,0.0923651,5.62017,18,0.00418859,10,0.000519108,-2.25025,0.426794,0.13824,30.3551,0.0923651,
2,1,0,1,0,34668.4,0.0941892,0.0939197,5.66489,18,0.00429497,10,0.000532044,-2.24681,0.438975,0.134404,29.7331,0.0939197,
2,1,0,1,0,34668.4,0.0956785,0.0953488,5.70709,18,0.00440103,10,0.000544164,-2.24359,0.408127,0.144563,32.2727,0.0953488,
2,1,0,1,0,34668.4,0.097182,0.0969085,5.76007,18,0.00450914,10,0.0005582,-2.23957,0.37091,0.159068,35.8031,0.09690854,
2,1,0,1,0,34668.5,0.0986856,0.0983486,5.81685,18,0.00461833,10,0.000572079,-2.23531,0.351345,0.167926,38.18,0.0983486,
2,1,0,1,0,34668.5,0.100175,0.0998401,5.88251,18,0.0047274,10,0.000587311,-2.23044,0.366777,0.160861,36.9632,0.0998401,
2,1,0,1,0,34668.5,0.101678,0.101355,5.94495,18,0.00483881,10,0.000602552,-2.22585,0.333868,0.176717,41.0469,0.1013552,
2,1,0,1,0,34668.5,0.103175,0.102849,6.01908,18,0.00495081,10,0.000619058,-2.22047,0.297072,0.198605,46.6534,0.102849,
2,1,0,1,0,34668.5,0.104671,0.104376,6.09786,18,0.00506417,10,0.000636473,-2.21482,0.273714,0.215553,51.2431,0.104376,
2,1,0,1,0,34668.6,0.106175,0.10586,6.17114,18,0.00517967,10,0.000653276,-2.20963,0.261002,0.226052,54.3859,0.1058598,
2,1,0,1,0,34668.6,0.107662,0.107368,6.25276,18,0.00529541,10,0.000671344,-2.20393,0.248275,0.23764,58.0033,0.107368,
2,1,0,1,0,34668.6,0.109166,0.108855,6.33596,18,0.00541389,10,0.0006897,-2.19819,0.237884,0.24802,61.4021,0.108855,
2,1,0,1,0,34668.6,0.110669,0.110358,6.42782,18,0.00553408,10,0.000709363,-2.19194,0.230791,0.255643,64.1575,0.110358,
2,1,0,1,0,34668.6,0.112159,0.111815,6.52803,18,0.00565481,10,0.00072993,-2.18522,0.236968,0.248979,63.3975,0.111815,
2,1,0,1,0,34668.7,0.113662,0.113357,6.61848,18,0.00577864,10,0.000750251,-2.17924,0.231564,0.254789,65.8484,0.113357,
2,1,0,1,0,34668.7,0.115166,0.114857,6.71636,18,0.00590428,10,0.000771422,-2.17287,0.235721,0.250296,65.594,0.1148571,
2,1,0,1,0,34668.7,0.116655,0.116321,6.81175,18,0.00603035,10,0.000792347,-2.16674,0.243722,0.242079,64.3671,0.116321,
2,1,0,1,0,34668.7,0.118158,0.117841,6.90881,18,0.00615963,10,0.00081414,-2.1606,0.259478,0.227379,61.2859,0.117841,
2,1,0,1,0,34668.7,0.119655,0.119346,7.00463,18,0.00628998,10,0.000835976,-2.15462,0.278665,0.211724,57.8364,0.119346,
2,1,0,1,0,34668.7,0.121151,0.120866,7.08072,18,0.00642191,10,0.00085582,-2.14992,0.296084,0.199268,55.0906,0.120866,
2,1,0,1,0,34668.8,0.122655,0.12235,7.16636,18,0.00655614,10,0.000876803,-2.1447,0.316012,0.186701,52.1808,0.12235,
2,1,0,1,0,34668.8,0.124142,0.123809,7.25061,18,0.00669047,10,0.000897691,-2.13963,0.325763,0.181113,51.2191,0.123809,
2,1,0,1,0,34668.8,0.125646,0.125358,7.32229,18,0.00682765,10,0.000917907,-2.13535,0.388786,0.151755,43.3134,0.125358,
2,1,0,1,0,34668.8,0.127149,0.126834,7.38517,18,0.00696618,10,0.000936693,-2.13164,0.40747,0.144796,41.715,0.126834,
2,1,0,1,0,34668.8,0.128639,0.128335,7.45628,18,0.00710435,10,0.000956906,-2.12748,0.453296,0.130158,37.8335,0.128335,
2,1,0,1,0,34668.9,0.130142,0.129828,7.51163,18,0.00724516,10,0.000975222,-2.12427,0.478493,0.123304,36.1028,0.129828,
2,1,0,1,0,34668.9,0.131646,0.131357,7.5665,18,0.0073871,10,0.00099391,-2.12111,0.494953,0.119203,35.1383,0.131357,
2,1,0,1,0,34668.9,0.133135,0.132792,7.61731,18,0.00752847,10,0.00101152,-2.1182,0.527091,0.111935,33.243,0.132792,
2,1,0,1,0,34668.9,0.134639,0.134296,7.65931,18,0.00767219,10,0.00102862,-2.11581,0.572165,0.103117,30.8123,0.134296,
2,1,0,1,0,34668.9,0.136135,0.135797,7.70186,18,0.00781602,10,0.00104589,-2.1134,0.585013,0.100852,30.3017,0.135797,
2,1,0,1,0,34669,0.137631,0.137305,7.73481,18,0.00796061,10,0.00106203,-2.11155,0.689345,0.0855885,25.8303,0.137305,
2,1,0,1,0,34669,0.139135,0.138822,7.77064,18,0.00810665,10,0.00107874,-2.10954,0.896105,0.0658405,19.9513,0.138822,
2,1,0,1,0,34669,0.140622,0.140298,7.79101,18,0.00825166,10,0.00109307,-2.10841,1.03266,0.0571339,17.3788,0.140298,
2,1,0,1,0,34669,0.142126,0.141834,7.81769,18,0.00839865,10,0.00110882,-2.10692,1.66259,0.0354868,10.8161,0.141834,
2,1,0,1,0,34669,0.143629,0.143328,7.82512,18,0.00854601,10,0.00112156,-2.10651,7.33871,0.00803956,2.45262,0.143328,
2,1,0,1,0,34669,0.145119,0.144788,7.82159,18,0.00869186,10,0.00113247,-2.1067,-1.54482,-0.0381922,-11.6431,0.144788,
2,1,0,1,0,34669.1,0.146622,0.146351,7.79911,18,0.00883902,10,0.00114141,-2.10795,-0.726766,-0.0811815,-24.6708,0.146351,
2,1,0,1,0,34669.1,0.148126,0.147791,7.76073,18,0.00898557,10,0.00114697,-2.1101,-0.485309,-0.121572,-36.7406,0.147791,
2,1,0,1,0,34669.1,0.149615,0.149305,7.70396,18,0.0091296,10,0.00115024,-2.11329,-0.344287,-0.171368,-51.3456,0.149305,
2,1,0,1,0,34669.1,0.151119,0.1508,7.62048,18,0.00927383,10,0.00114917,-2.11802,-0.249757,-0.23623,-69.9433,0.1508,
2,1,0,1,0,34669.1,0.152615,0.152253,7.50323,18,0.00941543,10,0.00114239,-2.12475,-0.200986,-0.293553,-85.6563,0.152253,
2,1,0,1,0,34669.2,0.154111,0.153806,7.36433,18,0.00955457,10,0.00113268,-2.13287,-0.168304,-0.350555,-100.484,0.153806,
2,1,0,1,0,34669.2,0.155615,0.155316,7.20502,18,0.00969168,10,0.00111906,-2.14236,-0.145176,-0.406403,-113.828,0.155316,
2,1,0,1,0,34669.2,0.157102,0.156806,7.02131,18,0.00982419,10,0.00110098,-2.15358,-0.123188,-0.478943,-130.741,0.1568059,
2,1,0,1,0,34669.2,0.158606,0.158271,6.81759,18,0.00995443,10,0.00107903,-2.16637,-0.112422,-0.52481,-139.254,0.158271,
2,1,0,1,0,34669.2,0.16011,0.159835,6.59175,18,0.0100806,10,0.00105359,-2.181,-0.102535,-0.575414,-147.84,0.159835,
2,1,0,1,0,34669.3,0.161599,0.161331,6.37169,18,0.0102014,10,0.00102795,-2.19575,-0.0967774,-0.609647,-151.351,0.1613313,
2,1,0,1,0,34669.3,0.163102,0.16282,6.13573,18,0.0103192,10,0.000999018,-2.21213,-0.0947831,-0.622474,-149.148,0.16282,
2,1,0,1,0,34669.3,0.164606,0.164308,5.91247,18,0.0104327,10,0.000971464,-2.22823,-0.0923544,-0.638844,-147.526,0.164308,
2,1,0,1,0,34669.3,0.166095,0.165787,5.69668,18,0.0105409,10,0.000944434,-2.24438,-0.0953282,-0.618915,-137.783,0.165787,
2,1,0,1,0,34669.3,0.167599,0.16727,5.49413,18,0.0106463,10,0.000919002,-2.2601,-0.0969944,-0.608283,-130.645,0.16727,
2,1,0,1,0,34669.3,0.169095,0.168794,5.3071,18,0.0107475,10,0.000895805,-2.27514,-0.098566,-0.598583,-124.144,0.168794,
2,1,0,1,0,34669.4,0.170592,0.170266,5.12797,18,0.0108453,10,0.000873117,-2.29005,-0.102541,-0.575381,-115.41,0.170266,
2,1,0,1,0,34669.4,0.172095,0.17176,4.95985,18,0.0109404,10,0.000851905,-2.30453,-0.106271,-0.555184,-107.812,0.17176,
2,1,0,1,0,34669.4,0.173583,0.173257,4.81512,18,0.0110315,10,0.000834253,-2.31739,-0.115937,-0.508895,-95.8502,0.173257,
2,1,0,1,0,34669.4,0.175086,0.174803,4.68506,18,0.011121,10,0.000818963,-2.32928,-0.121011,-0.487559,-89.2427,0.174803,
2,1,0,1,0,34669.4,0.17659,0.176252,4.56045,18,0.011208,10,0.000803788,-2.34099,-0.131895,-0.447326,-79.5981,0.176252,
2,1,0,1,0,34669.5,0.178079,0.177784,4.44375,18,0.0112919,10,0.000790027,-2.35225,-0.140436,-0.420119,-72.9473,0.177784,
2,1,0,1,0,34669.5,0.179582,0.179282,4.34245,18,0.0113746,10,0.000778524,-2.36227,-0.152502,-0.386879,-65.6669,0.179282,
2,1,0,1,0,34669.5,0.181086,0.180763,4.24907,18,0.0114555,10,0.000768075,-2.37171,-0.171111,-0.344806,-57.2255,0.180763,
2,1,0,1,0,34669.5,0.182575,0.182295,4.16304,18,0.0115339,10,0.000758899,-2.38059,-0.17645,-0.334372,-54.3507,0.182295,
2,1,0,1,0,34669.5,0.184079,0.183798,4.08464,18,0.0116116,10,0.000750749,-2.38885,-0.189151,-0.311921,-49.7644,0.183798,
2,1,0,1,0,34669.6,0.185582,0.185256,4.01146,18,0.0116879,10,0.000743146,-2.3967,-0.208173,-0.283418,-44.4643,0.185256,
2,1,0,1,0,34669.6,0.18707,0.186714,3.94673,18,0.0117621,10,0.000736911,-2.40376,-0.222566,-0.26509,-40.8538,0.186714,
2,1,0,1,0,34669.6,0.188573,0.18821,3.88255,18,0.0118359,10,0.000730735,-2.41088,-0.239526,-0.24632,-37.3589,0.18821,
2,1,0,1,0,34669.6,0.19007,0.189759,3.82746,18,0.0119083,10,0.000726293,-2.41709,-0.244918,-0.240897,-36.0258,0.189759,
2,1,0,1,0,34669.6,0.191566,0.191278,3.77432,18,0.0119796,10,0.000721943,-2.42316,-0.246989,-0.238877,-35.2589,0.191278,
2,1,0,1,0,34669.6,0.19307,0.192771,3.72792,18,0.0120504,10,0.000718636,-2.42853,-0.2952,-0.199865,-29.1188,0.192771,
2,1,0,1,0,34669.7,0.194559,0.194239,3.6909,18,0.0121197,10,0.000716914,-2.43287,-0.295552,-0.199626,-28.7653,0.194239,
2,1,0,1,0,34669.7,0.196063,0.195754,3.6543,18,0.0121889,10,0.000715341,-2.4372,-0.287702,-0.205073,-29.2377,0.195754,
2,1,0,1,0,34669.7,0.197566,0.197241,3.61056,18,0.0122574,10,0.00071215,-2.44243,-0.320063,-0.184338,-26.0059,0.197241,
2,1,0,1,0,34669.7,0.199055,0.198729,3.58228,18,0.0123245,10,0.000711902,-2.44584,-0.363512,-0.162305,-22.6799,0.1987288,
2,1,0,1,0,34669.7,0.200559,0.200229,3.55239,18,0.0123916,10,0.000711292,-2.44948,-0.383309,-0.153923,-21.2914,0.200229,
2,1,0,1,0,34669.8,0.202062,0.201726,3.52089,18,0.0124582,10,0.000710254,-2.45335,-0.430541,-0.137037,-18.7929,0.201726,
2,1,0,1,0,34669.8,0.20355,0.203269,3.49153,18,0.0125236,10,0.00070972,-2.45698,-0.441433,-0.133656,-18.2229,0.203269,
2,1,0,1,0,34669.8,0.205054,0.204731,3.46283,18,0.0125891,10,0.00070895,-2.46057,-0.611944,-0.096414,-13.0523,0.204731,
2,1,0,1,0,34669.8,0.20655,0.206245,3.43774,18,0.0126538,10,0.000709017,-2.46373,-0.68097,-0.0866411,-11.6354,0.206245,
2,1,0,1,0,34669.8,0.208046,0.207743,3.42198,18,0.0127182,10,0.000710893,-2.46572,-0.633379,-0.0931511,-12.4328,0.207743,
2,1,0,1,0,34669.9,0.20955,0.209217,3.39537,18,0.0127826,10,0.000710369,-2.46911,-0.569646,-0.103573,-13.7376,0.209217,
2,1,0,1,0,34669.9,0.211039,0.210719,3.3761,18,0.0128458,10,0.000711409,-2.47158,-0.555594,-0.106193,-14.0131,0.210719,
2,1,0,1,0,34669.9,0.212543,0.212233,3.35458,18,0.0129094,10,0.000711953,-2.47436,-0.675357,-0.0873612,-11.4465,0.212233,
2,1,0,1,0,34669.9,0.214046,0.21371,3.33974,18,0.0129726,10,0.000713738,-2.47629,-0.623754,-0.0945886,-12.3363,0.21371,
2,1,0,1,0,34669.9,0.215535,0.215249,3.32232,18,0.0130348,10,0.000715125,-2.47856,-0.646309,-0.0912876,-11.8405,0.215249,
2,1,0,1,0,34669.9,0.217039,0.216699,3.3033,18,0.0130973,10,0.000715824,-2.48105,-0.609879,-0.0967404,-12.5111,0.2166995,
2,1,0,1,0,34670,0.218543,0.218239,3.29194,18,0.0131596,10,0.000718429,-2.48255,-0.983671,-0.0599794,-7.71497,0.218239,
2,1,0,1,0,34670,0.22003,0.219755,3.29081,18,0.013221,10,0.000723171,-2.4827,-0.778371,-0.0757994,-9.7154,0.219755,
2,1,0,1,0,34670,0.221534,0.221252,3.27207,18,0.0132828,10,0.000723954,-2.48518,-0.747071,-0.0789751,-10.0722,0.221252,
2,1,0,1,0,34670,0.22303,0.222735,3.25526,18,0.0133441,10,0.000725062,-2.48741,-0.714205,-0.0826094,-10.4968,0.222735,
2,1,0,1,0,34670,0.224526,0.22425,3.24872,18,0.013405,10,0.000728527,-2.48829,-0.752821,-0.0783719,-9.92779,0.22425,
2,1,0,1,0,34670.1,0.22603,0.225735,3.23558,18,0.0134661,10,0.000730385,-2.49005,-1.28366,-0.0459622,-5.80127,0.225735,
2,1,0,1,0,34670.1,0.227519,0.227172,3.22897,18,0.0135264,10,0.000733531,-2.49094,-0.984209,-0.0599466,-7.53972,0.227172,
2,1,0,1,0,34670.1,0.229023,0.228715,3.21593,18,0.0135872,10,0.000735533,-2.49269,-1.2153,-0.0485477,-6.09061,0.228715,
2,1,0,1,0,34670.1,0.230526,0.23024,3.19882,18,0.0136476,10,0.000736496,-2.49501,-1.41938,-0.0415674,-5.19951,0.23024,
2,1,0,1,0,34670.1,0.232016,0.231705,3.19082,18,0.0137073,10,0.000739327,-2.4961,-1.94062,-0.0304026,-3.79005,0.231705,
2,1,0,1,0,34670.2,0.233519,0.233253,3.18228,18,0.0137675,10,0.000742275,-2.49726,-2.42804,-0.0242994,-3.02027,0.233253,
2,1,0,1,0,34670.2,0.235023,0.234699,3.17348,18,0.0138276,10,0.000744813,-2.49846,-1.74206,-0.033868,-4.20081,0.234699,
2,1,0,1,0,34670.2,0.23651,0.23618,3.16503,18,0.0138868,10,0.000747517,-2.49962,-1.7347,-0.0340117,-4.20393,0.23618,
2,1,0,1,0,34670.2,0.238014,0.237631,3.15689,18,0.0139465,10,0.000750176,-2.50074,-1.56213,-0.0377688,-4.6538,0.237631,
2,1,0,1,0,34670.2,0.23951,0.239206,3.14868,18,0.0140057,10,0.000753183,-2.50187,-2.81183,-0.0209828,-2.58284,0.239206,
2,1,0,1,0,34670.2,0.241006,0.240699,3.14704,18,0.0140648,10,0.000757492,-2.5021,-1.21362,-0.048615,-5.97006,0.240699,
2,1,0,1,0,34670.3,0.24251,0.242209,3.13347,18,0.0141241,10,0.000758955,-2.50397,-1.30181,-0.0453217,-5.55613,0.242209,
2,1,0,1,0,34670.3,0.243999,0.243701,3.13462,18,0.0141826,10,0.000763912,-2.50381,-1.43709,-0.0410553,-5.01663,0.243701,
2,1,0,1,0,34670.3,0.245503,0.245211,3.13325,18,0.0142417,10,0.000768309,-2.504,-1.56544,-0.037689,-4.59948,0.2452112,
2,1,0,1,0,34670.3,0.247006,0.246742,3.12525,18,0.0143007,10,0.000771131,-2.50511,-1.34621,-0.0438267,-5.33669,0.246742,
2,1,0,1,0,34670.3,0.248496,0.248151,3.11508,18,0.0143589,10,0.00077301,-2.50653,-1.10827,-0.0532362,-6.47191,0.248151,
2,1,0,1,0,34670.4,0.249999,0.249668,3.11277,18,0.0144175,10,0.000777159,-2.50685,-1.58671,-0.0371838,-4.5069,0.249668,
2,1,0,1,0,34670.4,0.251503,0.251209,3.10568,18,0.0144761,10,0.000780175,-2.50784,-13.4112,-0.0043993,-0.532982,0.251209,
2,1,0,1,0,34670.4,0.25299,0.252664,3.09756,18,0.014534,10,0.000782644,-2.50898,-2.358,-0.0250212,-3.02355,0.252664,
2,1,0,1,0,34670.4,0.254494,0.254169,3.09173,18,0.0145924,10,0.000785819,-2.5098,-3.60338,-0.0163735,-1.97406,0.254169,
2,1,0,1,0,34670.4,0.25599,0.255668,3.0796,18,0.0146503,10,0.000787355,-2.51151,-3.67991,-0.016033,-1.93201,0.255668,
2,1,0,1,0,34670.5,0.257487,0.257233,3.07678,18,0.0147081,10,0.00079145,-2.5119,-7.68353,-0.00767876,-0.922885,0.257233,
2,1,0,1,0,34670.5,0.25899,0.258677,3.07219,18,0.0147662,10,0.000794706,-2.51255,-4.4919,-0.0131348,-1.57542,0.2586773,
2,1,0,1,0,34670.5,0.260479,0.26016,3.07415,18,0.0148236,10,0.000799772,-2.51228,-1.96434,-0.0300355,-3.60112,0.2601603,
2,1,0,1,0,34670.5,0.261983,0.261651,3.06233,18,0.0148815,10,0.00080126,-2.51395,-1.6345,-0.0360966,-4.31365,0.2616508,
2,1,0,1,0,34670.5,0.263486,0.263201,3.05346,18,0.0149392,10,0.000803674,-2.51521,-2.35355,-0.0250685,-2.99074,0.263201,
2,1,0,1,0,34670.5,0.264974,0.264688,3.05212,18,0.0149963,10,0.00080786,-2.5154,-1.89171,-0.0311888,-3.71768,0.2646881,
2,1,0,1,0,34670.6,0.266477,0.266117,3.04962,18,0.0150539,10,0.000811553,-2.51575,-1.01289,-0.0582489,-6.93208,0.266117,
2,1,0,1,0,34670.6,0.267981,0.267668,3.04202,18,0.0151114,10,0.000814253,-2.51684,-1.47953,-0.0398775,-4.73631,0.267668,
2,1,0,1,0,34670.6,0.26947,0.269139,3.0424,18,0.0151682,10,0.00081883,-2.51678,-2.07872,-0.0283828,-3.3656,0.269139,
2,1,0,1,0,34670.6,0.270974,0.270657,3.04179,18,0.0152255,10,0.000823283,-2.51687,-1.55677,-0.0378991,-4.48821,0.2706573,
2,1,0,1,0,34670.6,0.27247,0.272195,3.03874,18,0.0152825,10,0.00082713,-2.51731,-1.35648,-0.0434949,-5.14056,0.272195,
2,1,0,1,0,34670.7,0.273967,0.27366,3.02275,18,0.0153393,10,0.000827206,-2.5196,-2.22684,-0.026495,-3.12635,0.27366,
2,1,0,1,0,34670.7,0.27547,0.275166,3.01885,18,0.0153963,10,0.000830684,-2.52016,-1.85039,-0.0318852,-3.76096,0.275166,
2,1,0,1,0,34670.7,0.276959,0.276633,3.01476,18,0.0154526,10,0.000833983,-2.52075,-22.8318,-0.00258412,-0.304154,0.276633,
2,1,0,1,0,34670.7,0.278463,0.278137,3.0135,18,0.0155094,10,0.000838167,-2.52093,-3.44109,-0.0171457,-2.01292,0.278137,
2,1,0,1,0,34670.7,0.279967,0.279658,3.00609,18,0.0155662,10,0.000840676,-2.522,-3.31657,-0.0177895,-2.08633,0.279658,
2,1,0,1,0,34670.8,0.281454,0.281164,2.99503,18,0.0156223,10,0.000842095,-2.5236,-2.63645,-0.0223786,-2.62216,0.2811639,
2,1,0,1,0,34670.8,0.282958,0.282617,2.9889,18,0.0156788,10,0.000844715,-2.52449,-2.30829,-0.02556,-2.98541,0.282617,
2,1,0,1,0,34670.8,0.284461,0.284148,2.9847,18,0.0157353,10,0.000848097,-2.5251,-3.45877,-0.0170581,-1.99148,0.284148,
2,1,0,1,0,34670.8,0.28595,0.285659,2.98279,18,0.0157911,10,0.000852061,-2.52538,-1.33861,-0.0440754,-5.13452,0.285659,
2,1,0,1,0,34670.8,0.287454,0.287154,2.97149,18,0.0158474,10,0.000853277,-2.52703,-1.31143,-0.0449891,-5.23574,0.2871542,
2,1,0,1,0,34670.8,0.28895,0.288603,2.97176,18,0.0159032,10,0.00085766,-2.52699,-1.48625,-0.0396971,-4.60699,0.288603,
2,1,0,1,0,34670.9,0.290447,0.290144,2.9671,18,0.015959,10,0.000860887,-2.52767,-1.48714,-0.0396733,-4.59457,0.290144,
2,1,0,1,0,34670.9,0.29195,0.291686,2.96633,18,0.016015,10,0.000865238,-2.52778,-1.0875,-0.0542526,-6.27288,0.291686,
2,1,0,1,0,34670.9,0.29344,0.29311,2.95857,18,0.0160703,10,0.000867187,-2.52892,-1.82995,-0.0322412,-3.72263,0.29311,
2,1,0,1,0,34670.9,0.294943,0.294649,2.95744,18,0.016126,10,0.000871409,-2.52908,-2.2282,-0.0264787,-3.05265,0.294649,
2,1,0,1,0,34670.9,0.296447,0.296138,2.95341,18,0.0161817,10,0.000874615,-2.52968,-2.29546,-0.0257029,-2.957,0.2961379,
2,1,0,1,0,34671,0.297934,0.297649,2.94773,18,0.0162368,10,0.000877389,-2.53051,-21.7626,-0.00271107,-0.311955,0.297649,
2,1,0,1,0,34671,0.299438,0.299156,2.94305,18,0.0162923,10,0.000880432,-2.5312,-0.0304105,-1.94012,-204.666,0.299156,
2,1,0,1,0,34671,0.300012,0.299766,2.93384,18,0.016313,10,0.000879465,-2.53256,0.00163675,36.0471,2622.74,0.299766,
2,1,0,1,0,34671,0.298737,0.298445,1.44273,18,0.0163454,10,0.000430575,-2.84082,0.00390125,15.1234,728.104,0.298445,
2,1,0,1,0,34671,0.29724,0.296978,0.577689,18,0.0163632,10,0.000171561,-3.23831,0.00294942,20.0039,482.48,0.296978,
2,1,0,1,0,34671,0.295744,0.295412,0.0535489,18,0.0163684,10,1.5819e-05,-4.27125,0.0122489,4.81677,296.652,0.295412,
2,0,0,1,0,34671.1,0.29424,0.293957,-0.290919,18,0.0163657,10,-8.55179e-05,-3.53623,-0.00819498,-7.19953,195.177,0.2939575,
2,0,0,1,0,34671.1,0.292751,0.292425,-0.524297,18,0.0163577,10,-0.000153318,-3.28042,-0.00680077,-8.67549,139.312,0.292425,
2,0,0,1,0,34671.1,0.291248,0.290915,-0.703499,18,0.0163459,10,-0.000204658,-3.15274,-0.014162,-4.16608,104.965,0.290915,
2,0,0,1,0,34671.1,0.289744,0.289392,-0.840536,18,0.0163311,10,-0.000243244,-3.07544,-0.0224485,-2.62824,82.351,0.289392,
2,0,0,1,0,34671.1,0.288257,0.287919,-0.948173,18,0.0163142,10,-0.000272997,-3.02311,-0.0331327,-1.78072,64.0776,0.287919,
2,0,0,1,0,34671.2,0.286753,0.286449,-1.03556,18,0.0162954,10,-0.000296637,-2.98482,-0.0431099,-1.3686,54.5354,0.286449,
2,0,0,1,0,34671.2,0.285249,0.284974,-1.11083,18,0.016275,10,-0.000316557,-2.95435,-0.0534847,-1.10312,47.4614,0.284974,
2,0,0,1,0,34671.2,0.28376,0.283447,-1.18267,18,0.0162535,10,-0.000335224,-2.92714,-0.0600102,-0.983166,44.812,0.283447,
2,0,0,1,0,34671.2,0.282257,0.281908,-1.23977,18,0.0162306,10,-0.0003495,-2.90666,-0.0767982,-0.768247,36.8777,0.281908,
2,0,0,1,0,34671.2,0.28076,0.280424,-1.29505,18,0.0162067,10,-0.000363162,-2.88771,-0.0832641,-0.708589,35.5611,0.280424,
2,0,0,1,0,34671.2,0.279264,0.278986,-1.33979,18,0.0161819,10,-0.000373782,-2.87296,-0.0953307,-0.618898,32.2427,0.278986,
2,0,0,1,0,34671.3,0.27776,0.277471,-1.38499,18,0.0161561,10,-0.000384294,-2.85855,-0.103221,-0.571587,30.7304,0.2774708,
2,0,0,1,0,34671.3,0.276271,0.275953,-1.42321,18,0.0161297,10,-0.000392739,-2.84673,-0.114823,-0.513836,28.487,0.275953,
2,0,0,1,0,34671.3,0.274767,0.274484,-1.46118,18,0.0161024,10,-0.00040107,-2.8353,-0.140157,-0.420955,23.9948,0.274484,
2,0,0,1,0,34671.3,0.273264,0.27292,-1.49259,18,0.0160744,10,-0.000407357,-2.82606,-0.153594,-0.38413,22.4637,0.27292,
2,0,0,1,0,34671.3,0.271776,0.271464,-1.52872,18,0.016046,10,-0.000414992,-2.81567,-0.153956,-0.383227,22.9287,0.271464,
2,0,0,1,0,34671.4,0.270273,0.269959,-1.5721,18,0.0160166,10,-0.000424402,-2.80352,-0.18943,-0.311461,19.0185,0.269959,
2,0,0,1,0,34671.4,0.268769,0.268483,-1.59871,18,0.0159866,10,-0.000429227,-2.79623,-0.220157,-0.267991,16.6751,0.268483,
2,0,0,1,0,34671.4,0.26728,0.266958,-1.62341,18,0.0159565,10,-0.000433381,-2.78957,-0.230775,-0.25566,16.2096,0.266958,
2,0,0,1,0,34671.4,0.265777,0.265451,-1.65514,18,0.0159255,10,-0.000439358,-2.78117,-0.232029,-0.254279,16.3818,0.265451,
2,0,0,1,0,34671.4,0.26428,0.263984,-1.68491,18,0.0158941,10,-0.00044479,-2.77342,-0.215453,-0.273842,17.9634,0.263984,
2,0,0,1,0,34671.5,0.262784,0.262443,-1.71036,18,0.0158622,10,-0.000448873,-2.76691,-0.268081,-0.220083,14.6525,0.262443,
2,0,0,1,0,34671.5,0.26128,0.260966,-1.73425,18,0.0158296,10,-0.00045258,-2.76089,-0.242172,-0.243629,16.4756,0.260966,
2,0,0,1,0,34671.5,0.259791,0.259484,-1.76076,18,0.015797,10,-0.000456889,-2.7543,-0.245855,-0.239979,16.4965,0.259484,
2,0,0,1,0,34671.5,0.258287,0.257992,-1.78217,18,0.0157636,10,-0.000459786,-2.74905,-0.23632,-0.249661,17.362,0.257992,
2,0,0,1,0,34671.5,0.256786,0.256458,-1.8052,18,0.0157296,10,-0.000462957,-2.74348,-0.251422,-0.234665,16.4812,0.256458,
2,0,0,1,0,34671.5,0.255296,0.254964,-1.83082,18,0.0156956,10,-0.000466794,-2.73735,-0.293881,-0.200762,14.3046,0.254964,
2,0,0,1,0,34671.6,0.253793,0.253454,-1.84524,18,0.0156609,10,-0.000467684,-2.73395,-0.291314,-0.202531,14.5871,0.253454,
2,0,0,1,0,34671.6,0.252289,0.251963,-1.86524,18,0.0156258,10,-0.000469971,-2.72927,-0.298201,-0.197853,14.4258,0.251963,
2,0,0,1,0,34671.6,0.2508,0.250446,-1.88358,18,0.0155907,10,-0.000471735,-2.72502,-0.313294,-0.188321,13.8849,0.250446,
2,0,0,1,0,34671.6,0.249296,0.248944,-1.90546,18,0.0155548,10,-0.000474353,-2.72,-0.39829,-0.148133,11.0303,0.248944,
2,0,0,1,0,34671.6,0.2478,0.247499,-1.92448,18,0.0155187,10,-0.000476308,-2.71569,-0.363973,-0.1621,12.206,0.247499,
2,0,0,1,0,34671.7,0.246304,0.246002,-1.94824,18,0.0154823,10,-0.000479271,-2.71036,-0.380418,-0.155092,11.7931,0.246002,
2,0,0,1,0,34671.7,0.2448,0.244467,-1.97013,18,0.0154453,10,-0.000481632,-2.70551,-0.418451,-0.140996,10.8122,0.244467,
2,0,0,1,0,34671.7,0.243313,0.242966,-1.98836,18,0.0154083,10,-0.000483105,-2.7015,-0.433519,-0.136096,10.536,0.2429664,
2,0,0,1,0,34671.7,0.241809,0.241448,-2.00445,18,0.0153706,10,-0.000483971,-2.698,-0.466023,-0.126603,9.89174,0.241448,
2,0,0,1,0,34671.7,0.240306,0.240025,-2.02209,18,0.0153326,10,-0.000485353,-2.6942,-0.460721,-0.12806,10.0894,0.240025,
2,0,0,1,0,34671.7,0.238816,0.238493,-2.04291,18,0.0152946,10,-0.00048722,-2.68975,-0.411267,-0.143459,11.4107,0.2384928,
2,0,0,1,0,34671.8,0.237313,0.237015,-2.05962,18,0.0152559,10,-0.00048816,-2.68621,-0.409479,-0.144086,11.5582,0.2370149,
2,0,0,1,0,34671.8,0.235809,0.235501,-2.07682,18,0.0152168,10,-0.000489093,-2.6826,-0.388948,-0.151691,12.2833,0.2355012,
2,0,0,1,0,34671.8,0.23432,0.234017,-2.08895,18,0.015178,10,-0.000488852,-2.68007,-0.368026,-0.160315,13.101,0.234017,
2,0,0,1,0,34671.8,0.232816,0.232496,-2.10961,18,0.0151383,10,-0.000490477,-2.6758,-0.376859,-0.156557,12.8791,0.232496,
2,0,0,1,0,34671.8,0.23132,0.231005,-2.12414,18,0.0150985,10,-0.000490687,-2.67282,-0.410368,-0.143773,11.9233,0.231005,
2,0,0,1,0,34671.9,0.229824,0.229505,-2.14011,18,0.0150584,10,-0.000491168,-2.66956,-0.388651,-0.151807,12.6939,0.229505,
2,0,0,1,0,34671.9,0.22832,0.228021,-2.15413,18,0.0150178,10,-0.000491188,-2.66673,-0.416111,-0.141789,11.9415,0.228021,
2,0,0,1,0,34671.9,0.226832,0.226543,-2.17232,18,0.0149773,10,-0.000492125,-2.66308,-0.413229,-0.142778,12.0979,0.2265431,
2,0,0,1,0,34671.9,0.225329,0.225006,-2.18491,18,0.0149361,10,-0.000491619,-2.66057,-0.444991,-0.132587,11.3388,0.225006,
2,0,0,1,0,34671.9,0.223825,0.223496,-2.20733,18,0.0148946,10,-0.000493328,-2.65613,-0.569707,-0.103562,8.9137,0.223496,
2,0,0,1,0,34672,0.222336,0.222028,-2.21417,18,0.0148532,10,-0.000491608,-2.65479,-0.614839,-0.09596,8.32453,0.222028,
2,0,0,1,0,34672,0.220833,0.220504,-2.23536,18,0.0148111,10,-0.000492905,-2.65065,-0.53866,-0.109531,9.57129,0.220504,
2,0,0,1,0,34672,0.219329,0.219006,-2.26164,18,0.0147687,10,-0.000495313,-2.64558,-0.575598,-0.102502,9.01054,0.219006,
2,0,0,1,0,34672,0.21784,0.217501,-2.27635,18,0.0147263,10,-0.000495108,-2.64276,-0.596609,-0.0988922,8.74998,0.217501,
2,0,0,1,0,34672,0.216336,0.216015,-2.28741,18,0.0146833,10,-0.000494114,-2.64066,-0.63475,-0.09295,8.29779,0.2160151,
2,0,0,1,0,34672,0.21484,0.214501,-2.30299,18,0.0146403,10,-0.000493995,-2.63771,-0.562318,-0.104923,9.43069,0.214501,
2,0,0,1,0,34672.1,0.213343,0.213026,-2.32463,18,0.0145969,10,-0.000495206,-2.63365,-0.457508,-0.12896,11.667,0.213026,
2,0,0,1,0,34672.1,0.21184,0.211543,-2.33844,18,0.014553,10,-0.00049468,-2.63107,-0.517174,-0.114082,10.375,0.211543,
2,0,0,1,0,34672.1,0.210352,0.209994,-2.34781,18,0.0145092,10,-0.000493026,-2.62934,-0.479217,-0.123117,11.2842,0.209994,
2,0,0,1,0,34672.1,0.208849,0.208538,-2.36234,18,0.0144648,10,-0.000492639,-2.62666,-0.453011,-0.13024,12.0361,0.208538,
2,0,0,1,0,34672.1,0.207345,0.20703,-2.3745,18,0.01442,10,-0.000491592,-2.62443,-0.435646,-0.135431,12.585,0.20703,
2,0,0,1,0,34672.2,0.205856,0.205544,-2.3983,18,0.0143753,10,-0.000492957,-2.6201,-0.459095,-0.128514,12.0123,0.205544,
2,0,0,1,0,34672.2,0.204353,0.20404,-2.41475,18,0.0143299,10,-0.000492706,-2.61713,-0.591699,-0.0997128,9.38863,0.20404,
2,0,0,1,0,34672.2,0.202849,0.202529,-2.42081,18,0.0142842,10,-0.000490285,-2.61604,-0.579695,-0.101778,9.65044,0.202529,
2,0,0,1,0,34672.2,0.20136,0.201048,-2.43946,18,0.0142387,10,-0.000490448,-2.61271,-0.502157,-0.117493,11.2068,0.2010479,
2,0,0,1,0,34672.2,0.199856,0.19957,-2.45503,18,0.0141924,10,-0.000489951,-2.60994,-0.607454,-0.0971267,9.32836,0.19957,
2,0,0,1,0,34672.3,0.19836,0.198033,-2.47372,18,0.014146,10,-0.000489879,-2.60665,-0.705509,-0.0836276,8.08971,0.198033,
2,0,0,1,0,34672.3,0.196863,0.196557,-2.48803,18,0.0140994,10,-0.00048904,-2.60414,-0.543676,-0.108521,10.5634,0.196557,
2,0,0,1,0,34672.3,0.19536,0.195008,-2.50886,18,0.0140522,10,-0.000489248,-2.60052,-0.484323,-0.12182,11.9363,0.195008,
2,0,0,1,0,34672.3,0.193872,0.193508,-2.53473,18,0.0140052,10,-0.00049049,-2.59607,-0.516241,-0.114288,11.2697,0.193508,
2,0,0,1,0,34672.3,0.192369,0.192015,-2.55013,18,0.0139572,10,-0.000489664,-2.59344,-0.574623,-0.102676,10.1874,0.192015,
2,0,0,1,0,34672.3,0.190865,0.190589,-2.56633,18,0.013909,10,-0.000489113,-2.59069,-0.506561,-0.116472,11.6597,0.190589,
2,0,0,1,0,34672.4,0.189376,0.189048,-2.58037,18,0.013861,10,-0.000487813,-2.58832,-0.457961,-0.128832,12.995,0.189048,
2,0,0,1,0,34672.4,0.187872,0.187557,-2.59689,18,0.0138121,10,-0.000487064,-2.58555,-0.424925,-0.138848,14.0935,0.187557,
2,0,0,1,0,34672.4,0.186369,0.186051,-2.61956,18,0.0137629,10,-0.000487372,-2.58177,-0.435142,-0.135588,13.8481,0.186051,
2,0,0,1,0,34672.4,0.18488,0.184556,-2.64122,18,0.0137138,10,-0.000487453,-2.5782,-0.461968,-0.127714,13.1511,0.184556,
2,0,0,1,0,34672.4,0.183376,0.183041,-2.65566,18,0.0136638,10,-0.000486093,-2.57583,-0.436464,-0.135177,14.0158,0.183041,
2,0,0,1,0,34672.5,0.18188,0.181526,-2.68119,18,0.0136138,10,-0.000486706,-2.57167,-0.390221,-0.151197,15.8106,0.181526,
2,0,0,1,0,34672.5,0.180383,0.180062,-2.70103,18,0.0135633,10,-0.000486351,-2.56847,-0.382663,-0.154183,16.2276,0.180062,
2,0,0,1,0,34672.5,0.17888,0.178566,-2.72007,18,0.0135121,10,-0.000485714,-2.56542,-0.433205,-0.136194,14.4612,0.178566,
2,0,0,1,0,34672.5,0.177392,0.177037,-2.74172,18,0.013461,10,-0.000485385,-2.56198,-0.430938,-0.136911,14.678,0.177037,
2,0,0,1,0,34672.5,0.175889,0.175553,-2.7643,18,0.013409,10,-0.000485282,-2.55841,-0.423841,-0.139203,15.0308,0.1755534,
2,0,0,1,0,34672.6,0.174385,0.174013,-2.79173,18,0.0133565,10,-0.000485796,-2.55413,-0.407194,-0.144894,15.8086,0.174013,
2,0,0,1,0,34672.6,0.172896,0.172565,-2.81995,18,0.0133041,10,-0.000486624,-2.54976,-0.473883,-0.124503,13.6997,0.172565,
2,0,0,1,0,34672.6,0.171392,0.171068,-2.84731,18,0.0132507,10,-0.000487082,-2.54557,-0.399951,-0.147518,16.4014,0.171068,
2,0,0,1,0,34672.6,0.169889,0.169578,-2.87596,18,0.0131967,10,-0.000487699,-2.54122,-0.354109,-0.166615,18.7167,0.169578,
2,0,0,1,0,34672.6,0.1684,0.168021,-2.91393,18,0.0131428,10,-0.0004896,-2.53552,-0.324131,-0.182025,20.6311,0.168021,
2,0,0,1,0,34672.6,0.166896,0.166547,-2.9406,18,0.0130877,10,-0.000489747,-2.53156,-0.305401,-0.193189,22.1374,0.166547,
2,0,0,1,0,34672.7,0.165392,0.165041,-2.97123,18,0.0130319,10,-0.000490374,-2.52706,-0.281044,-0.209931,24.3594,0.165041,
2,0,0,1,0,34672.7,0.163905,0.163573,-3.00665,18,0.0129762,10,-0.000491807,-2.52192,-0.262401,-0.224847,26.4157,0.163573,
2,0,0,1,0,34672.7,0.162401,0.162083,-3.04677,18,0.0129191,10,-0.000493828,-2.51616,-0.236155,-0.249836,29.745,0.162083,
2,0,0,1,0,34672.7,0.160905,0.160586,-3.08742,18,0.0128616,10,-0.000495797,-2.5104,-0.235059,-0.251001,30.2417,0.160586,
2,0,0,1,0,34672.7,0.159409,0.159034,-3.12747,18,0.0128033,10,-0.000497375,-2.50481,-0.239179,-0.246678,30.1392,0.159034,
2,0,0,1,0,34672.8,0.157905,0.157561,-3.16918,18,0.0127438,10,-0.00049934,-2.49905,-0.209499,-0.281625,34.954,0.157561,
2,0,0,1,0,34672.8,0.156416,0.156097,-3.22842,18,0.012684,10,-0.000503947,-2.49101,-0.191141,-0.308673,38.9709,0.156097,
2,0,0,1,0,34672.8,0.154912,0.154613,-3.28455,18,0.0126225,10,-0.000507834,-2.48352,-0.194676,-0.303068,38.9603,0.1546129,
2,0,0,1,0,34672.8,0.153409,0.153099,-3.34844,18,0.0125599,10,-0.000512643,-2.47516,-0.192764,-0.306074,40.1082,0.153099,
2,0,0,1,0,34672.8,0.151919,0.151569,-3.40879,18,0.0124967,10,-0.000516667,-2.4674,-0.174747,-0.33763,45.097,0.151569,
2,0,0,1,0,34672.9,0.150416,0.150092,-3.4867,18,0.0124317,10,-0.000523327,-2.45759,-0.161089,-0.366258,49.9475,0.150092,
2,0,0,1,0,34672.9,0.148912,0.148605,-3.57516,18,0.0123651,10,-0.000531287,-2.4467,-0.141546,-0.416826,58.1636,0.148605,
2,0,0,1,0,34672.9,0.147425,0.147092,-3.66548,18,0.0122976,10,-0.000539162,-2.43587,-0.14099,-0.418468,59.8758,0.147092,
2,0,0,1,0,34672.9,0.145921,0.145585,-3.75717,18,0.0122277,10,-0.000546987,-2.42514,-0.128192,-0.460246,67.6407,0.145585,
2,0,0,1,0,34672.9,0.144425,0.144075,-3.86868,18,0.0121562,10,-0.00055738,-2.41244,-0.117357,-0.502741,76.1332,0.144075,
2,0,0,1,0,34672.9,0.142929,0.142608,-3.98983,18,0.0120826,10,-0.00056898,-2.39905,-0.109111,-0.540735,84.2597,0.142608,
2,0,0,1,0,34673,0.141425,0.141052,-4.12357,18,0.0120061,10,-0.000581639,-2.38473,-0.106803,-0.552418,88.8015,0.1410524,
2,0,0,1,0,34673,0.139936,0.139581,-4.26168,18,0.011928,10,-0.000594851,-2.37042,-0.101002,-0.584146,97.1786,0.139581,
2,0,0,1,0,34673,0.138432,0.138103,-4.40302,18,0.0118465,10,-0.000608072,-2.35625,-0.0968984,-0.608885,104.899,0.1381034,
2,0,0,1,0,34673,0.136929,0.136572,-4.56538,18,0.0117619,10,-0.000623501,-2.34052,-0.0942118,-0.626249,111.656,0.136572,
2,0,0,1,0,34673,0.135439,0.135097,-4.73727,18,0.0116752,10,-0.000639992,-2.32447,-0.0938455,-0.628693,116.107,0.135097,
2,0,0,1,0,34673.1,0.133936,0.133572,-4.90614,18,0.0115844,10,-0.000655321,-2.30926,-0.0981894,-0.60088,115.001,0.133572,
2,0,0,1,0,34673.1,0.132432,0.132077,-5.07686,18,0.0114903,10,-0.000670534,-2.2944,-0.09825,-0.600509,119.205,0.132077,
2,0,0,1,0,34673.1,0.130945,0.130591,-5.25998,18,0.0113939,10,-0.000686905,-2.27902,-0.0986842,-0.597867,122.703,0.130591,
2,0,0,1,0,34673.1,0.129441,0.129098,-5.44335,18,0.0112929,10,-0.000702725,-2.26413,-0.102177,-0.577431,122.715,0.129098,
2,0,0,1,0,34673.1,0.127945,0.127637,-5.63259,18,0.0111891,10,-0.000718927,-2.24929,-0.109,-0.541283,118.879,0.127637,
2,0,0,1,0,34673.2,0.126448,0.126108,-5.80496,18,0.0110818,10,-0.000732051,-2.2362,-0.115916,-0.508991,115.348,0.126108,
2,0,0,1,0,34673.2,0.124945,0.124571,-5.98802,18,0.0109707,10,-0.000745935,-2.22272,-0.120178,-0.490938,114.644,0.124571,
2,0,0,1,0,34673.2,0.123456,0.123152,-6.16671,18,0.0108574,10,-0.00075944,-2.20995,-0.126196,-0.467528,112.257,0.123152,
2,0,0,1,0,34673.2,0.121952,0.121627,-6.33271,18,0.0107398,10,-0.00077023,-2.19841,-0.137548,-0.428942,105.791,0.121627,
2,0,0,1,0,34673.2,0.120449,0.120098,-6.49352,18,0.0106191,10,-0.000779857,-2.18752,-0.140857,-0.418863,105.938,0.120098,
2,0,0,1,0,34673.2,0.118959,0.118639,-6.64091,18,0.0104968,10,-0.000787872,-2.17777,-0.152314,-0.387359,100.306,0.118639,
2,0,0,1,0,34673.3,0.117456,0.117152,-6.78538,18,0.0103704,10,-0.000794924,-2.16843,-0.161069,-0.366302,96.8741,0.117152,
2,0,0,1,0,34673.3,0.115952,0.115652,-6.92565,18,0.0102413,10,-0.000800964,-2.15954,-0.177151,-0.33305,89.8255,0.115652,
2,0,0,1,0,34673.3,0.114465,0.114135,-7.05507,18,0.010111,10,-0.000805232,-2.1515,-0.190098,-0.310366,85.3248,0.114135,
2,0,0,1,0,34673.3,0.112961,0.112646,-7.16743,18,0.00997713,10,-0.000807385,-2.14464,-0.21088,-0.279779,78.2572,0.112646,
2,0,0,1,0,34673.3,0.111465,0.111174,-7.28122,18,0.00984173,10,-0.000809479,-2.1378,-0.224304,-0.263036,74.6849,0.111174,
2,0,0,1,0,34673.4,0.109968,0.109628,-7.38822,18,0.0097043,10,-0.000809954,-2.13146,-0.255583,-0.230844,66.4891,0.109628,
2,0,0,1,0,34673.4,0.108465,0.108207,-7.48108,18,0.00956423,10,-0.000809502,-2.12604,-0.290229,-0.203288,59.2952,0.108207,
2,0,0,1,0,34673.4,0.106976,0.106654,-7.56181,18,0.00942404,10,-0.000806497,-2.12137,-0.336505,-0.175332,51.7323,0.106654,
2,0,0,1,0,34673.4,0.105472,0.105149,-7.63797,18,0.00928087,10,-0.000803123,-2.11702,-0.383442,-0.153869,45.843,0.105149,
2,0,0,1,0,34673.4,0.103968,0.103641,-7.71163,18,0.00913629,10,-0.000799243,-2.11285,-0.466864,-0.126375,37.9779,0.103641,
2,0,0,1,0,34673.5,0.102479,0.102163,-7.77011,18,0.00899213,10,-0.000793818,-2.10957,-0.63551,-0.0928388,28.0983,0.102163,
2,0,0,1,0,34673.5,0.100976,0.100669,-7.80293,18,0.00884559,10,-0.000785511,-2.10774,-0.829497,-0.0711274,21.6389,0.100669,
2,0,0,1,0,34673.5,0.0994721,0.0991417,-7.83836,18,0.00869839,10,-0.000777109,-2.10577,-1.14384,-0.0515807,15.7582,0.0991417,
2,0,0,1,0,34673.5,0.0979846,0.0976219,-7.86154,18,0.00855228,10,-0.000767459,-2.10449,-1.9407,-0.0304014,9.30761,0.0976219,
2,0,0,1,0,34673.5,0.0964811,0.0961393,-7.86814,18,0.0084043,10,-0.000756437,-2.10413,-10.6476,-0.00554116,1.69769,0.0961393,
2,0,0,1,0,34673.5,0.0949847,0.094642,-7.86059,18,0.00825707,10,-0.000743942,-2.10454,2.91127,0.0202661,-6.20951,0.094642,
2,0,0,1,0,34673.6,0.0934883,0.0931903,-7.84824,18,0.00811009,10,-0.000731379,-2.10523,1.97642,0.029852,-9.13736,0.0931903,
2,0,0,1,0,34673.6,0.0919847,0.0916435,-7.82626,18,0.00796261,10,-0.000717226,-2.10645,1.45666,0.0405037,-12.3556,0.0916435,
2,0,0,1,0,34673.6,0.0904955,0.0901319,-7.80174,18,0.00781706,10,-0.000703185,-2.10781,0.876003,0.0673514,-20.4616,0.0901319,
2,0,0,1,0,34673.6,0.0889919,0.0886308,-7.75858,18,0.00767062,10,-0.000687649,-2.11022,0.655423,0.0900182,-27.2383,0.0886308,
2,0,0,1,0,34673.6,0.0874884,0.0871559,-7.70861,18,0.00752506,10,-0.000671851,-2.11302,0.593954,0.0993344,-29.885,0.0871559,
2,0,0,1,0,34673.7,0.0860009,0.0856699,-7.65949,18,0.0073819,10,-0.000656187,-2.1158,0.56636,0.104174,-31.1381,0.0856699,
2,0,0,1,0,34673.7,0.0844973,0.08415,-7.60685,18,0.00723811,10,-0.000640117,-2.11879,0.506901,0.116394,-34.5745,0.08415,
2,0,0,1,0,34673.7,0.0829938,0.0826823,-7.55302,18,0.0070953,10,-0.000624501,-2.12188,0.469308,0.125717,-37.0768,0.0826823,
2,0,0,1,0,34673.7,0.0815045,0.0811762,-7.49667,18,0.00695505,10,-0.000608551,-2.12513,0.452345,0.130431,-38.2194,0.0811762,
2,0,0,1,0,34673.7,0.080001,0.0796747,-7.44946,18,0.00681432,10,-0.000593534,-2.12787,0.483357,0.122063,-35.4875,0.0796747,
2,0,0,1,0,34673.8,0.0785046,0.0781558,-7.39929,18,0.00667527,10,-0.000578297,-2.13081,0.499259,0.118175,-34.1503,0.0781558,
2,0,0,1,0,34673.8,0.0770082,0.0767036,-7.35439,18,0.00653715,10,-0.000564108,-2.13345,0.495092,0.11917,-34.1943,0.0767036,
2,0,0,1,0,34673.8,0.0755046,0.0751858,-7.30357,18,0.00639922,10,-0.000549125,-2.13646,0.533556,0.110579,-31.5254,0.0751858,
2,0,0,1,0,34673.8,0.0740154,0.0736561,-7.25869,18,0.00626363,10,-0.000534647,-2.13914,0.6058,0.0973919,-27.6055,0.0736561,
2,0,0,1,0,34673.8,0.0725118,0.0721315,-7.22552,18,0.00612737,10,-0.000521188,-2.14113,0.658952,0.0895361,-25.2361,0.0721315,
2,0,0,1,0,34673.8,0.0710083,0.0706887,-7.18345,18,0.00599179,10,-0.000507789,-2.14367,0.683301,0.0863455,-24.1943,0.0706887,
2,0,0,1,0,34673.9,0.0695208,0.0691835,-7.14969,18,0.00585836,10,-0.000494641,-2.14571,0.799567,0.07379,-20.5916,0.0691835,
2,0,0,1,0,34673.9,0.0680173,0.067679,-7.11308,18,0.00572421,10,-0.000481406,-2.14794,0.899392,0.0655999,-18.2148,0.067679,
2,0,0,1,0,34673.9,0.0665137,0.0661524,-7.07805,18,0.00559063,10,-0.00046823,-2.15009,0.912994,0.0646225,-17.8565,0.0661524,
2,0,0,1,0,34673.9,0.0650244,0.0646895,-7.04634,18,0.005459,10,-0.000455824,-2.15204,0.811434,0.0727108,-19.9975,0.06468948,
2,0,0,1,0,34673.9,0.0635209,0.0631979,-7.01345,18,0.00532654,10,-0.000443236,-2.15407,0.748169,0.0788592,-21.606,0.0631979,
2,0,0,1,0,34674,0.0620245,0.0617289,-6.9796,18,0.00519544,10,-0.000430843,-2.15617,0.779659,0.0756741,-20.6425,0.0617289,
2,0,0,1,0,34674,0.0605281,0.0601709,-6.9556,18,0.00506491,10,-0.000418525,-2.15767,0.829735,0.071107,-19.294,0.0601709,
2,0,0,1,0,34674,0.0590246,0.0586985,-6.92418,18,0.0049342,10,-0.000406439,-2.15963,0.770174,0.0766061,-20.7036,0.0586985,
2,0,0,1,0,34674,0.0575353,0.0571715,-6.89534,18,0.00480545,10,-0.000394217,-2.16144,0.713929,0.0826412,-22.243,0.0571715,
2,0,0,1,0,34674,0.0560317,0.0556983,-6.86066,18,0.00467597,10,-0.000382127,-2.16363,0.657861,0.0896846,-24.024,0.0556983,
2,0,0,1,0,34674.1,0.0545282,0.0541932,-6.83049,18,0.00454707,10,-0.000370166,-2.16555,0.789742,0.0747079,-19.9221,0.0541932,
2,0,0,1,0,34674.1,0.0530407,0.0526628,-6.80618,18,0.0044201,10,-0.000358432,-2.1671,0.736807,0.0800753,-21.2592,0.0526628,
2,0,0,1,0,34674.1,0.0515372,0.0511978,-6.77384,18,0.00429229,10,-0.000346806,-2.16917,0.677376,0.0871008,-22.9998,0.0511978,
2,0,0,1,0,34674.1,0.0500336,0.0497278,-6.7314,18,0.00416512,10,-0.000334737,-2.17189,0.655306,0.0900343,-23.67,0.0497278,
2,0,0,1,0,34674.1,0.0485444,0.0481905,-6.70539,18,0.00403999,10,-0.000323136,-2.17358,0.702323,0.0840069,-21.983,0.0481905,
2,0,0,1,0,34674.1,0.0470408,0.0467215,-6.669,18,0.00391412,10,-0.000311586,-2.17594,0.697841,0.0845465,-22.0019,0.0467215,
2,0,0,1,0,34674.2,0.0455444,0.0451973,-6.63775,18,0.00378954,10,-0.000300008,-2.17798,0.662447,0.0890637,-23.0408,0.0451973,
2,0,0,1,0,34674.2,0.044048,0.0437343,-6.6008,18,0.00366562,10,-0.000288682,-2.1804,0.682546,0.086441,-22.2555,0.0437343,
2,0,0,1,0,34674.2,0.0425445,0.0422319,-6.55817,18,0.00354179,10,-0.000276964,-2.18322,0.696375,0.0847245,-21.7039,0.0422319,
2,0,0,1,0,34674.2,0.0410552,0.0407284,-6.52164,18,0.00341991,10,-0.000265616,-2.18564,0.695301,0.0848554,-21.5995,0.0407284,
2,0,0,1,0,34674.2,0.0395517,0.0391824,-6.49363,18,0.00329736,10,-0.000254436,-2.18751,0.636051,0.0927599,-23.4756,0.0391824,
2,0,0,1,0,34674.3,0.0380481,0.0377467,-6.45006,18,0.00317553,10,-0.000243469,-2.19044,0.559305,0.105488,-26.5408,0.0377467,
2,0,0,1,0,34674.3,0.0365606,0.0362685,-6.40528,18,0.0030558,10,-0.00023231,-2.19346,0.525611,0.11225,-28.0663,0.0362685,
2,0,0,1,0,34674.3,0.0350571,0.034705,-6.36117,18,0.00293557,10,-0.000220764,-2.19646,0.540949,0.109068,-27.0765,0.034705,
2,0,0,1,0,34674.3,0.0335535,0.0332186,-6.32017,18,0.00281607,10,-0.000209947,-2.19927,0.490804,0.120211,-29.6668,0.0332186,
2,0,0,1,0,34674.3,0.0320643,0.0317056,-6.28259,18,0.00269865,10,-0.000199193,-2.20186,0.418089,0.141118,-34.5759,0.0317056,
2,0,0,1,0,34674.4,0.0305607,0.0302151,-6.23384,18,0.00258081,10,-0.000188356,-2.20524,0.416786,0.141559,-34.449,0.0302151,
2,0,0,1,0,34674.4,0.0290643,0.0287354,-6.19205,18,0.0024645,10,-0.000177931,-2.20817,0.433728,0.13603,-32.8527,0.0287354,
2,0,0,1,0,34674.4,0.0275679,0.0272579,-6.14832,18,0.00234905,10,-0.00016759,-2.21124,0.406979,0.144971,-34.7259,0.0272579,
2,0,0,1,0,34674.4,0.0260644,0.0257609,-6.10159,18,0.00223384,10,-0.000157183,-2.21456,0.419703,0.140576,-33.4099,0.0257609,
2,0,0,1,0,34674.4,0.0245751,0.0242462,-6.04597,18,0.00212079,10,-0.000146592,-2.21853,0.420089,0.140446,-33.133,0.02424619,
2,0,0,1,0,34674.4,0.0230716,0.0227478,-5.99414,18,0.0020075,10,-0.000136354,-2.22227,0.451505,0.130674,-30.5798,0.0227478,
2,0,0,1,0,34674.5,0.021568,0.0212525,-5.94909,18,0.00189509,10,-0.000126433,-2.22555,0.469573,0.125646,-29.1629,0.0212525,
2,0,0,1,0,34674.5,0.0200805,0.0197613,-5.89679,18,0.00178475,10,-0.000116529,-2.22938,0.429695,0.137307,-31.5943,0.0197613,
2,0,0,1,0,34674.5,0.018577,0.0182378,-5.84702,18,0.00167411,10,-0.000106637,-2.23307,0.45613,0.129349,-29.5264,0.0182378,
2,0,0,1,0,34674.5,0.0170735,0.0167445,-5.79668,18,0.00156442,10,-9.70627e-05,-2.23682,0.46717,0.126292,-28.6246,0.0167445,
2,0,0,1,0,34674.5,0.0155842,0.0152929,-5.75542,18,0.00145674,10,-8.80169e-05,-2.23992,0.486964,0.121159,-27.2264,0.0152929,
2,0,0,1,0,34674.6,0.0140806,0.0137325,-5.71531,18,0.00134863,10,-7.84854e-05,-2.24296,0.469344,0.125707,-28.038,0.0137325,
2,0,0,1,0,34674.6,0.0125842,0.012217,-5.67718,18,0.00124192,10,-6.93582e-05,-2.24587,0.426835,0.138227,-30.602,0.012217,
2,0,0,1,0,34674.6,0.0110878,0.0107937,-5.62774,18,0.00113605,10,-6.07443e-05,-2.24967,0.473611,0.124575,-27.3926,0.01079372,
2,0,0,1,0,34674.6,0.00958428,0.00923163,-5.58845,18,0.00103038,10,-5.15905e-05,-2.25271,0.499627,0.118088,-25.786,0.00923163,
2,0,0,1,0,34674.6,0.0080968,0.00776497,-5.5547,18,0.000926511,10,-4.31321e-05,-2.25534,0.546618,0.107937,-23.4141,0.00776497,
2,0,0,1,0,34674.7,0.00659326,0.00627309,-5.52316,18,0.000822197,10,-3.46473e-05,-2.25781,0.518253,0.113844,-24.5546,0.00627309,
2,0,0,1,0,34674.7,0.00508972,0.00477474,-5.48823,18,0.000718487,10,-2.62048e-05,-2.26057,0.559963,0.105364,-22.5898,0.00477474,
2,0,0,1,0,34674.7,0.00360044,0.00324469,-5.46117,18,0.000616531,10,-1.77198e-05,-2.26271,0.995956,0.0592396,-12.6648,0.00324469,
2,0,0,1,0,34674.7,0.0020969,0.00172588,-5.4779,18,0.000513891,10,-9.45421e-06,-2.26139,1.22072,0.048332,-10.2708,0.00172588,
2,0,0,1,0,34674.7,0.000593362,0.000238775,-5.42976,18,0.000411277,10,-1.29649e-06,-2.26522, , , ,0.000238775,
2,0,0,1,0,34674.7,0.000199195,-0.000185986,-5.42483,18,0.000384637,10,1.00894e-06,-2.26561, , , ,-0.000185986,