File: Figure_codes/Fig_3-5/rawdata_trumpetplot_data/after 10th/20221101_1-115_003_TrumpetPlot_ParaChange_from10_every3_03_CV_C01_10.csv
mode,ox/red,error,control changes,counter inc.,time/s,control/V,Ewe/V,<I>/mA,cycle number,(Q-Qo)/C,I Range,P/W,log(|I|),Tafel slope mV/dec,alpha_eff,dI/d(E-IR),E-IR/V,
2,0,0,1,0,20641.3,2.44065e-05,-0.000497109,-0.098122,11,0.0000000E+000,10,4.87774e-08,-4.00823, , , ,-0.000497109,
2,1,0,0,0,20641.6,0.00129787,0.000959889,0.138597,11,2.5122e-05,10,1.33037e-07,-3.85825, , , ,0.000959889,
2,1,0,0,0,20641.9,0.00279606,0.00249642,0.175467,11,7.82103e-05,10,4.3804e-07,-3.7558,0.0178347,3.30815,19.1114,0.00249642,
2,1,0,1,0,20642.2,0.00429469,0.00400367,0.186062,11,0.000136759,10,7.4493e-07,-3.73034,0.0673299,0.876282,6.37684,0.00400367,
2,1,0,1,0,20642.5,0.00579255,0.0054464,0.194793,11,0.00019863,10,1.06092e-06,-3.71043,0.0650208,0.907402,6.89934,0.0054464,
2,1,0,1,0,20642.8,0.00729041,0.00697647,0.205574,11,0.00026348,10,1.43418e-06,-3.68703,0.0830991,0.709995,5.64526,0.006976468,
2,1,0,1,0,20643.1,0.00878882,0.00843894,0.213937,11,0.000331076,10,1.8054e-06,-3.66971,0.0966443,0.610486,5.05819,0.00843894,
2,1,0,1,0,20643.4,0.010287,0.00994259,0.221413,11,0.000400762,10,2.20142e-06,-3.6548,0.126986,0.464619,3.98722,0.009942594,
2,1,0,1,0,20643.7,0.0117852,0.0114272,0.226165,11,0.000472476,10,2.58442e-06,-3.64558,0.116737,0.50541,4.47171,0.0114272,
2,1,0,1,0,20644,0.0132836,0.0129299,0.233283,11,0.000545936,10,3.01632e-06,-3.63212,0.120201,0.490846,4.48114,0.0129299,
2,1,0,1,0,20644.3,0.0147815,0.0144334,0.238061,11,0.00062151,10,3.43603e-06,-3.62331,0.132535,0.445165,4.13884,0.0144334,
2,1,0,1,0,20644.6,0.0162793,0.0160057,0.245221,11,0.00069901,10,3.92492e-06,-3.61044,0.1841,0.320478,3.0552,0.0160057,
2,1,0,0,0,20644.9,0.017778,0.0174704,0.250746,11,0.000778061,10,4.38064e-06,-3.60077,0.16045,0.367716,3.6026,0.0174704,
2,1,0,0,0,20645.2,0.0192761,0.0189009,0.255927,11,0.000858297,10,4.83725e-06,-3.59188,0.161282,0.36582,3.65631,0.0189009,
2,1,0,1,0,20645.5,0.0207747,0.0204451,0.262022,11,0.000940645,10,5.35706e-06,-3.58166,0.149118,0.39566,4.01472,0.0204451,
2,1,0,1,0,20645.8,0.0222725,0.0219888,0.267215,11,0.00102469,10,5.87573e-06,-3.57314,0.156065,0.378047,3.9423,0.0219888,
2,1,0,1,0,20646.1,0.0237704,0.0234806,0.27163,11,0.00111031,10,6.37805e-06,-3.56602,0.183163,0.322118,3.43463,0.02348062,
2,1,0,1,0,20646.4,0.0252689,0.0249336,0.275806,11,0.00119734,10,6.87682e-06,-3.5594,0.173682,0.339701,3.68763,0.02493356,
2,1,0,1,0,20646.7,0.0267671,0.0264849,0.283073,11,0.0012862,10,7.49717e-06,-3.5481,0.156922,0.375984,4.15268,0.0264849,
2,1,0,1,0,20647,0.0282657,0.0279635,0.289952,11,0.00137689,10,8.10807e-06,-3.53767,0.18516,0.318643,3.59948,0.0279635,
2,1,0,1,0,20647.3,0.0297635,0.0294351,0.296255,11,0.00146928,10,8.72027e-06,-3.52834,0.187065,0.315398,3.6257,0.0294351,
2,1,0,1,0,20647.6,0.0312613,0.0309808,0.298586,11,0.00156308,10,9.25044e-06,-3.52493,0.182507,0.323275,3.79405,0.0309808,
2,1,0,0,0,20647.9,0.0327599,0.0324497,0.306686,11,0.00165851,10,9.95187e-06,-3.51331,0.177972,0.331512,3.95615,0.0324497,
2,1,0,0,0,20648.2,0.034258,0.0339035,0.311428,11,0.00175576,10,1.05585e-05,-3.50664,0.186453,0.316433,3.84035,0.0339035,
2,1,0,1,0,20648.5,0.0357567,0.0354607,0.316561,11,0.00185464,10,1.12255e-05,-3.49954,0.230222,0.256274,3.15974,0.0354607,
2,1,0,1,0,20648.8,0.0372545,0.0368951,0.321419,11,0.00195505,10,1.18588e-05,-3.49293,0.21521,0.274151,3.45217,0.0368951,
2,1,0,1,0,20649.1,0.0387524,0.0383953,0.326302,11,0.00205678,10,1.25285e-05,-3.48638,0.187527,0.314621,4.04267,0.0383953,
2,1,0,1,0,20649.4,0.0402508,0.0399266,0.332959,11,0.00216035,10,1.32939e-05,-3.47761,0.245066,0.240751,3.13215,0.0399266,
2,1,0,1,0,20649.7,0.041749,0.0414345,0.338383,11,0.00226575,10,1.40207e-05,-3.47059,0.24438,0.241427,3.18362,0.0414345,
2,1,0,1,0,20650,0.0432472,0.0429541,0.34391,11,0.00237251,10,1.47723e-05,-3.46356,0.222978,0.2646,3.54856,0.04295411,
2,1,0,1,0,20650.3,0.0447456,0.0443839,0.348105,11,0.00248056,10,1.54502e-05,-3.45829,0.23874,0.24713,3.35084,0.0443839,
2,1,0,1,0,20650.6,0.0462435,0.0459233,0.353955,11,0.00259037,10,1.62548e-05,-3.45105,0.229505,0.257075,3.53677,0.04592327,
2,1,0,1,0,20650.9,0.0477413,0.0474264,0.358465,11,0.00270175,10,1.70007e-05,-3.44555,0.25033,0.235689,3.29565,0.0474264,
2,1,0,0,0,20651.2,0.0492399,0.0489507,0.363359,11,0.00281462,10,1.77867e-05,-3.43966,0.277382,0.212703,3.01778,0.0489507,
2,1,0,0,0,20651.5,0.0507381,0.05043,0.367283,11,0.00292871,10,1.8522e-05,-3.435,0.255264,0.231133,3.32551,0.05042997,
2,1,0,1,0,20651.8,0.0522367,0.0519243,0.372037,11,0.00304438,10,1.93178e-05,-3.42941,0.242769,0.243029,3.52992,0.0519243,
2,1,0,1,0,20652.1,0.0537345,0.0534053,0.379439,11,0.00316175,10,2.02641e-05,-3.42086,0.270453,0.218152,3.2113,0.0534053,
2,1,0,1,0,20652.4,0.0552323,0.0548958,0.381713,11,0.00328041,10,2.09545e-05,-3.41826,0.311061,0.189674,2.82121,0.0548958,
2,1,0,1,0,20652.7,0.0567309,0.0564022,0.384963,11,0.00340031,10,2.17128e-05,-3.41458,0.309102,0.190876,2.87892,0.05640218,
2,1,0,1,0,20653,0.0582291,0.0578921,0.390427,11,0.00352132,10,2.26026e-05,-3.40846,0.311464,0.189428,2.88573,0.0578921,
2,1,0,1,0,20653.3,0.0597277,0.0594556,0.395258,11,0.003644,10,2.35003e-05,-3.40312,0.28828,0.204662,3.15642,0.0594556,
2,1,0,1,0,20653.6,0.0612255,0.0609578,0.400245,11,0.00376791,10,2.43981e-05,-3.39767,0.400616,0.147273,2.29334,0.0609578,
2,1,0,1,0,20653.9,0.0627233,0.0624006,0.403697,11,0.00389323,10,2.51909e-05,-3.39394,0.295589,0.199602,3.14863,0.0624006,
2,1,0,0,0,20654.2,0.0642218,0.0638759,0.407802,11,0.00401936,10,2.60487e-05,-3.38955,0.294823,0.20012,3.19253,0.0638759,
2,1,0,0,0,20654.5,0.06572,0.0654368,0.412754,11,0.00414704,10,2.70093e-05,-3.38431,0.305781,0.192948,3.09985,0.0654368,
2,1,0,1,0,20654.8,0.0672187,0.0669241,0.416919,11,0.00427621,10,2.79019e-05,-3.37995,0.375164,0.157265,2.54379,0.0669241,
2,1,0,1,0,20655.1,0.0687165,0.0684082,0.42044,11,0.00440629,10,2.87616e-05,-3.3763,0.39861,0.148014,2.41795,0.0684082,
2,1,0,1,0,20655.4,0.0702144,0.0699613,0.423688,11,0.00453696,10,2.96417e-05,-3.37295,0.404344,0.145915,2.40822,0.0699613,
2,1,0,1,0,20655.7,0.0717128,0.0714197,0.426197,11,0.00466897,10,3.04388e-05,-3.37039,0.36475,0.161754,2.6865,0.0714197,
2,1,0,1,0,20656,0.073211,0.0728682,0.429222,11,0.00480202,10,3.12766e-05,-3.36732,0.485858,0.121435,2.03907,0.0728682,
2,1,0,1,0,20656.3,0.0747092,0.0744068,0.434038,11,0.00493591,10,3.22954e-05,-3.36247,0.435571,0.135455,2.29071,0.0744068,
2,1,0,1,0,20656.6,0.0762076,0.075864,0.434593,11,0.00507068,10,3.297e-05,-3.36192,0.410089,0.143871,2.44832,0.075864,
2,1,0,1,0,20656.9,0.0777054,0.0774044,0.43912,11,0.00520639,10,3.39898e-05,-3.35742,0.450576,0.130943,2.24213,0.0774044,
2,1,0,1,0,20657.2,0.0792033,0.0789037,0.444094,11,0.00534326,10,3.50406e-05,-3.35253,0.444386,0.132768,2.28853,0.07890369,
2,1,0,0,0,20657.5,0.0807019,0.0803515,0.446582,11,0.00548124,10,3.58835e-05,-3.3501,0.569756,0.103553,1.79639,0.0803515,
2,1,0,0,0,20657.8,0.0822001,0.0818774,0.447666,11,0.00561995,10,3.66537e-05,-3.34905,0.511686,0.115305,2.0238,0.0818774,
2,1,0,1,0,20658.1,0.0836986,0.0833962,0.45243,11,0.00575964,10,3.77309e-05,-3.34445,0.407492,0.144788,2.55955,0.0833962,
2,1,0,1,0,20658.4,0.0851965,0.0848762,0.455914,11,0.00590067,10,3.86963e-05,-3.34112,0.45351,0.130096,2.31795,0.0848762,
2,1,0,1,0,20658.7,0.0866944,0.0863838,0.460901,11,0.00604291,10,3.98144e-05,-3.33639,0.456477,0.129251,2.32226,0.0863838,
2,1,0,1,0,20659,0.0881929,0.0878782,0.464997,11,0.00618639,10,4.08631e-05,-3.33255,0.357021,0.165256,3.00906,0.0878782,
2,1,0,1,0,20659.3,0.0896911,0.0893607,0.470096,11,0.00633093,10,4.20081e-05,-3.32781,0.251474,0.234617,4.31175,0.0893607,
2,1,0,1,0,20659.6,0.0911897,0.0908553,0.476439,11,0.00647761,10,4.3287e-05,-3.32199,0.248035,0.23787,4.40888,0.0908553,
2,1,0,1,0,20659.9,0.0926875,0.0923445,0.483992,11,0.00662642,10,4.46941e-05,-3.31516,0.244639,0.241172,4.53959,0.09234453,
2,1,0,1,0,20660.2,0.0941853,0.0938872,0.489755,11,0.006777,10,4.59817e-05,-3.31002,0.253805,0.232462,4.44475,0.0938872,
2,1,0,0,0,20660.5,0.0956838,0.0953223,0.494383,11,0.00692925,10,4.71257e-05,-3.30594,0.215618,0.273632,5.31746,0.0953223,
2,1,0,0,0,20660.8,0.097182,0.0968525,0.504573,11,0.00708396,10,4.88691e-05,-3.29708,0.166703,0.353923,6.96475,0.0968525,
2,1,0,1,0,20661.1,0.0986807,0.0983788,0.513171,11,0.00724137,10,5.04851e-05,-3.28974,0.204719,0.288199,5.77283,0.0983788,
2,1,0,1,0,20661.3,0.100179,0.0998672,0.521346,11,0.00740156,10,5.20653e-05,-3.28287,0.203613,0.289765,5.8946,0.09986715,
2,1,0,1,0,20661.6,0.101676,0.101376,0.528097,11,0.0075639,10,5.35364e-05,-3.27729,0.200016,0.294977,6.11578,0.101376,
2,1,0,1,0,20661.9,0.103175,0.10282,0.540489,11,0.00772897,10,5.55733e-05,-3.26721,0.19509,0.302425,6.37354,0.10282,
2,1,0,1,0,20662.2,0.104673,0.104351,0.551138,11,0.00789694,10,5.75116e-05,-3.25874,0.215424,0.273879,5.86459,0.104351,
2,1,0,1,0,20662.5,0.106171,0.105887,0.558772,11,0.00806779,10,5.91668e-05,-3.25277,0.266708,0.221215,4.78953,0.105887,
2,1,0,1,0,20662.8,0.10767,0.107334,0.564434,11,0.00824094,10,6.05828e-05,-3.24839,0.248398,0.237522,5.23914,0.107334,
2,1,0,1,0,20663.1,0.109167,0.108838,0.572755,11,0.00841588,10,6.23375e-05,-3.24203,0.266049,0.221763,4.96211,0.108838,
2,1,0,1,0,20663.4,0.110665,0.110353,0.58011,11,0.00859364,10,6.40169e-05,-3.23649,0.261372,0.225732,5.10785,0.110353,
2,1,0,0,0,20663.7,0.112164,0.111835,0.588323,11,0.00877364,10,6.5795e-05,-3.23038,0.449264,0.131326,3.00364,0.111835,
2,1,0,0,0,20664,0.113662,0.113358,0.594088,11,0.00895535,10,6.73445e-05,-3.22615,0.355602,0.165916,3.84292,0.113358,
2,1,0,1,0,20664.3,0.115161,0.114861,0.599451,11,0.00913846,10,6.88533e-05,-3.22225,0.34793,0.169574,3.96157,0.114861,
2,1,0,1,0,20664.6,0.116658,0.116278,0.605597,11,0.00932379,10,7.04177e-05,-3.21782,0.321047,0.183774,4.32855,0.116278,
2,1,0,1,0,20664.9,0.118156,0.117841,0.610917,11,0.00951104,10,7.19908e-05,-3.21402,0.373096,0.158136,3.76818,0.117841,
2,1,0,1,0,20665.2,0.119655,0.119343,0.61618,11,0.00969996,10,7.35365e-05,-3.21029,0.522996,0.112812,2.71383,0.119343,
2,1,0,1,0,20665.5,0.121153,0.120838,0.619555,11,0.00988994,10,7.48656e-05,-3.20792,0.380282,0.155148,3.77144,0.120838,
2,1,0,1,0,20665.8,0.122652,0.122361,0.626306,11,0.0100816,10,7.66355e-05,-3.20321,0.347424,0.169821,4.14911,0.122361,
2,1,0,1,0,20666.1,0.124149,0.123872,0.632028,11,0.0102752,10,7.82903e-05,-3.19926,0.398274,0.148139,3.65183,0.123872,
2,1,0,1,0,20666.4,0.125647,0.125328,0.638044,11,0.0104704,10,7.99649e-05,-3.19515,0.475102,0.124184,3.08497,0.125328,
2,1,0,0,0,20666.7,0.127146,0.126803,0.638712,11,0.0106669,10,8.09903e-05,-3.19469,0.508973,0.11592,2.9046,0.126803,
2,1,0,0,0,20667,0.128644,0.128315,0.646761,11,0.0108645,10,8.2989e-05,-3.18926,0.57794,0.102087,2.57376,0.1283147,
2,1,0,1,0,20667.3,0.130143,0.129814,0.650571,11,0.0110637,10,8.44535e-05,-3.18671,0.983738,0.0599753,1.51569,0.129814,
2,1,0,1,0,20667.6,0.131641,0.131314,0.650895,11,0.0112638,10,8.54715e-05,-3.18649,-7.7607,-0.0076024,-0.192241,0.131314,
2,1,0,1,0,20667.9,0.133138,0.132827,0.649933,11,0.0114637,10,8.63289e-05,-3.18713,-0.944087,-0.0624943,-1.58487,0.132827,
2,1,0,1,0,20668.2,0.134637,0.134296,0.646436,11,0.0116628,10,8.6814e-05,-3.18947,-0.436297,-0.135229,-3.40527,0.134296,
2,1,0,1,0,20668.5,0.136135,0.135818,0.640103,11,0.0118609,10,8.69377e-05,-3.19375,-0.279817,-0.210852,-5.24449,0.135818,
2,1,0,1,0,20668.8,0.137633,0.137306,0.631713,11,0.0120565,10,8.67379e-05,-3.19948,-0.179858,-0.328036,-8.03045,0.1373059,
2,1,0,1,0,20669.1,0.139132,0.138779,0.618029,11,0.0122486,10,8.57694e-05,-3.20899,-0.13796,-0.427659,-10.2662,0.1387789,
2,1,0,1,0,20669.4,0.140629,0.140324,0.601415,11,0.0124359,10,8.43928e-05,-3.22083,-0.118445,-0.498121,-11.6399,0.140324,
2,1,0,1,0,20669.7,0.142127,0.141798,0.582855,11,0.0126181,10,8.2648e-05,-3.23444,-0.102893,-0.573413,-12.9557,0.141798,
2,1,0,0,0,20670,0.143626,0.143335,0.561795,11,0.0127945,10,8.05251e-05,-3.25042,-0.087052,-0.677755,-14.7952,0.143335,
2,1,0,0,0,20670.3,0.145124,0.144822,0.538781,11,0.0129639,10,7.80274e-05,-3.26859,-0.0785882,-0.750749,-15.7794,0.144822,
2,1,0,1,0,20670.6,0.146623,0.146281,0.513168,11,0.0131262,10,7.50666e-05,-3.28974,-0.0770631,-0.765606,-15.3769,0.146281,
2,1,0,1,0,20670.9,0.14812,0.147773,0.490311,11,0.0132815,10,7.24548e-05,-3.30953,-0.0753134,-0.783394,-15.0048,0.147773,
2,1,0,1,0,20671.2,0.149618,0.149332,0.469228,11,0.0134301,10,7.00706e-05,-3.32862,-0.076371,-0.772545,-14.1576,0.149332,
2,1,0,1,0,20671.5,0.151117,0.150801,0.448837,11,0.0135722,10,6.7685e-05,-3.34791,-0.0789208,-0.747585,-13.0969,0.150801,
2,1,0,1,0,20671.8,0.152615,0.152295,0.428716,11,0.0137083,10,6.52911e-05,-3.36783,-0.0867953,-0.67976,-11.4364,0.152295,
2,1,0,1,0,20672.1,0.154114,0.153807,0.414868,11,0.0138392,10,6.38097e-05,-3.38209,-0.0944816,-0.62446,-10.1119,0.153807,
2,1,0,1,0,20672.4,0.155612,0.1553,0.400663,11,0.013966,10,6.2223e-05,-3.39722,-0.107662,-0.548009,-8.56998,0.1553,
2,1,0,1,0,20672.7,0.157109,0.156789,0.387778,11,0.0140889,10,6.07995e-05,-3.41142,-0.110403,-0.534404,-8.10488,0.156789,
2,1,0,0,0,20673,0.158608,0.158274,0.377461,11,0.0142085,10,5.97423e-05,-3.42313,-0.132969,-0.443711,-6.56872,0.158274,
2,1,0,0,0,20673.3,0.160106,0.159779,0.368647,11,0.0143248,10,5.89021e-05,-3.43339,-0.160075,-0.368578,-5.32288,0.1597791,
2,1,0,1,0,20673.6,0.161605,0.161314,0.362323,11,0.0144389,10,5.84478e-05,-3.4409,-0.17303,-0.340981,-4.81248,0.161314,
2,1,0,1,0,20673.9,0.163102,0.162818,0.35389,11,0.0145509,10,5.76199e-05,-3.45113,-0.206787,-0.285318,-3.94701,0.162818,
2,1,0,1,0,20674.2,0.1646,0.164276,0.349317,11,0.0146609,10,5.73844e-05,-3.45678,-0.226038,-0.261018,-3.56269,0.164276,
2,1,0,1,0,20674.5,0.166099,0.165803,0.343885,11,0.014769,10,5.70172e-05,-3.46359,-0.239701,-0.24614,-3.30276,0.165803,
2,1,0,1,0,20674.8,0.167597,0.167286,0.339063,11,0.0148759,10,5.67204e-05,-3.46972,-0.288478,-0.204522,-2.70768,0.167286,
2,1,0,1,0,20675.1,0.169095,0.168776,0.334109,11,0.0149814,10,5.63894e-05,-3.47611,-0.323024,-0.182649,-2.39365,0.168776,
2,1,0,1,0,20675.4,0.170594,0.170278,0.330988,11,0.0150858,10,5.63601e-05,-3.48019,-0.283368,-0.20821,-2.70138,0.170278,
2,1,0,1,0,20675.7,0.172091,0.171792,0.326349,11,0.0151888,10,5.60643e-05,-3.48632,-0.347021,-0.170018,-2.17778,0.171792,
2,1,0,1,0,20676,0.173589,0.173263,0.324604,11,0.015291,10,5.62418e-05,-3.48865,-0.475366,-0.124115,-1.57307,0.173263,
2,1,0,0,0,20676.3,0.175088,0.174745,0.32178,11,0.0153924,10,5.62293e-05,-3.49244,-0.402262,-0.146671,-1.83825,0.174745,
2,1,0,0,0,20676.6,0.176586,0.176335,0.319758,11,0.0154931,10,5.63846e-05,-3.49518,-0.429727,-0.137296,-1.70769,0.176335,
2,1,0,1,0,20676.9,0.178085,0.177784,0.316536,11,0.015593,10,5.62751e-05,-3.49958,-0.479375,-0.123077,-1.52547,0.177784,
2,1,0,1,0,20677.2,0.179582,0.179234,0.316433,11,0.0156922,10,5.67157e-05,-3.49972,-0.544617,-0.108333,-1.33581,0.179234,
2,1,0,1,0,20677.5,0.18108,0.180743,0.312607,11,0.0157909,10,5.65015e-05,-3.505,-0.605201,-0.0974883,-1.19474,0.180743,
2,1,0,1,0,20677.8,0.182579,0.182254,0.311163,11,0.0158892,10,5.67108e-05,-3.50701,-0.408305,-0.1445,-1.75787,0.1822544,
2,1,0,1,0,20678.1,0.184077,0.183777,0.310786,11,0.0159868,10,5.71154e-05,-3.50754,-0.681583,-0.0865632,-1.0502,0.183777,
2,1,0,1,0,20678.4,0.185576,0.185245,0.308766,11,0.0160839,10,5.71974e-05,-3.51037,-0.571446,-0.103247,-1.24438,0.185245,
2,1,0,1,0,20678.7,0.187074,0.186766,0.307316,11,0.0161806,10,5.73963e-05,-3.51242,-0.816732,-0.0722391,-0.864718,0.186766,
2,1,0,1,0,20679,0.188571,0.188243,0.3064,11,0.016277,10,5.76778e-05,-3.51371,-0.609686,-0.0967711,-1.15482,0.188243,
2,1,0,0,0,20679.3,0.19007,0.189739,0.304711,11,0.0163729,10,5.78156e-05,-3.51611,-0.540598,-0.109138,-1.29512,0.189739,
2,1,0,0,0,20679.6,0.191568,0.191272,0.304111,11,0.0164683,10,5.81679e-05,-3.51697,-0.70361,-0.0838533,-0.992747,0.191272,
2,1,0,1,0,20679.9,0.193067,0.192766,0.302038,11,0.0165634,10,5.82225e-05,-3.51994,-2.36094,-0.02499,-0.29426,0.192766,
2,1,0,1,0,20680.2,0.194564,0.19424,0.300668,11,0.0166583,10,5.84019e-05,-3.52191,-0.96555,-0.0611051,-0.718754,0.19424,
2,1,0,1,0,20680.5,0.196062,0.195749,0.299472,11,0.0167528,10,5.86214e-05,-3.52364,-0.684787,-0.0861581,-1.00876,0.195749,
2,1,0,1,0,20680.8,0.197561,0.197239,0.296464,11,0.0168468,10,5.84742e-05,-3.52803,-0.667876,-0.0883397,-1.03341,0.197239,
2,1,0,1,0,20681.1,0.199059,0.198737,0.297983,11,0.0169406,10,5.92204e-05,-3.52581,-1.18506,-0.0497866,-0.577581,0.198737,
2,1,0,1,0,20681.4,0.200557,0.200246,0.297528,11,0.0170341,10,5.95789e-05,-3.52647,-0.702042,-0.0840405,-0.97175,0.200246,
2,1,0,1,0,20681.7,0.202056,0.201698,0.296246,11,0.0171274,10,5.97523e-05,-3.52835,-0.81973,-0.0719749,-0.829607,0.2016983,
2,1,0,1,0,20682,0.203553,0.203206,0.292919,11,0.0172203,10,5.95228e-05,-3.53325,-1.61205,-0.0365993,-0.420466,0.203206,
2,1,0,1,0,20682.3,0.205051,0.204732,0.293584,11,0.0173129,10,6.01061e-05,-3.53227,3.45052,0.0170989,0.197491,0.204732,
2,1,0,0,0,20682.6,0.20655,0.206232,0.292443,11,0.0174055,10,6.03112e-05,-3.53396,-1.69024,-0.0349063,-0.400138,0.206232,
2,1,0,0,0,20682.9,0.208048,0.207736,0.293353,11,0.0174981,10,6.09399e-05,-3.53261,-0.941744,-0.0626497,-0.7148,0.207736,
2,1,0,1,0,20683.2,0.209547,0.209228,0.291717,11,0.0175901,10,6.10355e-05,-3.53504,-1.69827,-0.0347412,-0.396099,0.209228,
2,1,0,1,0,20683.5,0.211044,0.210739,0.291421,11,0.0176818,10,6.14139e-05,-3.53548,-1.52043,-0.0388048,-0.440886,0.210739,
2,1,0,1,0,20683.8,0.212542,0.212214,0.291127,11,0.0177735,10,6.17812e-05,-3.53592,-1.83302,-0.0321872,-0.364332,0.212214,
2,1,0,1,0,20684.1,0.214041,0.213709,0.289585,11,0.0178649,10,6.1887e-05,-3.53822,-4.70214,-0.0125475,-0.141779,0.213709,
2,1,0,1,0,20684.4,0.215539,0.215246,0.289376,11,0.0179562,10,6.2287e-05,-3.53854,-1.76877,-0.0333565,-0.377006,0.215246,
2,1,0,1,0,20684.7,0.217038,0.216697,0.287688,11,0.0180472,10,6.23411e-05,-3.54108,-0.965698,-0.0610957,-0.68785,0.2166968,
2,1,0,1,0,20685,0.218535,0.218254,0.28751,11,0.018138,10,6.27503e-05,-3.54135,-8.45819,-0.00697548,-0.0783908,0.218254,
2,1,0,1,0,20685.3,0.220033,0.219736,0.28766,11,0.0182287,10,6.32094e-05,-3.54112,-1.67037,-0.0353215,-0.396382,0.219736,
2,1,0,0,0,20685.6,0.221532,0.221234,0.285507,11,0.0183192,10,6.31638e-05,-3.54438,-1.09664,-0.0538009,-0.601167,0.2212339,
2,1,0,0,0,20685.9,0.22303,0.222791,0.285254,11,0.0184094,10,6.35518e-05,-3.54477,-1.50937,-0.0390892,-0.435569,0.222791,
2,1,0,1,0,20686.2,0.224529,0.224264,0.285811,11,0.0184994,10,6.4097e-05,-3.54392,-1.13152,-0.0521421,-0.580021,0.224264,
2,1,0,1,0,20686.5,0.226026,0.225752,0.285613,11,0.0185893,10,6.44778e-05,-3.54422,-3.84143,-0.0153589,-0.170451,0.225752,
2,1,0,1,0,20686.8,0.227524,0.227192,0.284176,11,0.018679,10,6.45625e-05,-3.54641,-1.0265,-0.0574769,-0.6357,0.227192,
2,1,0,1,0,20687.1,0.229023,0.228689,0.282807,11,0.0187686,10,6.46746e-05,-3.54851,-1.89984,-0.0310553,-0.343191,0.228689,
2,1,0,1,0,20687.4,0.230521,0.230231,0.282954,11,0.0188578,10,6.51449e-05,-3.54828,-1.97629,-0.0298539,-0.330028,0.230231,
2,1,0,1,0,20687.7,0.232019,0.231721,0.282263,11,0.018947,10,6.54064e-05,-3.54935,-0.909623,-0.064862,-0.715039,0.231721,
2,1,0,1,0,20688,0.233518,0.233218,0.281883,11,0.0190362,10,6.57402e-05,-3.54993,-1.50863,-0.0391083,-0.431188,0.233218,
2,1,0,1,0,20688.3,0.235015,0.234694,0.281617,11,0.0191252,10,6.60937e-05,-3.55034,-0.978885,-0.0602727,-0.661851,0.234694,
2,1,0,1,0,20688.6,0.236513,0.236185,0.281579,11,0.0192139,10,6.65047e-05,-3.5504,-9.1766,-0.0064294,-0.0705702,0.236185,
2,1,0,0,0,20688.9,0.238012,0.237697,0.280953,11,0.0193025,10,6.67816e-05,-3.55137,-7.93713,-0.00743342,-0.0814076,0.237697,
2,1,0,0,0,20689.2,0.23951,0.239168,0.280592,11,0.0193911,10,6.71086e-05,-3.55192,-2.2307,-0.026449,-0.289072,0.239168,
2,1,0,1,0,20689.5,0.241009,0.240706,0.2797,11,0.0194795,10,6.73253e-05,-3.55331,-1.86535,-0.0316294,-0.345138,0.240706,
2,1,0,1,0,20689.8,0.242506,0.242218,0.278951,11,0.0195676,10,6.75671e-05,-3.55447,60.8113,0.000970215,0.0106023,0.242218,
2,1,0,1,0,20690.1,0.244004,0.243688,0.277915,11,0.0196556,10,6.77245e-05,-3.55609,2.60334,0.0226632,0.245979,0.2436876,
2,1,0,1,0,20690.4,0.245503,0.245216,0.278784,11,0.0197436,10,6.83624e-05,-3.55473,-1.5812,-0.0373135,-0.40532,0.245216,
2,1,0,1,0,20690.7,0.247001,0.246735,0.277796,11,0.0198314,10,6.8542e-05,-3.55627,-1.77231,-0.0332898,-0.361159,0.246735,
2,1,0,1,0,20691,0.2485,0.248171,0.276373,11,0.0199191,10,6.85876e-05,-3.5585,-4.43635,-0.0132992,-0.143824,0.248171,
2,1,0,1,0,20691.3,0.249997,0.249662,0.276902,11,0.0200064,10,6.9132e-05,-3.55767,-8.23236,-0.00716684,-0.0775422,0.249662,
2,1,0,1,0,20691.6,0.251495,0.251229,0.276378,11,0.0200938,10,6.94343e-05,-3.5585,-1.52851,-0.0385997,-0.41601,0.251229,
2,1,0,0,0,20691.9,0.252994,0.252677,0.27489,11,0.0201811,10,6.94584e-05,-3.56084,-0.654574,-0.090135,-0.96963,0.252677,
2,1,0,0,0,20692.2,0.254492,0.254196,0.275142,11,0.0202682,10,6.99398e-05,-3.56044,-1.70896,-0.0345239,-0.371775,0.254196,
2,1,0,1,0,20692.5,0.255991,0.25568,0.27442,11,0.020355,10,7.01635e-05,-3.56158,38.2844,0.0015411,0.0165758,0.25568,
2,1,0,1,0,20692.8,0.257488,0.257158,0.275525,11,0.0204419,10,7.08535e-05,-3.55984,-2.43598,-0.0242203,-0.259605,0.257158,
2,1,0,1,0,20693.1,0.258986,0.258715,0.275201,11,0.0205288,10,7.11985e-05,-3.56035,-6.90707,-0.00854198,-0.0912956,0.2587148,
2,1,0,1,0,20693.4,0.260485,0.260207,0.274546,11,0.0206155,10,7.14387e-05,-3.56139,-0.886764,-0.0665341,-0.712056,0.260207,
2,1,0,1,0,20693.7,0.261983,0.261679,0.273879,11,0.0207019,10,7.16682e-05,-3.56244,-3.58533,-0.0164559,-0.175257,0.261679,
2,1,0,1,0,20694,0.263481,0.263184,0.273695,11,0.0207883,10,7.2032e-05,-3.56273,9.21453,0.00640293,0.0682134,0.263184,
2,1,0,1,0,20694.3,0.26498,0.264666,0.272871,11,0.0208746,10,7.22197e-05,-3.56404,-6.56914,-0.00898139,-0.0957809,0.264666,
2,1,0,1,0,20694.6,0.266477,0.266195,0.273299,11,0.0209608,10,7.27507e-05,-3.56336,-2.08506,-0.0282966,-0.301681,0.266195,
2,1,0,0,0,20694.9,0.267976,0.267704,0.271682,11,0.0210468,10,7.27304e-05,-3.56594,-6.2636,-0.0094195,-0.100343,0.267704,
2,1,0,0,0,20695.2,0.269474,0.269155,0.271792,11,0.0211328,10,7.31542e-05,-3.56576,4.58525,0.0128673,0.136748,0.269155,
2,1,0,0,0,20695.5,0.270972,0.270647,0.273628,11,0.0212187,10,7.40566e-05,-3.56284,-2.27771,-0.0259032,-0.27406,0.270647,
2,1,0,1,0,20695.8,0.27247,0.272155,0.271286,11,0.0213045,10,7.38318e-05,-3.56657,-5.31065,-0.0111097,-0.117389,0.272155,
2,1,0,1,0,20696.1,0.273968,0.273667,0.269142,11,0.02139,10,7.36551e-05,-3.57002,-4.84416,-0.0121796,-0.128506,0.273667,
2,1,0,1,0,20696.4,0.275466,0.275141,0.270018,11,0.0214754,10,7.42932e-05,-3.56861,-2.75472,-0.0214178,-0.22632,0.275141,
2,1,0,1,0,20696.7,0.276965,0.276644,0.269262,11,0.0215607,10,7.44897e-05,-3.56983,-4.32969,-0.0136268,-0.144077,0.276644,
2,1,0,1,0,20697,0.278463,0.278155,0.268821,11,0.021646,10,7.47741e-05,-3.57054,-0.811773,-0.0726804,-0.762917,0.278155,
2,1,0,1,0,20697.3,0.279962,0.279677,0.269594,11,0.0217312,10,7.53994e-05,-3.56929,-2.28886,-0.025777,-0.27075,0.279677,
2,1,0,1,0,20697.6,0.281459,0.28111,0.268538,11,0.0218161,10,7.54886e-05,-3.57099,-6.55882,-0.00899552,-0.0946536,0.28111,
2,1,0,1,0,20697.9,0.282957,0.282631,0.268426,11,0.0219009,10,7.58656e-05,-3.57117,-4.38633,-0.0134509,-0.140808,0.282631,
2,1,0,0,0,20698.2,0.284456,0.284137,0.268664,11,0.0219857,10,7.63374e-05,-3.57079,-2.27475,-0.0259369,-0.271288,0.284137,
2,1,0,0,0,20698.5,0.285954,0.285626,0.267601,11,0.0220704,10,7.64337e-05,-3.57251,-3.26662,-0.0180615,-0.188502,0.285626,
2,1,0,0,0,20698.8,0.287452,0.287158,0.267678,11,0.0221548,10,7.6866e-05,-3.57239,-11.7505,-0.00502107,-0.0523479,0.287158,
2,1,0,1,0,20699.1,0.28895,0.288658,0.266824,11,0.0222392,10,7.7021e-05,-3.57377,5.73874,0.010281,0.106803,0.288658,
2,1,0,1,0,20699.4,0.290448,0.290099,0.266185,11,0.0223235,10,7.72199e-05,-3.57482,-2.50164,-0.0235846,-0.245461,0.290099,
2,1,0,1,0,20699.7,0.291947,0.291592,0.265679,11,0.0224077,10,7.747e-05,-3.57564,-3.27616,-0.0180089,-0.187206,0.291592,
2,1,0,1,0,20700,0.293445,0.29315,0.264619,11,0.0224917,10,7.75731e-05,-3.57738,-3.52615,-0.0167321,-0.173681,0.29315,
2,1,0,1,0,20700.3,0.294943,0.294636,0.266248,11,0.0225755,10,7.84462e-05,-3.57471,-3.66973,-0.0160775,-0.166741,0.294636,
2,1,0,1,0,20700.6,0.296442,0.296134,0.266501,11,0.0226595,10,7.89199e-05,-3.5743,-1.91665,-0.0307828,-0.318176,0.296134,
2,1,0,1,0,20700.9,0.297939,0.297652,0.26476,11,0.0227434,10,7.88062e-05,-3.57715,-2.63869,-0.0223596,-0.230611,0.297652,
2,1,0,1,0,20701.2,0.299437,0.299131,0.262184,11,0.0228268,10,7.84272e-05,-3.58139,-0.00243165,-24.2633,-123.524,0.2991311,
2,1,0,1,0,20701.4,0.299737,0.29943,0.108033,11,0.022865,10,3.23484e-05,-3.96644,0.000959864,61.467,213.847,0.29943,
2,1,0,1,0,20701.7,0.29824,0.29796,0.0234134,11,0.0228752,10,6.97627e-06,-4.63053,0.00167958,35.1279,71.7326,0.29796,
2,1,0,0,0,20702,0.296741,0.296471,0.00522585,11,0.022875,10,1.54931e-06,-5.28184,0.00772563,7.63692,11.1211,0.296471,
2,0,0,0,0,20702.3,0.295243,0.294949,-0.00769355,11,0.0228702,10,-2.26921e-06,-5.11387,-0.0164997,-3.57582,7.26075,0.294949,
2,0,0,1,0,20702.6,0.293744,0.293444,-0.0165361,11,0.0228623,10,-4.85242e-06,-4.78157,-0.00479092,-12.315,5.68766,0.293444,
2,0,0,1,0,20702.9,0.292246,0.291932,-0.0241315,11,0.0228521,10,-7.04475e-06,-4.61742,-0.0102627,-5.74898,4.87184,0.291932,
2,0,0,1,0,20703.2,0.290749,0.290442,-0.0313849,11,0.0228396,10,-9.11548e-06,-4.50328,-0.0158009,-3.73397,4.25743,0.290442,
2,0,0,1,0,20703.5,0.28925,0.288918,-0.0371969,11,0.0228252,10,-1.07468e-05,-4.42949,-0.0206732,-2.85394,3.98408,0.288918,
2,0,0,1,0,20703.8,0.287752,0.287453,-0.0420952,11,0.022809,10,-1.21004e-05,-4.37577,-0.0285553,-2.06617,3.36904,0.287453,
2,0,0,1,0,20704.1,0.286253,0.285944,-0.0461638,11,0.0227914,10,-1.32003e-05,-4.3357,-0.0343464,-1.71779,3.12203,0.285944,
2,0,0,1,0,20704.4,0.284755,0.28445,-0.0512997,11,0.0227723,10,-1.45922e-05,-4.28989,-0.0353124,-1.6708,3.29271,0.28445,
2,0,0,1,0,20704.7,0.283257,0.282971,-0.0555522,11,0.022752,10,-1.57197e-05,-4.2553,-0.0451395,-1.30706,2.82921,0.282971,
2,0,0,0,0,20705,0.281759,0.281458,-0.0592283,11,0.0227303,10,-1.66703e-05,-4.22747,-0.0509276,-1.15851,2.65016,0.281458,
2,0,0,0,0,20705.3,0.280261,0.279957,-0.0617092,11,0.0227075,10,-1.72759e-05,-4.20965,-0.053994,-1.09271,2.68194,0.279957,
2,0,0,0,0,20705.6,0.278763,0.278489,-0.0676648,11,0.0226836,10,-1.88439e-05,-4.16964,-0.0689493,-0.855702,2.23289,0.278489,
2,0,0,1,0,20705.9,0.277264,0.276919,-0.0709633,11,0.0226586,10,-1.96511e-05,-4.14897,-0.0669073,-0.881817,2.41925,0.276919,
2,0,0,1,0,20706.2,0.275766,0.27543,-0.0736194,11,0.0226324,10,-2.0277e-05,-4.13301,-0.0963935,-0.612074,1.73767,0.27543,
2,0,0,1,0,20706.5,0.274269,0.273996,-0.0766067,11,0.0226054,10,-2.09899e-05,-4.11573,-0.0924175,-0.638407,1.92122,0.273996,
2,0,0,1,0,20706.8,0.27277,0.272485,-0.0802792,11,0.0225775,10,-2.18749e-05,-4.0954,-0.0844571,-0.69858,2.20035,0.272485,
2,0,0,1,0,20707.1,0.271272,0.270966,-0.083162,11,0.0225485,10,-2.25341e-05,-4.08008,-0.0957019,-0.616497,1.98982,0.2709659,
2,0,0,1,0,20707.4,0.269773,0.269451,-0.0861851,11,0.0225186,10,-2.32227e-05,-4.06457,-0.138415,-0.426255,1.41829,0.2694512,
2,0,0,1,0,20707.7,0.268275,0.267962,-0.0889921,11,0.0224878,10,-2.38465e-05,-4.05065,-0.103914,-0.567775,1.95034,0.267962,
2,0,0,1,0,20708,0.266778,0.266483,-0.0909023,11,0.0224565,10,-2.42239e-05,-4.04143,-0.110494,-0.533967,1.91018,0.266483,
2,0,0,0,0,20708.3,0.265279,0.264988,-0.0950169,11,0.0224243,10,-2.51784e-05,-4.0222,-0.109493,-0.538847,1.97134,0.264988,
2,0,0,0,0,20708.6,0.263781,0.263438,-0.0960961,11,0.0223911,10,-2.53154e-05,-4.01729,-0.12562,-0.46967,1.76974,0.263438,
2,0,0,1,0,20708.9,0.262282,0.261988,-0.0987692,11,0.0223573,10,-2.58764e-05,-4.00538,-0.132895,-0.443959,1.72807,0.261988,
2,0,0,1,0,20709.2,0.260784,0.26047,-0.100557,11,0.0223229,10,-2.61921e-05,-3.99759,-0.126222,-0.46743,1.85553,0.26047,
2,0,0,1,0,20709.5,0.259286,0.259002,-0.103759,11,0.0222877,10,-2.68737e-05,-3.98397,-0.147055,-0.401211,1.62029,0.259002,
2,0,0,1,0,20709.8,0.257788,0.257508,-0.106398,11,0.0222517,10,-2.73983e-05,-3.97307,-0.162269,-0.363594,1.49901,0.257508,
2,0,0,1,0,20710.1,0.25629,0.255962,-0.107972,11,0.022215,10,-2.76367e-05,-3.96669,-0.205552,-0.287032,1.20448,0.255962,
2,0,0,1,0,20710.4,0.254791,0.254475,-0.109696,11,0.0221778,10,-2.79149e-05,-3.95981,-0.181182,-0.325639,1.39185,0.254475,
2,0,0,1,0,20710.7,0.253293,0.252993,-0.112227,11,0.02214,10,-2.83925e-05,-3.9499,-0.196487,-0.300274,1.31878,0.252993,
2,0,0,1,0,20711,0.251795,0.251489,-0.114868,11,0.0221014,10,-2.8888e-05,-3.9398,-0.175062,-0.337023,1.50478,0.251489,
2,0,0,0,0,20711.3,0.250297,0.249991,-0.11637,11,0.0220622,10,-2.90914e-05,-3.93416,-0.241972,-0.24383,1.10701,0.249991,
2,0,0,0,0,20711.6,0.248799,0.248494,-0.117768,11,0.0220224,10,-2.92647e-05,-3.92897,-0.200998,-0.293535,1.35945,0.248494,
2,0,0,0,0,20711.9,0.247301,0.24699,-0.120247,11,0.0219821,10,-2.96997e-05,-3.91993,-0.173081,-0.340881,1.60868,0.2469901,
2,0,0,1,0,20712.2,0.245802,0.245522,-0.123386,11,0.0219411,10,-3.0294e-05,-3.90873,-0.219263,-0.269084,1.28114,0.2455222,
2,0,0,1,0,20712.5,0.244304,0.243967,-0.124169,11,0.0218994,10,-3.0293e-05,-3.90599,-0.187478,-0.314703,1.53151,0.243967,
2,0,0,1,0,20712.8,0.242806,0.242502,-0.126911,11,0.0218571,10,-3.07763e-05,-3.8965,-0.251958,-0.234166,1.15883,0.242502,
2,0,0,1,0,20713.1,0.241308,0.241013,-0.128881,11,0.0218145,10,-3.1062e-05,-3.88981,-0.186338,-0.316629,1.5842,0.241013,
2,0,0,1,0,20713.4,0.23981,0.239508,-0.130264,11,0.0217711,10,-3.11992e-05,-3.88518,-0.182864,-0.322644,1.64608,0.239508,
2,0,0,1,0,20713.7,0.238311,0.238,-0.132365,11,0.0217272,10,-3.15028e-05,-3.87823,-0.233409,-0.252775,1.31234,0.238,
2,0,0,1,0,20714,0.236813,0.236509,-0.134295,11,0.0216827,10,-3.1762e-05,-3.87194,-0.238969,-0.246894,1.3,0.236509,
2,0,0,1,0,20714.3,0.235316,0.234992,-0.136436,11,0.0216377,10,-3.20615e-05,-3.86507,-0.251405,-0.234681,1.25033,0.234992,
2,0,0,0,0,20714.6,0.233817,0.23352,-0.138292,11,0.0215921,10,-3.22939e-05,-3.8592,-0.23998,-0.245854,1.32228,0.23352,
2,0,0,0,0,20714.9,0.232319,0.231979,-0.140395,11,0.0215459,10,-3.25686e-05,-3.85265,-0.242797,-0.243002,1.32732,0.231979,
2,0,0,1,0,20715.2,0.23082,0.230504,-0.143052,11,0.0214991,10,-3.29739e-05,-3.84451,-0.3057,-0.193,1.06733,0.230504,
2,0,0,1,0,20715.5,0.229322,0.228997,-0.142709,11,0.0214518,10,-3.26798e-05,-3.84555,-0.271963,-0.216942,1.21509,0.228997,
2,0,0,1,0,20715.8,0.227825,0.227507,-0.145035,11,0.021404,10,-3.29964e-05,-3.83853,-0.265908,-0.221881,1.26395,0.2275065,
2,0,0,1,0,20716.1,0.226326,0.226039,-0.147376,11,0.0213556,10,-3.33127e-05,-3.83157,-0.275346,-0.214276,1.2389,0.226039,
2,0,0,1,0,20716.4,0.224828,0.224535,-0.14963,11,0.0213066,10,-3.35972e-05,-3.82498,-0.506614,-0.11646,0.675609,0.224535,
2,0,0,1,0,20716.7,0.223329,0.22299,-0.151102,11,0.0212571,10,-3.36944e-05,-3.82073,-0.29998,-0.19668,1.16688,0.22299,
2,0,0,1,0,20717,0.221831,0.221558,-0.153311,11,0.0212073,10,-3.39673e-05,-3.81443,-0.273451,-0.215761,1.2863,0.221558,
2,0,0,1,0,20717.3,0.220333,0.220024,-0.154995,11,0.0211567,10,-3.41027e-05,-3.80968,-0.293682,-0.200898,1.20973,0.220024,
2,0,0,0,0,20717.6,0.218835,0.218508,-0.157017,11,0.0211055,10,-3.43094e-05,-3.80405,-0.46727,-0.126265,0.76887,0.218508,
2,0,0,0,0,20717.9,0.217337,0.217035,-0.157703,11,0.0210539,10,-3.4227e-05,-3.80216,-0.451304,-0.130732,0.807255,0.2170347,
2,0,0,0,0,20718.2,0.215839,0.215546,-0.160217,11,0.021002,10,-3.45342e-05,-3.79529,-0.333683,-0.176815,1.10538,0.215546,
2,0,0,1,0,20718.5,0.21434,0.214035,-0.161095,11,0.0209494,10,-3.44799e-05,-3.79292,-0.224436,-0.262882,1.65284,0.214035,
2,0,0,1,0,20718.8,0.212842,0.212513,-0.164005,11,0.0208961,10,-3.48532e-05,-3.78514,-0.35172,-0.167747,1.07143,0.212513,
2,0,0,1,0,20719.1,0.211344,0.211057,-0.166014,11,0.0208423,10,-3.50384e-05,-3.77986,-0.399297,-0.14776,0.953648,0.211057,
2,0,0,1,0,20719.4,0.209846,0.209527,-0.165646,11,0.020788,10,-3.47073e-05,-3.78082,-0.275035,-0.214518,1.39231,0.209527,
2,0,0,1,0,20719.6,0.208348,0.208042,-0.168691,11,0.0207333,10,-3.50948e-05,-3.77291,-0.354069,-0.166634,1.09728,0.208042,
2,0,0,1,0,20719.9,0.206849,0.20655,-0.173572,11,0.0206777,10,-3.58513e-05,-3.76052,-0.34107,-0.172985,1.15176,0.20655,
2,0,0,1,0,20720.2,0.205351,0.205049,-0.172994,11,0.0206216,10,-3.54722e-05,-3.76197,-0.381735,-0.154557,1.04113,0.205049,
2,0,0,1,0,20720.5,0.203854,0.203516,-0.17488,11,0.020565,10,-3.5591e-05,-3.75726,-0.366045,-0.161182,1.09875,0.203516,
2,0,0,0,0,20720.8,0.202355,0.202051,-0.175643,11,0.0205079,10,-3.54888e-05,-3.75537,-0.381447,-0.154674,1.07166,0.202051,
2,0,0,0,0,20721.1,0.200857,0.200541,-0.178157,11,0.0204502,10,-3.57279e-05,-3.7492,-0.30549,-0.193132,1.34515,0.200541,
2,0,0,1,0,20721.4,0.199358,0.198998,-0.180979,11,0.0203919,10,-3.60145e-05,-3.74237,-0.359801,-0.163979,1.14949,0.198998,
2,0,0,1,0,20721.7,0.19786,0.197512,-0.18345,11,0.0203329,10,-3.62335e-05,-3.73648,-0.326314,-0.180807,1.28457,0.197512,
2,0,0,1,0,20722,0.196363,0.196015,-0.184947,11,0.0202735,10,-3.62522e-05,-3.73295,-0.264697,-0.222896,1.60374,0.196015,
2,0,0,1,0,20722.3,0.194864,0.194538,-0.186196,11,0.0202133,10,-3.62223e-05,-3.73003,-0.282796,-0.208631,1.5214,0.194538,
2,0,0,1,0,20722.6,0.193366,0.19303,-0.189117,11,0.0201522,10,-3.65054e-05,-3.72327,-0.285162,-0.2069,1.52266,0.19303,
2,0,0,1,0,20722.9,0.191867,0.191536,-0.190847,11,0.0200906,10,-3.6554e-05,-3.71931,-0.434591,-0.13576,1.01661,0.191536,
2,0,0,1,0,20723.2,0.190369,0.190034,-0.193276,11,0.0200286,10,-3.6729e-05,-3.71382,-0.305082,-0.193391,1.45356,0.190034,
2,0,0,1,0,20723.5,0.188871,0.188526,-0.195511,11,0.0199658,10,-3.68588e-05,-3.70883,-0.206342,-0.285933,2.18361,0.188526,
2,0,0,0,0,20723.8,0.187373,0.187015,-0.19656,11,0.0199022,10,-3.67595e-05,-3.70651,-0.313918,-0.187947,1.45396,0.187015,
2,0,0,0,0,20724.1,0.185875,0.185517,-0.200475,11,0.0198378,10,-3.71915e-05,-3.69794,-0.315267,-0.187143,1.4603,0.185517,
2,0,0,0,0,20724.4,0.184377,0.184051,-0.200519,11,0.0197728,10,-3.69056e-05,-3.69785,-0.281222,-0.209799,1.66019,0.184051,
2,0,0,1,0,20724.7,0.182878,0.182535,-0.205033,11,0.0197071,10,-3.74257e-05,-3.68818,-0.241974,-0.243828,1.94102,0.182535,
2,0,0,1,0,20725,0.181381,0.18109,-0.208103,11,0.0196405,10,-3.76855e-05,-3.68172,-0.277465,-0.212639,1.72273,0.18109,
2,0,0,1,0,20725.3,0.179882,0.179609,-0.210231,11,0.0195731,10,-3.77594e-05,-3.6773,-0.293003,-0.201363,1.65069,0.1796087,
2,0,0,1,0,20725.6,0.178384,0.178076,-0.213409,11,0.0195048,10,-3.80031e-05,-3.67079,-0.258103,-0.228591,1.91051,0.178076,
2,0,0,1,0,20725.9,0.176886,0.176544,-0.215906,11,0.019436,10,-3.81169e-05,-3.66574,-0.260202,-0.226747,1.91658,0.176544,
2,0,0,1,0,20726.2,0.175387,0.175087,-0.220251,11,0.0193658,10,-3.8563e-05,-3.65708,-0.219914,-0.268286,2.29889,0.175087,
2,0,0,1,0,20726.5,0.173889,0.173552,-0.223757,11,0.0192948,10,-3.88334e-05,-3.65022,-0.213777,-0.275988,2.39887,0.173552,
2,0,0,1,0,20726.8,0.172392,0.17207,-0.227187,11,0.0192226,10,-3.90919e-05,-3.64362,-0.213333,-0.276563,2.44541,0.17207,
2,0,0,0,0,20727.1,0.170893,0.170557,-0.23125,11,0.0191495,10,-3.94413e-05,-3.63592,-0.213082,-0.276889,2.49153,0.170557,
2,0,0,0,0,20727.4,0.169395,0.169088,-0.234193,11,0.0190752,10,-3.95993e-05,-3.63043,-0.191714,-0.30775,2.80372,0.169088,
2,0,0,1,0,20727.7,0.167896,0.1676,-0.239212,11,0.0189994,10,-4.00919e-05,-3.62122,-0.172721,-0.341592,3.19508,0.1676,
2,0,0,1,0,20728,0.166398,0.166082,-0.242503,11,0.0189225,10,-4.02755e-05,-3.61528,-0.200202,-0.294702,2.81624,0.166082,
2,0,0,1,0,20728.3,0.164901,0.164578,-0.247887,11,0.0188442,10,-4.07966e-05,-3.60575,-0.152905,-0.385859,3.74699,0.164578,
2,0,0,1,0,20728.6,0.163402,0.16308,-0.253089,11,0.0187644,10,-4.12737e-05,-3.59673,-0.151362,-0.389793,3.85825,0.16308,
2,0,0,1,0,20728.9,0.161904,0.161603,-0.259827,11,0.0186829,10,-4.19889e-05,-3.58532,-0.148239,-0.398006,4.02894,0.161603,
2,0,0,1,0,20729.2,0.160405,0.160075,-0.265658,11,0.0185995,10,-4.25251e-05,-3.57568,-0.157362,-0.374931,3.8715,0.160075,
2,0,0,1,0,20729.5,0.158907,0.15859,-0.269881,11,0.0185145,10,-4.28006e-05,-3.56883,-0.140126,-0.421051,4.47528,0.15859,
2,0,0,1,0,20729.8,0.157409,0.157096,-0.278058,11,0.0184274,10,-4.36819e-05,-3.55586,-0.125773,-0.469101,5.13606,0.157096,
2,0,0,0,0,20730.1,0.155911,0.155578,-0.286744,11,0.0183379,10,-4.4611e-05,-3.54251,-0.120653,-0.489005,5.49594,0.155578,
2,0,0,0,0,20730.4,0.154413,0.154083,-0.295338,11,0.0182457,10,-4.55064e-05,-3.52968,-0.117043,-0.504088,5.81766,0.1540826,
2,0,0,0,0,20730.7,0.152915,0.152603,-0.306192,11,0.0181509,10,-4.6726e-05,-3.51401,-0.108584,-0.543358,6.49182,0.152603,
2,0,0,1,0,20731,0.151416,0.151079,-0.315688,11,0.0180532,10,-4.76939e-05,-3.50074,-0.0943298,-0.625465,7.72414,0.151079,
2,0,0,1,0,20731.3,0.149919,0.149568,-0.328436,11,0.0179519,10,-4.91234e-05,-3.48355,-0.0885568,-0.666239,8.54383,0.149568,
2,0,0,1,0,20731.6,0.14842,0.148103,-0.341808,11,0.0178467,10,-5.06227e-05,-3.46622,-0.0837027,-0.704876,9.41622,0.148103,
2,0,0,1,0,20731.9,0.146922,0.146587,-0.356693,11,0.0177373,10,-5.22863e-05,-3.44771,-0.0764315,-0.771933,10.7489,0.1465866,
2,0,0,1,0,20732.2,0.145424,0.145082,-0.372075,11,0.0176236,10,-5.39813e-05,-3.42937,-0.0760064,-0.77625,11.3204,0.145082,
2,0,0,1,0,20732.5,0.143925,0.143636,-0.390498,11,0.0175046,10,-5.60896e-05,-3.40838,-0.0691965,-0.852645,12.9695,0.143636,
2,0,0,1,0,20732.8,0.142427,0.142137,-0.41046,11,0.0173798,10,-5.83417e-05,-3.38673,-0.0701656,-0.840868,13.4519,0.142137,
2,0,0,1,0,20733.1,0.14093,0.140605,-0.430004,11,0.0172493,10,-6.04609e-05,-3.36653,-0.0739526,-0.797808,13.43,0.140605,
2,0,0,0,0,20733.4,0.139431,0.139102,-0.448948,11,0.0171127,10,-6.24497e-05,-3.3478,-0.07133,-0.827142,14.5584,0.139102,
2,0,0,0,0,20733.7,0.137933,0.137638,-0.473066,11,0.0169695,10,-6.51117e-05,-3.32508,-0.0712632,-0.827916,15.274,0.137638,
2,0,0,1,0,20734,0.136434,0.136112,-0.497956,11,0.0168192,10,-6.77776e-05,-3.30281,-0.0771305,-0.764937,14.7597,0.136112,
2,0,0,1,0,20734.3,0.134936,0.134608,-0.517475,11,0.0166623,10,-6.96564e-05,-3.28611,-0.0844209,-0.698879,14.0647,0.134608,
2,0,0,1,0,20734.6,0.133439,0.133087,-0.537285,11,0.0164991,10,-7.15056e-05,-3.2698,-0.0926273,-0.636961,13.377,0.133087,
2,0,0,1,0,20734.9,0.13194,0.131637,-0.559211,11,0.0163297,10,-7.36129e-05,-3.25242,-0.0935737,-0.630519,13.758,0.131637,
2,0,0,1,0,20735.2,0.130442,0.130193,-0.577571,11,0.0161542,10,-7.51955e-05,-3.23839,-0.109916,-0.536774,12.097,0.1301927,
2,0,0,1,0,20735.5,0.128943,0.128667,-0.596262,11,0.0159729,10,-7.67194e-05,-3.22456,-0.134766,-0.437794,10.1279,0.128667,
2,0,0,1,0,20735.8,0.127445,0.127118,-0.611489,11,0.0157869,10,-7.77315e-05,-3.21361,-0.157637,-0.374277,8.89298,0.127118,
2,0,0,1,0,20736.1,0.125947,0.125623,-0.623693,11,0.0155973,10,-7.835e-05,-3.20503,-0.176367,-0.33453,8.11849,0.125623,
2,0,0,0,0,20736.4,0.124449,0.124097,-0.635358,11,0.0154038,10,-7.88464e-05,-3.19698,-0.209824,-0.281189,6.92875,0.124097,
2,0,0,0,0,20736.7,0.122951,0.122634,-0.642938,11,0.0152073,10,-7.88461e-05,-3.19183,-0.296872,-0.198739,4.97122,0.122634,
2,0,0,0,0,20737,0.121453,0.121102,-0.649254,11,0.0150089,10,-7.86259e-05,-3.18759,-0.514752,-0.114618,2.89565,0.121102,
2,0,0,1,0,20737.3,0.119954,0.119655,-0.651699,11,0.0148091,10,-7.79792e-05,-3.18595,-0.678504,-0.086956,2.21381,0.119655,
2,0,0,1,0,20737.6,0.118456,0.118169,-0.655109,11,0.0146082,10,-7.74134e-05,-3.18369,-0.814997,-0.0723929,1.84527,0.1181688,
2,0,0,1,0,20737.9,0.116958,0.116654,-0.65873,11,0.0144063,10,-7.68438e-05,-3.18129,-3.96133,-0.014894,0.380876,0.116654,
2,0,0,1,0,20738.2,0.11546,0.115123,-0.656763,11,0.0142045,10,-7.56087e-05,-3.18259,1.23772,0.0476684,-1.21932,0.115123,
2,0,0,1,0,20738.5,0.113962,0.113655,-0.652051,11,0.0140032,10,-7.41086e-05,-3.18572,0.939181,0.0628207,-1.60214,0.113655,
2,0,0,1,0,20738.8,0.112463,0.112144,-0.652305,11,0.0138027,10,-7.31522e-05,-3.18555,1.02713,0.0574419,-1.46202,0.112144,
2,0,0,1,0,20739.1,0.110965,0.110642,-0.650344,11,0.0136026,10,-7.19554e-05,-3.18686,0.974649,0.0605346,-1.53299,0.110642,
2,0,0,1,0,20739.4,0.109468,0.109162,-0.646443,11,0.0134033,10,-7.0567e-05,-3.18947,0.466525,0.126467,-3.18873,0.109162,
2,0,0,0,0,20739.7,0.107969,0.107696,-0.642543,11,0.013205,10,-6.91995e-05,-3.1921,0.579188,0.101867,-2.56099,0.107696,
2,0,0,0,0,20740,0.106471,0.106193,-0.638973,11,0.0130082,10,-6.78541e-05,-3.19452,0.788277,0.0748468,-1.87132,0.106193,
2,0,0,1,0,20740.3,0.104972,0.104662,-0.636952,11,0.0128121,10,-6.66647e-05,-3.19589,0.652852,0.0903727,-2.24244,0.104662,
2,0,0,1,0,20740.6,0.103474,0.103147,-0.633552,11,0.0126168,10,-6.53489e-05,-3.19822,0.506084,0.116581,-2.87191,0.103147,
2,0,0,1,0,20740.9,0.101977,0.101664,-0.627974,11,0.012423,10,-6.38423e-05,-3.20206,0.486962,0.121159,-2.96696,0.101664,
2,0,0,1,0,20741.2,0.100478,0.100137,-0.622579,11,0.0122308,10,-6.23429e-05,-3.20581,0.499476,0.118124,-2.87003,0.100137,
2,0,0,1,0,20741.5,0.0989799,0.0986774,-0.619185,11,0.0120399,10,-6.10996e-05,-3.20818,0.590111,0.0999811,-2.41025,0.0986774,
2,0,0,1,0,20741.8,0.0974812,0.0971797,-0.614247,11,0.01185,10,-5.96923e-05,-3.21166,0.444802,0.132643,-3.18,0.0971797,
2,0,0,1,0,20742.1,0.0959834,0.0956393,-0.608705,11,0.0116616,10,-5.82161e-05,-3.21559,0.410862,0.1436,-3.41986,0.0956393,
2,0,0,1,0,20742.4,0.0944855,0.0941848,-0.601894,11,0.0114751,10,-5.66893e-05,-3.22048,0.44787,0.131735,-3.11193,0.0941848,
2,0,0,0,0,20742.7,0.0929871,0.0926617,-0.599666,11,0.0112897,10,-5.5566e-05,-3.22209,0.548305,0.107604,-2.51682,0.0926617,
2,0,0,0,0,20743,0.0914889,0.0911538,-0.596484,11,0.0111056,10,-5.43718e-05,-3.2244,0.430813,0.13695,-3.17945,0.0911538,
2,0,0,0,0,20743.3,0.0899907,0.0896258,-0.591059,11,0.010923,10,-5.29741e-05,-3.22837,0.41602,0.14182,-3.2642,0.0896258,
2,0,0,1,0,20743.6,0.0884923,0.0881443,-0.582752,11,0.0107419,10,-5.13663e-05,-3.23452,0.446894,0.132022,-3.00982,0.0881443,
2,0,0,1,0,20743.9,0.0869946,0.0867067,-0.580178,11,0.0105624,10,-5.03053e-05,-3.23644,0.40486,0.145729,-3.29684,0.0867067,
2,0,0,1,0,20744.2,0.0854962,0.0851625,-0.574637,11,0.0103841,10,-4.89375e-05,-3.24061,0.416814,0.14155,-3.18092,0.0851625,
2,0,0,1,0,20744.5,0.083998,0.0836652,-0.570538,11,0.0102074,10,-4.77342e-05,-3.24372,0.319807,0.184486,-4.10223,0.0836652,
2,0,0,1,0,20744.8,0.0824998,0.0822104,-0.566246,11,0.0100321,10,-4.65513e-05,-3.24699,0.432367,0.136458,-3.02005,0.0822104,
2,0,0,1,0,20745.1,0.0810014,0.0806513,-0.562104,11,0.00985842,10,-4.53345e-05,-3.25018,0.525386,0.112298,-2.46672,0.0806513,
2,0,0,1,0,20745.4,0.0795035,0.0791595,-0.558746,11,0.00968575,10,-4.423e-05,-3.25279,0.514271,0.114726,-2.49466,0.0791595,
2,0,0,1,0,20745.7,0.0780056,0.0776765,-0.553439,11,0.00951407,10,-4.29892e-05,-3.25693,0.472226,0.12494,-2.69628,0.07767646,
2,0,0,0,0,20746,0.076507,0.0761586,-0.55142,11,0.0093439,10,-4.19954e-05,-3.25852,0.403936,0.146063,-3.13521,0.07615862,
2,0,0,0,0,20746.3,0.0750088,0.0746507,-0.54555,11,0.00917522,10,-4.07257e-05,-3.26317,0.571561,0.103226,-2.1973,0.0746507,
2,0,0,1,0,20746.6,0.0735103,0.073166,-0.542496,11,0.00900729,10,-3.96923e-05,-3.2656,0.892691,0.0660923,-1.39612,0.07316599,
2,0,0,1,0,20746.9,0.0720124,0.071672,-0.537429,11,0.00884054,10,-3.85186e-05,-3.26968,0.608405,0.0969749,-2.0422,0.071672,
2,0,0,1,0,20747.2,0.0705146,0.0702174,-0.533963,11,0.00867486,10,-3.74935e-05,-3.27249,0.574676,0.102667,-2.1446,0.0702174,
2,0,0,1,0,20747.5,0.0690161,0.0687283,-0.530113,11,0.00851032,10,-3.64338e-05,-3.27563,0.613574,0.0961579,-1.99802,0.0687283,
2,0,0,1,0,20747.8,0.0675179,0.0671992,-0.528433,11,0.0083469,10,-3.55103e-05,-3.27701,0.659327,0.0894851,-1.84631,0.0671992,
2,0,0,1,0,20748.1,0.0660192,0.0656823,-0.528412,11,0.0081841,10,-3.47073e-05,-3.27703,0.683066,0.0863752,-1.77031,0.0656823,
2,0,0,1,0,20748.4,0.0645214,0.0641844,-0.522295,11,0.00802224,10,-3.35232e-05,-3.28208,0.410272,0.143807,-2.92657,0.0641844,
2,0,0,1,0,20748.7,0.0630235,0.0627033,-0.516215,11,0.00786165,10,-3.23684e-05,-3.28717,0.574564,0.102687,-2.07639,0.0627033,
2,0,0,0,0,20749,0.0615251,0.0612132,-0.514558,11,0.00770227,10,-3.14978e-05,-3.28857,0.472953,0.124748,-2.51086,0.0612132,
2,0,0,0,0,20749.3,0.0600269,0.059699,-0.511563,11,0.0075437,10,-3.05398e-05,-3.2911,0.608085,0.0970258,-1.94088,0.059699,
2,0,0,0,0,20749.6,0.0585287,0.0582165,-0.509414,11,0.00738598,10,-2.96563e-05,-3.29293,0.37586,0.156973,-3.10615,0.0582165,
2,0,0,1,0,20749.9,0.0570303,0.056683,-0.504738,11,0.00722921,10,-2.86101e-05,-3.29693,0.420284,0.140381,-2.76869,0.056683,
2,0,0,1,0,20750.2,0.0555325,0.0552358,-0.502042,11,0.00707393,10,-2.77307e-05,-3.29926,0.541254,0.109006,-2.13435,0.0552358,
2,0,0,1,0,20750.5,0.0540342,0.0537045,-0.499418,11,0.00691936,10,-2.6821e-05,-3.30154,0.510386,0.115599,-2.24772,0.0537045,
2,0,0,1,0,20750.8,0.052536,0.0521977,-0.496322,11,0.0067655,10,-2.59069e-05,-3.30424,0.58294,0.101211,-1.95208,0.0521977,
2,0,0,1,0,20751.1,0.0510378,0.0507354,-0.49153,11,0.00661286,10,-2.4938e-05,-3.30845,0.39781,0.148312,-2.84814,0.0507354,
2,0,0,1,0,20751.4,0.0495394,0.0492336,-0.488207,11,0.00646145,10,-2.40362e-05,-3.3114,0.502201,0.117483,-2.24239,0.0492336,
2,0,0,1,0,20751.7,0.0480415,0.0477208,-0.484043,11,0.00631089,10,-2.30989e-05,-3.31512,0.789549,0.0747262,-1.41342,0.0477208,
2,0,0,1,0,20752,0.0465436,0.0462472,-0.480781,11,0.00616129,10,-2.22348e-05,-3.31805,0.42164,0.13993,-2.62962,0.0462472,
2,0,0,0,0,20752.3,0.045045,0.0447441,-0.478911,11,0.00601255,10,-2.14284e-05,-3.31975,0.47062,0.125366,-2.33833,0.0447441,
2,0,0,0,0,20752.6,0.0435468,0.0432425,-0.471897,11,0.0058653,10,-2.0406e-05,-3.32615,0.471993,0.125002,-2.31703,0.04324254,
2,0,0,1,0,20752.9,0.0420483,0.0417112,-0.470973,11,0.00571901,10,-1.96448e-05,-3.327,0.56714,0.104031,-1.91077,0.0417112,
2,0,0,1,0,20753.2,0.0405504,0.0402268,-0.469063,11,0.0055735,10,-1.88689e-05,-3.32877,0.453584,0.130075,-2.37308,0.0402268,
2,0,0,1,0,20753.5,0.0390526,0.0387393,-0.464044,11,0.00542892,10,-1.79767e-05,-3.33344,0.346539,0.170255,-3.07771,0.03873929,
2,0,0,1,0,20753.8,0.0375541,0.0372237,-0.459602,11,0.00528556,10,-1.71081e-05,-3.33762,0.399878,0.147545,-2.65331,0.0372237,
2,0,0,1,0,20754.1,0.0360559,0.0357147,-0.456831,11,0.00514363,10,-1.63156e-05,-3.34024,0.437266,0.134929,-2.41179,0.0357147,
2,0,0,1,0,20754.4,0.0345572,0.0342689,-0.454108,11,0.00500238,10,-1.55618e-05,-3.34284,0.480017,0.122912,-2.17307,0.0342689,
2,0,0,1,0,20754.7,0.0330594,0.0327199,-0.449332,11,0.00486223,10,-1.47021e-05,-3.34743,0.335224,0.176002,-3.08857,0.0327199,
2,0,0,1,0,20755,0.0315615,0.0312601,-0.447923,11,0.00472309,10,-1.40022e-05,-3.3488,0.475879,0.123981,-2.16215,0.0312601,
2,0,0,0,0,20755.3,0.0300631,0.0297202,-0.444259,11,0.00458518,10,-1.32035e-05,-3.35236,0.556713,0.105979,-1.83547,0.0297202,
2,0,0,0,0,20755.6,0.0285649,0.0282346,-0.440669,11,0.00444798,10,-1.24421e-05,-3.35589,0.635746,0.0928043,-1.59357,0.0282346,
2,0,0,0,0,20755.9,0.0270667,0.0267617,-0.437801,11,0.00431161,10,-1.17163e-05,-3.35872,0.507461,0.116265,-1.98591,0.0267617,
2,0,0,1,0,20756.2,0.0255683,0.02526,-0.434291,11,0.00417617,10,-1.09702e-05,-3.36222,0.394982,0.149374,-2.5334,0.02526,
2,0,0,1,0,20756.5,0.0240706,0.0237566,-0.430653,11,0.00404199,10,-1.02309e-05,-3.36587,0.531109,0.111088,-1.87641,0.0237566,
2,0,0,1,0,20756.8,0.0225722,0.022255,-0.428901,11,0.00390846,10,-9.54519e-06,-3.36764,1.23288,0.0478554,-0.800803,0.022255,
2,0,0,1,0,20757.1,0.021074,0.0207566,-0.427171,11,0.0037755,10,-8.86663e-06,-3.3694,0.5875,0.100426,-1.67415,0.0207566,
2,0,0,1,0,20757.4,0.0195758,0.0192593,-0.423452,11,0.00364335,10,-8.15541e-06,-3.3732,0.521425,0.113152,-1.8758,0.0192593,
2,0,0,1,0,20757.7,0.0180774,0.0177333,-0.419921,11,0.00351203,10,-7.4466e-06,-3.37683,0.697185,0.084626,-1.39253,0.0177333,
2,0,0,1,0,20758,0.0165795,0.0162212,-0.42093,11,0.00338127,10,-6.82799e-06,-3.37579,0.706102,0.0835573,-1.37306,0.0162212,
2,0,0,1,0,20758.3,0.0150817,0.0148072,-0.419502,11,0.00325088,10,-6.21166e-06,-3.37727,0.971594,0.0607249,-0.992981,0.0148072,
2,0,0,0,0,20758.6,0.013583,0.0132532,-0.416806,11,0.00312079,10,-5.52401e-06,-3.38007,0.580758,0.101591,-1.65467,0.0132532,
2,0,0,0,0,20758.9,0.0120848,0.0117591,-0.41634,11,0.00299135,10,-4.89577e-06,-3.38055,0.86668,0.0680759,-1.10673,0.0117591,
2,0,0,1,0,20759.2,0.0105863,0.010271,-0.415109,11,0.00286246,10,-4.26358e-06,-3.38184,2.41959,0.0243843,-0.395745,0.010271,
2,0,0,1,0,20759.5,0.00908846,0.0087297,-0.414667,11,0.00273361,10,-3.61992e-06,-3.3823,3.45609,0.0170713,-0.276125,0.0087297,
2,0,0,1,0,20759.8,0.0075906,0.00727704,-0.415006,11,0.00260487,10,-3.02001e-06,-3.38195,2.79179,0.0211334,-0.340683,0.00727704,
2,0,0,1,0,20760.1,0.00609208,0.00576777,-0.413223,11,0.00247623,10,-2.38338e-06,-3.38382,3.42095,0.0172467,-0.278447,0.00576777,
2,0,0,1,0,20760.4,0.00459389,0.0042673,-0.414389,11,0.00234789,10,-1.76832e-06,-3.38259,-7.39722,-0.00797597,0.128846,0.0042673,
2,0,0,1,0,20760.7,0.00309525,0.00281724,-0.415116,11,0.00221918,10,-1.16948e-06,-3.38183,-0.945968,-0.06237,1.00866,0.00281724,
2,0,0,1,0,20761,0.00159739,0.00123242,-0.41774,11,0.0020886,10,-5.14831e-07,-3.37909, , , ,0.00123242,
2,0,0,0,0,20761.3,0.000199195,-0.000140177,-0.415611,11,0.00196776,10,5.82588e-08,-3.38131, , , ,-0.000140177,