File: Figure_codes/Fig_3-5/rawdata_trumpetplot_data/after 10th/20221101_1-115_003_TrumpetPlot_ParaChange_from10_every3_08_CV_C01_9.csv
mode,ox/red,error,control changes,counter inc.,time/s,control/V,Ewe/V,<I>/mA,cycle number,(Q-Qo)/C,I Range,P/W,log(|I|),Tafel slope mV/dec,alpha_eff,dI/d(E-IR),E-IR/V,
2,0,0,0,0,18906.2,2.44065e-05,-0.00042076,-4.08477,10,0.0000000E+000,10,1.71871e-06,-2.38883, , , ,-0.00042076,
2,0,0,1,0,18906.2,0.0012943,0.000900355,-2.19083,10,-4.70784e-05,10,-1.97253e-06,-2.65939, , , ,0.000900355,
2,0,0,1,0,18906.2,0.00279784,0.00249517,-0.784883,10,-7.38932e-05,10,-1.95842e-06,-3.1052,-0.00461899,-12.7734,770.503,0.00249517,
2,1,0,1,0,18906.2,0.00429425,0.00396636,0.127817,10,-7.93153e-05,10,5.0697e-07,-3.89341,-0.0419318,-1.40705,535.106,0.00396636,
2,1,0,1,0,18906.3,0.00579065,0.00551165,0.775349,10,-7.03166e-05,10,4.27345e-06,-3.1105,0.00410262,14.3811,386.688,0.00551165,
2,1,0,1,0,18906.3,0.0072942,0.00701886,1.27225,10,-5.06528e-05,10,8.92974e-06,-2.89543,0.00851652,6.92771,288.175,0.00701886,
2,1,0,1,0,18906.3,0.00878347,0.00842553,1.64598,10,-2.31901e-05,10,1.38683e-05,-2.78358,0.0153904,3.83356,228.327,0.00842553,
2,1,0,1,0,18906.3,0.010287,0.00998762,1.95033,10,1.08774e-05,10,1.94791e-05,-2.70989,0.0236029,2.49969,182.212,0.00998762,
2,1,0,1,0,18906.3,0.0117905,0.0114652,2.18544,10,5.00252e-05,10,2.50564e-05,-2.66046,0.0324883,1.81604,151.154,0.0114652,
2,1,0,1,0,18906.4,0.013278,0.0129584,2.38027,10,9.27945e-05,10,3.08445e-05,-2.62337,0.0422512,1.39641,128.035,0.0129584,
2,1,0,1,0,18906.4,0.0147816,0.0144619,2.54819,10,0.000139486,10,3.68516e-05,-2.59377,0.0542433,1.08769,107.417,0.0144619,
2,1,0,1,0,18906.4,0.0162851,0.015951,2.69924,10,0.000189215,10,4.30557e-05,-2.56876,0.0660289,0.893548,93.3897,0.015951,
2,1,0,1,0,18906.4,0.0177744,0.0174457,2.83058,10,0.00024098,10,4.93813e-05,-2.54812,0.0779393,0.757,83.2321,0.0174457,
2,1,0,1,0,18906.4,0.0192779,0.0189324,2.9411,10,0.000295485,10,5.56821e-05,-2.53149,0.0933786,0.631836,72.3051,0.0189324,
2,1,0,1,0,18906.5,0.0207743,0.020439,3.04741,10,0.00035177,10,6.22861e-05,-2.51607,0.1032,0.571707,67.7947,0.020439,
2,1,0,1,0,18906.5,0.0222707,0.0219479,3.14288,10,0.000409917,10,6.89794e-05,-2.50267,0.115532,0.510683,62.5306,0.0219479,
2,1,0,1,0,18906.5,0.0237743,0.0234704,3.23862,10,0.000470194,10,7.60118e-05,-2.48964,0.132269,0.446059,56.268,0.0234704,
2,1,0,1,0,18906.5,0.0252636,0.0249671,3.32334,10,0.000531457,10,8.29742e-05,-2.47842,0.145318,0.406007,52.6595,0.0249671,
2,1,0,1,0,18906.5,0.0267671,0.0264607,3.40919,10,0.000594946,10,9.02094e-05,-2.46735,0.149249,0.395314,52.5474,0.0264607,
2,1,0,1,0,18906.5,0.0282706,0.0279433,3.49754,10,0.000660049,10,9.77328e-05,-2.45624,0.147367,0.400361,54.4549,0.0279433,
2,1,0,1,0,18906.6,0.0297581,0.0293711,3.57421,10,0.000725928,10,0.000104979,-2.44682,0.166656,0.354023,49.2689,0.0293711,
2,1,0,1,0,18906.6,0.0312617,0.0309308,3.64648,10,0.000793969,10,0.000112789,-2.43813,0.163159,0.36161,51.37,0.0309308,
2,1,0,1,0,18906.6,0.0327652,0.0324902,3.72383,10,0.000863381,10,0.000120988,-2.42901,0.170536,0.345968,50.2146,0.0324902,
2,1,0,1,0,18906.6,0.0342545,0.0339548,3.79309,10,0.000933458,10,0.000128794,-2.42101,0.16707,0.353145,52.2421,0.0339548,
2,1,0,1,0,18906.6,0.035758,0.0354457,3.87281,10,0.00100573,10,0.000137274,-2.41197,0.179515,0.328663,49.5093,0.0354457,
2,1,0,1,0,18906.7,0.0372544,0.0369433,3.94165,10,0.001079,10,0.000145617,-2.40432,0.187875,0.314039,48.2892,0.0369433,
2,1,0,1,0,18906.7,0.0387508,0.0384144,4.00636,10,0.00115352,10,0.000153902,-2.39725,0.188218,0.313466,49.1102,0.0384144,
2,1,0,1,0,18906.7,0.0402544,0.0398848,4.08272,10,0.0012298,10,0.000162839,-2.38905,0.187129,0.31529,50.2349,0.0398848,
2,1,0,1,0,18906.7,0.0417437,0.0413944,4.15675,10,0.00130671,10,0.000172066,-2.38125,0.19407,0.304014,49.2563,0.0413944,
2,1,0,1,0,18906.7,0.0432472,0.0429422,4.22088,10,0.00138575,10,0.000181254,-2.3746,0.217045,0.271833,44.797,0.0429422,
2,1,0,1,0,18906.8,0.0447507,0.0444368,4.28768,10,0.00146602,10,0.000190531,-2.36778,0.218985,0.269424,45.1572,0.0444368,
2,1,0,1,0,18906.8,0.0462382,0.0459413,4.36256,10,0.00154674,10,0.000200422,-2.36026,0.225561,0.26157,44.5035,0.0459413,
2,1,0,1,0,18906.8,0.0477418,0.0474349,4.43016,10,0.00162964,10,0.000210144,-2.35358,0.236097,0.249897,43.2296,0.0474349,
2,1,0,1,0,18906.8,0.0492453,0.0489459,4.49598,10,0.0017138,10,0.000220059,-2.34718,0.23943,0.246418,43.2578,0.0489459,
2,1,0,1,0,18906.8,0.0507346,0.0504166,4.55803,10,0.00179828,10,0.0002298,-2.34122,0.241105,0.244707,43.5734,0.0504166,
2,1,0,1,0,18906.8,0.0522381,0.0518993,4.63014,10,0.00188492,10,0.000240301,-2.33441,0.24183,0.243973,44.0748,0.0518993,
2,1,0,1,0,18906.9,0.0537345,0.0534186,4.7018,10,0.00197234,10,0.000251164,-2.32774,0.25137,0.234714,43.0166,0.0534186,
2,1,0,1,0,18906.9,0.0552309,0.0549604,4.76395,10,0.00206103,10,0.000261829,-2.32203,0.255492,0.230927,42.8802,0.0549604,
2,1,0,1,0,18906.9,0.0567345,0.0563964,4.82654,10,0.00215141,10,0.000272199,-2.31636,0.269578,0.218861,41.2146,0.0563964,
2,1,0,1,0,18906.9,0.0582237,0.057891,4.88976,10,0.00224192,10,0.000283073,-2.31071,0.26635,0.221513,42.2729,0.057891,
2,1,0,1,0,18906.9,0.0597273,0.059405,4.94953,10,0.0023346,10,0.000294027,-2.30544,0.261564,0.225566,43.5523,0.059405,
2,1,0,1,0,18907,0.0612308,0.0609252,5.01182,10,0.00242848,10,0.000305346,-2.3,0.271446,0.217354,42.4998,0.0609252,
2,1,0,1,0,18907,0.0627183,0.0624525,5.07197,10,0.00252247,10,0.000316757,-2.29482,0.279966,0.21074,41.7004,0.0624525,
2,1,0,1,0,18907,0.0642219,0.0639291,5.12519,10,0.00261854,10,0.000327649,-2.29029,0.284346,0.207494,41.5372,0.0639291,
2,1,0,1,0,18907,0.0657254,0.0654359,5.18386,10,0.00271576,10,0.000339211,-2.28535,0.28644,0.205977,41.6875,0.0654359,
2,1,0,1,0,18907,0.0672147,0.0669104,5.24961,10,0.00281308,10,0.000351254,-2.27987,0.309246,0.190787,39.0539,0.0669104,
2,1,0,1,0,18907.1,0.0687182,0.0684125,5.301,10,0.00291254,10,0.000362655,-2.27564,0.350314,0.16842,34.8443,0.0684125,
2,1,0,1,0,18907.1,0.0702146,0.0699239,5.35335,10,0.00301248,10,0.000374327,-2.27137,0.369643,0.159613,33.3901,0.0699239,
2,1,0,1,0,18907.1,0.071711,0.0714024,5.41492,10,0.00311339,10,0.000386639,-2.26641,0.364324,0.161944,34.2137,0.0714024,
2,1,0,1,0,18907.1,0.0732145,0.0729032,5.46499,10,0.00321588,10,0.000398415,-2.26241,0.387573,0.15223,32.4597,0.0729032,
2,1,0,1,0,18907.1,0.0747038,0.0743804,5.51865,10,0.00331828,10,0.000410479,-2.25817,0.403555,0.146201,31.4679,0.07438039,
2,1,0,1,0,18907.1,0.0762074,0.0758665,5.56796,10,0.00342265,10,0.000422422,-2.2543,0.421181,0.140082,30.4312,0.0758665,
2,1,0,1,0,18907.2,0.0777109,0.0774027,5.62017,10,0.00352798,10,0.000435016,-2.25025,0.38184,0.154515,33.8667,0.0774027,
2,1,0,1,0,18907.2,0.0791984,0.0788806,5.67142,10,0.0036331,10,0.000447365,-2.24631,0.387839,0.152125,33.6302,0.0788806,
2,1,0,1,0,18907.2,0.0807019,0.0804314,5.71338,10,0.00374029,10,0.000459535,-2.24311,0.431646,0.136686,30.4458,0.0804314,
2,1,0,1,0,18907.2,0.0822055,0.0819073,5.75309,10,0.00384837,10,0.00047122,-2.2401,0.414301,0.142409,31.9973,0.0819073,
2,1,0,1,0,18907.2,0.0836947,0.0833991,5.79982,10,0.00395603,10,0.0004837,-2.23659,0.429928,0.137232,31.0913,0.0833991,
2,1,0,1,0,18907.3,0.0851983,0.0848839,5.84163,10,0.00406573,10,0.00049586,-2.23347,0.43288,0.136296,31.0826,0.0848839,
2,1,0,1,0,18907.3,0.0866947,0.086392,5.8888,10,0.0041757,10,0.000508745,-2.22997,0.478179,0.123385,28.3549,0.086392,
2,1,0,1,0,18907.3,0.0881911,0.0878441,5.93173,10,0.00428651,10,0.000521067,-2.22682,0.459717,0.12834,29.7148,0.0878441,
2,1,0,1,0,18907.3,0.0896946,0.0894266,5.9689,10,0.00439862,10,0.000533779,-2.22411,0.482452,0.122292,28.5457,0.0894266,
2,1,0,1,0,18907.3,0.0911839,0.0908953,6.02329,10,0.00451043,10,0.000547489,-2.22017,0.400136,0.14745,34.6762,0.0908953,
2,1,0,1,0,18907.4,0.0926857,0.0922993,6.07461,10,0.0046244,10,0.000560683,-2.21648,0.410943,0.143572,34.0545,0.0922993,
2,1,0,1,0,18907.4,0.0941892,0.0938992,6.12433,10,0.00473938,10,0.00057507,-2.21294,0.421627,0.139934,33.4808,0.0938992,
2,1,0,1,0,18907.4,0.0956785,0.095373,6.17949,10,0.00485408,10,0.000589357,-2.20905,0.389476,0.151486,36.6056,0.095373,
2,1,0,1,0,18907.4,0.097182,0.0968581,6.24501,10,0.00497111,10,0.000604879,-2.20447,0.349054,0.169028,41.2168,0.0968581,
2,1,0,1,0,18907.4,0.0986856,0.098411,6.31084,10,0.00508939,10,0.000621056,-2.19991,0.332803,0.177282,43.6938,0.098411,
2,1,0,1,0,18907.4,0.100175,0.0998944,6.38393,10,0.00520764,10,0.000637718,-2.19491,0.326809,0.180534,44.9701,0.0998944,
2,1,0,1,0,18907.5,0.101678,0.101337,6.45203,10,0.0053285,10,0.000653832,-2.1903,0.293182,0.20124,50.7085,0.101337,
2,1,0,1,0,18907.5,0.103175,0.102868,6.53654,10,0.00545008,10,0.000672398,-2.18465,0.269111,0.21924,55.9835,0.102868,
2,1,0,1,0,18907.5,0.104671,0.104345,6.62788,10,0.00557321,10,0.000691586,-2.17863,0.242802,0.242996,62.8041,0.104345,
2,1,0,1,0,18907.5,0.106175,0.105845,6.72001,10,0.0056988,10,0.000711283,-2.17263,0.234181,0.251942,66.0094,0.105845,
2,1,0,1,0,18907.5,0.107662,0.107359,6.81405,10,0.00582487,10,0.00073155,-2.16659,0.227071,0.259831,69.1201,0.107359,
2,1,0,1,0,18907.6,0.109166,0.108832,6.91485,10,0.00595412,10,0.000752554,-2.16022,0.222671,0.264965,71.5523,0.108832,
2,1,0,1,0,18907.6,0.110669,0.11036,7.01582,10,0.00608533,10,0.000774265,-2.15392,0.222564,0.265093,72.6503,0.11036,
2,1,0,1,0,18907.6,0.112159,0.111821,7.12504,10,0.00621715,10,0.000796731,-2.14721,0.231318,0.255061,70.909,0.111821,
2,1,0,1,0,18907.6,0.113662,0.113321,7.23121,10,0.0063524,10,0.000819448,-2.14079,0.237826,0.24808,70.0247,0.1133209,
2,1,0,1,0,18907.6,0.115166,0.114831,7.33259,10,0.0064896,10,0.000842005,-2.13474,0.249427,0.236542,67.7379,0.114831,
2,1,0,1,0,18907.6,0.116655,0.116329,7.44349,10,0.00662726,10,0.000865893,-2.12822,0.253409,0.232825,67.5895,0.116329,
2,1,0,1,0,18907.7,0.118158,0.117836,7.55253,10,0.00676846,10,0.000889958,-2.12191,0.264281,0.223247,65.6939,0.117836,
2,1,0,1,0,18907.7,0.119655,0.119335,7.64657,10,0.00691079,10,0.000912502,-2.11653,0.291348,0.202507,60.3862,0.119335,
2,1,0,1,0,18907.7,0.121151,0.120845,7.73626,10,0.0070548,10,0.000934888,-2.11147,0.310393,0.190081,57.3877,0.120845,
2,1,0,1,0,18907.7,0.122655,0.122327,7.8297,10,0.00720128,10,0.000957781,-2.10626,0.315139,0.187219,57.1091,0.122327,
2,1,0,1,0,18907.7,0.124142,0.123853,7.90826,10,0.00734781,10,0.00097946,-2.10192,0.336812,0.175172,54.0204,0.123853,
2,1,0,1,0,18907.8,0.125646,0.125301,7.98888,10,0.0074974,10,0.00100101,-2.09751,0.361305,0.163297,50.8489,0.125301,
2,1,0,1,0,18907.8,0.127149,0.126825,8.05247,10,0.00764841,10,0.00102125,-2.09407,0.405558,0.145479,45.7007,0.126825,
2,1,0,1,0,18907.8,0.128639,0.128286,8.12483,10,0.00779904,10,0.0010423,-2.09019,0.417606,0.141282,44.7792,0.128286,
2,1,0,1,0,18907.8,0.130142,0.129821,8.18651,10,0.00795253,10,0.00106278,-2.0869,0.432612,0.136381,43.5373,0.129821,
2,1,0,1,0,18907.8,0.131646,0.131345,8.25017,10,0.00810731,10,0.00108362,-2.08354,0.473431,0.124622,40.0785,0.1313448,
2,1,0,1,0,18907.9,0.133135,0.132796,8.30139,10,0.0082615,10,0.00110239,-2.08085,0.494543,0.119302,38.6592,0.132796,
2,1,0,1,0,18907.9,0.134639,0.134345,8.35459,10,0.00841832,10,0.0011224,-2.07807,0.538762,0.10951,35.722,0.134345,
2,1,0,1,0,18907.9,0.136135,0.1358,8.40481,10,0.00857533,10,0.00114137,-2.07547,0.531071,0.111096,36.4582,0.1358,
2,1,0,1,0,18907.9,0.137631,0.137296,8.45764,10,0.00873325,10,0.0011612,-2.07275,0.630478,0.0935797,30.8767,0.137296,
2,1,0,1,0,18907.9,0.139135,0.138854,8.50091,10,0.00889298,10,0.00118039,-2.07053,0.732785,0.0805147,26.6863,0.1388543,
2,1,0,1,0,18907.9,0.140622,0.140265,8.53171,10,0.00905167,10,0.0011967,-2.06896,1.07799,0.0547317,18.2226,0.1402647,
2,1,0,1,0,18908,0.142126,0.141807,8.56016,10,0.00921264,10,0.00121389,-2.06752,1.54106,0.0382854,12.7805,0.141807,
2,1,0,1,0,18908,0.143629,0.143348,8.58007,10,0.00937409,10,0.00122994,-2.06651,3.54165,0.0166589,5.56745,0.143348,
2,1,0,1,0,18908,0.145119,0.144828,8.58354,10,0.00953395,10,0.00124313,-2.06633,-1.54407,-0.0382107,-12.7644,0.144828,
2,1,0,1,0,18908,0.146622,0.146324,8.55412,10,0.00969526,10,0.00125167,-2.06782,-0.715755,-0.0824304,-27.4478,0.1463239,
2,1,0,1,0,18908,0.148126,0.147803,8.50844,10,0.00985582,10,0.00125757,-2.07015,-0.480946,-0.122675,-40.6,0.147803,
2,1,0,1,0,18908.1,0.149615,0.149276,8.42989,10,0.0100135,10,0.00125838,-2.07418,-0.323359,-0.18246,-59.8226,0.1492763,
2,1,0,1,0,18908.1,0.151119,0.150801,8.32612,10,0.0101712,10,0.00125559,-2.07956,-0.233339,-0.252851,-81.7694,0.1508009,
2,1,0,1,0,18908.1,0.152615,0.152301,8.18694,10,0.0103258,10,0.00124688,-2.08688,-0.180683,-0.326539,-103.858,0.152301,
2,1,0,1,0,18908.1,0.154111,0.153808,8.01068,10,0.0104774,10,0.0012321,-2.09633,-0.147992,-0.39867,-124.197,0.153808,
2,1,0,1,0,18908.1,0.155615,0.155289,7.80741,10,0.0106263,10,0.00121241,-2.10749,-0.128828,-0.457975,-139.059,0.155289,
2,1,0,1,0,18908.2,0.157103,0.156787,7.58019,10,0.0107697,10,0.00118848,-2.12032,-0.110742,-0.532768,-157.084,0.1567875,
2,1,0,1,0,18908.2,0.158606,0.158297,7.32418,10,0.01091,10,0.00115939,-2.13524,-0.0990524,-0.595644,-169.868,0.158297,
2,1,0,1,0,18908.2,0.16011,0.159844,7.05043,10,0.0110454,10,0.00112697,-2.15178,-0.0911487,-0.647294,-178.065,0.159844,
2,1,0,1,0,18908.2,0.161599,0.161263,6.78528,10,0.0111744,10,0.00109422,-2.16843,-0.0877764,-0.672162,-178.013,0.161263,
2,1,0,1,0,18908.2,0.163102,0.162779,6.51662,10,0.0112997,10,0.00106077,-2.18598,-0.0832015,-0.709122,-180.37,0.162779,
2,1,0,1,0,18908.2,0.164606,0.164302,6.25136,10,0.0114199,10,0.00102711,-2.20403,-0.0847373,-0.696269,-170.104,0.164302,
2,1,0,1,0,18908.3,0.166095,0.165759,5.99505,10,0.011534,10,0.000993732,-2.22221,-0.0852196,-0.692329,-162.505,0.165759,
2,1,0,1,0,18908.3,0.167599,0.167284,5.76852,10,0.0116448,10,0.000964982,-2.23894,-0.0893476,-0.660342,-148.886,0.167284,
2,1,0,1,0,18908.3,0.169095,0.168819,5.56006,10,0.0117509,10,0.000938644,-2.25492,-0.0938218,-0.628852,-136.649,0.168819,
2,1,0,1,0,18908.3,0.170592,0.170257,5.36451,10,0.0118532,10,0.000913345,-2.27047,-0.0950525,-0.620709,-130.181,0.170257,
2,1,0,1,0,18908.3,0.172095,0.171793,5.1806,10,0.0119524,10,0.000889989,-2.28562,-0.10367,-0.569114,-115.345,0.171793,
2,1,0,1,0,18908.4,0.173583,0.173288,5.02557,10,0.0120474,10,0.000870873,-2.29881,-0.115741,-0.50976,-100.035,0.173288,
2,1,0,1,0,18908.4,0.175086,0.174762,4.88046,10,0.0121406,10,0.000852917,-2.31154,-0.123006,-0.479651,-91.4409,0.174762,
2,1,0,1,0,18908.4,0.17659,0.176297,4.74885,10,0.0122312,10,0.000837209,-2.32341,-0.132502,-0.445277,-82.4902,0.176297,
2,1,0,1,0,18908.4,0.178079,0.177791,4.62295,10,0.0123185,10,0.000821921,-2.33508,-0.140418,-0.420174,-75.9477,0.1777914,
2,1,0,1,0,18908.4,0.179582,0.179278,4.51099,10,0.0124046,10,0.000808724,-2.34573,-0.15339,-0.38464,-67.9643,0.179278,
2,1,0,1,0,18908.5,0.181086,0.180784,4.41894,10,0.0124887,10,0.000798874,-2.35468,-0.163773,-0.360254,-62.2363,0.180784,
2,1,0,1,0,18908.5,0.182575,0.182292,4.3254,10,0.0125703,10,0.000788487,-2.36397,-0.178158,-0.331167,-56.0337,0.182292,
2,1,0,1,0,18908.5,0.184079,0.183768,4.24667,10,0.0126512,10,0.000780405,-2.37195,-0.184161,-0.320372,-53.1952,0.183768,
2,1,0,1,0,18908.5,0.185582,0.185225,4.17084,10,0.0127306,10,0.000772545,-2.37978,-0.202946,-0.290717,-47.4339,0.185225,
2,1,0,1,0,18908.5,0.18707,0.186681,4.10489,10,0.0128077,10,0.000766306,-2.3867,-0.22103,-0.266932,-42.8093,0.186681,
2,1,0,1,0,18908.5,0.188573,0.188271,4.04398,10,0.0128846,10,0.000761365,-2.39319,-0.227516,-0.259322,-40.9696,0.188271,
2,1,0,1,0,18908.6,0.19007,0.18975,3.98876,10,0.01296,10,0.000756866,-2.39916,-0.232044,-0.254262,-39.5886,0.18975,
2,1,0,1,0,18908.6,0.191566,0.191292,3.93048,10,0.0130342,10,0.00075187,-2.40555,-0.259046,-0.227759,-35.0163,0.191292,
2,1,0,1,0,18908.6,0.19307,0.192779,3.88441,10,0.0131079,10,0.000748831,-2.41068,-0.28782,-0.204989,-31.1033,0.192779,
2,1,0,1,0,18908.6,0.194559,0.194232,3.84872,10,0.01318,10,0.000747544,-2.41468,-0.297426,-0.198369,-29.7709,0.194232,
2,1,0,1,0,18908.6,0.196063,0.19575,3.8041,10,0.0132521,10,0.000744653,-2.41975,-0.305682,-0.193011,-28.6281,0.19575,
2,1,0,1,0,18908.7,0.197566,0.197288,3.76108,10,0.0133233,10,0.000742014,-2.42469,-0.345029,-0.171,-25.1272,0.197288,
2,1,0,1,0,18908.7,0.199055,0.19877,3.72888,10,0.0133931,10,0.000741189,-2.42842,-0.383144,-0.153989,-22.3862,0.1987697,
2,1,0,1,0,18908.7,0.200559,0.200248,3.69346,10,0.013463,10,0.000739606,-2.43257,-0.442189,-0.133427,-19.2222,0.200248,
2,1,0,1,0,18908.7,0.202062,0.201745,3.65717,10,0.0135323,10,0.000737815,-2.43685,-0.452965,-0.130253,-18.5941,0.201745,
2,1,0,1,0,18908.7,0.20355,0.203211,3.62721,10,0.0136003,10,0.000737088,-2.44043,-0.446197,-0.132229,-18.7438,0.203211,
2,1,0,1,0,18908.8,0.205053,0.204714,3.59413,10,0.0136684,10,0.000735767,-2.44441,-0.539261,-0.109409,-15.4202,0.204714,
2,1,0,1,0,18908.8,0.20655,0.206224,3.57422,10,0.0137357,10,0.000737091,-2.44682,-0.650084,-0.0907575,-12.6759,0.206224,
2,1,0,1,0,18908.8,0.208046,0.207764,3.55489,10,0.0138027,10,0.000738576,-2.44917,-0.513166,-0.114973,-15.9497,0.207764,
2,1,0,1,0,18908.8,0.20955,0.209237,3.53001,10,0.0138696,10,0.00073861,-2.45222,-0.488292,-0.120829,-16.6767,0.209237,
2,1,0,1,0,18908.8,0.211039,0.210741,3.51081,10,0.0139353,10,0.000739869,-2.45459,-0.492597,-0.119773,-16.4155,0.210741,
2,1,0,1,0,18908.8,0.212543,0.212255,3.48983,10,0.0140013,10,0.000740732,-2.4572,-0.540441,-0.10917,-14.8769,0.212255,
2,1,0,1,0,18908.9,0.214046,0.213752,3.47211,10,0.014067,10,0.00074217,-2.45941,-0.551667,-0.106949,-14.494,0.213752,
2,1,0,1,0,18908.9,0.215535,0.215191,3.45738,10,0.0141317,10,0.000743996,-2.46125,-0.603387,-0.0977814,-13.2,0.215191,
2,1,0,1,0,18908.9,0.217039,0.216695,3.43367,10,0.0141966,10,0.00074406,-2.46424,-0.702614,-0.0839722,-11.277,0.2166951,
2,1,0,1,0,18908.9,0.218543,0.218239,3.42346,10,0.0142613,10,0.000747131,-2.46554,-0.953968,-0.061847,-8.26293,0.218239,
2,1,0,1,0,18908.9,0.22003,0.219748,3.41652,10,0.0143251,10,0.000750773,-2.46642,-0.957739,-0.0616035,-8.19296,0.219748,
2,1,0,1,0,18909,0.221534,0.221285,3.39775,10,0.0143892,10,0.000751869,-2.46881,-0.902575,-0.0653685,-8.65843,0.221285,
2,1,0,1,0,18909,0.22303,0.222743,3.38104,10,0.0144528,10,0.000753103,-2.47095,-1.16583,-0.0506077,-6.68398,0.2227432,
2,1,0,1,0,18909,0.224526,0.224221,3.3693,10,0.014516,10,0.000755467,-2.47246,-0.989251,-0.0596411,-7.83424,0.224221,
2,1,0,1,0,18909,0.22603,0.225744,3.35031,10,0.0145795,10,0.000756311,-2.47491,-1.25344,-0.0470705,-6.16473,0.2257435,
2,1,0,1,0,18909,0.227519,0.227208,3.34143,10,0.014642,10,0.0007592,-2.47607,-0.958795,-0.0615356,-8.02833,0.227208,
2,1,0,1,0,18909.1,0.229023,0.22874,3.32847,10,0.014705,10,0.000761353,-2.47776,-1.09729,-0.0537687,-6.99172,0.22874,
2,1,0,1,0,18909.1,0.230526,0.230203,3.31061,10,0.0147677,10,0.000762112,-2.48009,-1.21823,-0.0484308,-6.28427,0.230203,
2,1,0,1,0,18909.1,0.232016,0.231665,3.30513,10,0.0148296,10,0.000765684,-2.48081,-1.25496,-0.0470136,-6.07345,0.231665,
2,1,0,1,0,18909.1,0.233519,0.233215,3.30146,10,0.014892,10,0.000769949,-2.48129,-1.06232,-0.0555386,-7.14986,0.233215,
2,1,0,1,0,18909.1,0.235023,0.23474,3.29296,10,0.0149542,10,0.00077299,-2.48241,-0.894548,-0.0659551,-8.47238,0.23474,
2,1,0,1,0,18909.1,0.23651,0.236212,3.2774,10,0.0150155,10,0.000774161,-2.48447,-0.867947,-0.0679765,-8.71068,0.236212,
2,1,0,1,0,18909.2,0.238014,0.237678,3.27257,10,0.0150773,10,0.000777818,-2.48511,-0.956048,-0.0617124,-7.87548,0.237678,
2,1,0,1,0,18909.2,0.23951,0.239253,3.26895,10,0.0151387,10,0.000782107,-2.48559,-1.35048,-0.0436882,-5.56898,0.239253,
2,1,0,1,0,18909.2,0.241006,0.240688,3.26047,10,0.0151999,10,0.000784755,-2.48672,-0.87499,-0.0674293,-8.56858,0.240688,
2,1,0,1,0,18909.2,0.24251,0.242207,3.25005,10,0.0152613,10,0.000787184,-2.48811,-1.23987,-0.0475858,-6.03118,0.242207,
2,1,0,1,0,18909.2,0.243999,0.243687,3.2432,10,0.0153218,10,0.000790324,-2.48903,-1.66211,-0.035497,-4.49362,0.243687,
2,1,0,1,0,18909.3,0.245503,0.245217,3.23978,10,0.0153829,10,0.000794448,-2.48948,-2.09118,-0.0282138,-3.56004,0.245217,
2,1,0,1,0,18909.3,0.247006,0.246758,3.23486,10,0.0154439,10,0.000798226,-2.49015,-1.81281,-0.0325461,-4.09551,0.246758,
2,1,0,1,0,18909.3,0.248496,0.248217,3.21846,10,0.0155041,10,0.000798878,-2.49235,-1.73085,-0.0340873,-4.28309,0.248217,
2,1,0,1,0,18909.3,0.249999,0.249701,3.21109,10,0.0155647,10,0.000801814,-2.49335,-2.39022,-0.0246839,-3.09705,0.249701,
2,1,0,1,0,18909.3,0.251503,0.251228,3.20129,10,0.0156252,10,0.000804254,-2.49468,-4.51944,-0.0130547,-1.6336,0.251228,
2,1,0,1,0,18909.4,0.25299,0.252691,3.1954,10,0.015685,10,0.000807449,-2.49547,-1.38666,-0.0425484,-5.30845,0.252691,
2,1,0,1,0,18909.4,0.254494,0.254211,3.18841,10,0.0157453,10,0.00081053,-2.49643,-1.50568,-0.0391849,-4.87808,0.254211,
2,1,0,1,0,18909.4,0.25599,0.255723,3.17793,10,0.0158051,10,0.000812669,-2.49786,-1.83713,-0.0321153,-3.99228,0.255723,
2,1,0,1,0,18909.4,0.257487,0.25719,3.17378,10,0.0158648,10,0.000816263,-2.49842,-1.94769,-0.0302923,-3.75545,0.25719,
2,1,0,1,0,18909.4,0.25899,0.258701,3.17501,10,0.0159247,10,0.000821378,-2.49825,-1.77479,-0.0332433,-4.11534,0.258701,
2,1,0,1,0,18909.4,0.260479,0.260235,3.17092,10,0.0159839,10,0.000825185,-2.49881,-0.960149,-0.0614488,-7.59152,0.260235,
2,1,0,1,0,18909.5,0.261983,0.26167,3.16003,10,0.0160436,10,0.000826885,-2.50031,-1.04805,-0.0562949,-6.94454,0.26167,
2,1,0,1,0,18909.5,0.263486,0.263177,3.15175,10,0.0161031,10,0.000829468,-2.50145,-2.86394,-0.020601,-2.53554,0.2631768,
2,1,0,1,0,18909.5,0.264974,0.264635,3.14835,10,0.0161619,10,0.000833164,-2.50192,-2.06308,-0.028598,-3.51555,0.264635,
2,1,0,1,0,18909.5,0.266477,0.266172,3.14565,10,0.0162212,10,0.000837286,-2.50229,-1.15811,-0.050945,-6.24122,0.2661725,
2,1,0,1,0,18909.5,0.267981,0.267631,3.13507,10,0.0162805,10,0.000839042,-2.50375,-2.28297,-0.0258435,-3.16241,0.267631,
2,1,0,1,0,18909.6,0.26947,0.269154,3.13272,10,0.0163389,10,0.000843185,-2.50408,-2.40742,-0.0245075,-2.99401,0.269154,
2,1,0,1,0,18909.6,0.270974,0.270682,3.13027,10,0.0163979,10,0.000847307,-2.50442,-38.552,-0.0015304,-0.186362,0.270682,
2,1,0,1,0,18909.6,0.27247,0.27214,3.11996,10,0.0164565,10,0.000849068,-2.50585,-2.56949,-0.0229617,-2.79076,0.27214,
2,1,0,1,0,18909.6,0.273967,0.273658,3.11081,10,0.016515,10,0.000851299,-2.50713,-2.65357,-0.0222342,-2.70087,0.273658,
2,1,0,1,0,18909.6,0.27547,0.275146,3.10388,10,0.0165736,10,0.00085402,-2.50809,-1.65994,-0.0355434,-4.30982,0.275146,
2,1,0,1,0,18909.7,0.276959,0.276642,3.09371,10,0.0166315,10,0.000855851,-2.50952,-3.54361,-0.0166497,-2.01347,0.276642,
2,1,0,1,0,18909.7,0.278463,0.278165,3.09324,10,0.01669,10,0.000860431,-2.50959,-1.48931,-0.0396156,-4.77659,0.278165,
2,1,0,1,0,18909.7,0.279967,0.279663,3.0812,10,0.0167483,10,0.000861698,-2.51128,-1.48851,-0.0396368,-4.7767,0.279663,
2,1,0,1,0,18909.7,0.281454,0.281162,3.07431,10,0.0168058,10,0.000864379,-2.51225,-1.35454,-0.0435571,-5.23724,0.281162,
2,1,0,1,0,18909.7,0.282958,0.282678,3.07345,10,0.0168639,10,0.000868795,-2.51237,-1.55969,-0.037828,-4.5365,0.282678,
2,1,0,1,0,18909.7,0.284461,0.284175,3.06651,10,0.0169219,10,0.000871423,-2.51336,-1.22479,-0.0481717,-5.7669,0.284175,
2,1,0,1,0,18909.8,0.28595,0.285672,3.06437,10,0.0169791,10,0.000875404,-2.51366,-0.935874,-0.0630427,-7.53697,0.285672,
2,1,0,1,0,18909.8,0.287454,0.287103,3.0581,10,0.0170368,10,0.000877988,-2.51455,-1.04143,-0.0566527,-6.75647,0.287103,
2,1,0,1,0,18909.8,0.28895,0.288652,3.05241,10,0.0170941,10,0.000881086,-2.51536,-1.89287,-0.0311697,-3.70828,0.288652,
2,1,0,1,0,18909.8,0.290447,0.290168,3.04862,10,0.0171513,10,0.000884613,-2.5159,-2.07943,-0.0283731,-3.37476,0.290168,
2,1,0,1,0,18909.8,0.29195,0.291641,3.04135,10,0.0172087,10,0.000886981,-2.51693,-1.868,-0.0315847,-3.74092,0.291641,
2,1,0,1,0,18909.9,0.29344,0.293136,3.03136,10,0.0172653,10,0.000888602,-2.51836,-2.68224,-0.0219965,-2.60276,0.293136,
2,1,0,1,0,18909.9,0.294943,0.294633,3.02651,10,0.0173224,10,0.00089171,-2.51906,-3.31298,-0.0178087,-2.1049,0.294633,
2,1,0,1,0,18909.9,0.296447,0.296135,3.02032,10,0.0173795,10,0.000894424,-2.51995,-4.84781,-0.0121705,-1.43474,0.296135,
2,1,0,1,0,18909.9,0.297934,0.297625,3.01389,10,0.0174358,10,0.000897008,-2.52087,-1.60424,-0.0367775,-4.32231,0.297625,
2,1,0,1,0,18909.9,0.299438,0.299129,2.99923,10,0.0174927,10,0.000897157,-2.52299,-0.0266447,-2.21432,-236.292,0.299129,
2,1,0,1,0,18909.9,0.300012,0.299727,3.01271,10,0.0175138,10,0.000902992,-2.52104,0.00119847,49.2293,3296.12,0.299727,
2,1,0,1,0,18910,0.298737,0.298408,1.2464,10,0.0175448,10,0.000371936,-2.90434,0.00213256,27.6662,892.478,0.298408,
2,1,0,1,0,18910,0.29724,0.296892,0.295022,10,0.017558,10,8.75899e-05,-3.53014,0.00576813,10.2286,517.247,0.296892,
2,0,0,1,0,18910,0.295744,0.295434,-0.227577,10,0.017558,10,-6.7234e-05,-3.64287,-0.0720137,-0.819288,287.02,0.295434,
2,0,0,1,0,18910,0.29424,0.293913,-0.547956,10,0.0175503,10,-0.000161051,-3.26125,-0.0041898,-14.0818,176.629,0.293913,
2,0,0,1,0,18910,0.292751,0.292426,-0.750163,10,0.017538,10,-0.000219367,-3.12484,-0.0129262,-4.56437,119.159,0.292426,
2,0,0,1,0,18910.1,0.291248,0.290922,-0.90314,10,0.0175223,10,-0.000262743,-3.04425,-0.0216876,-2.72045,90.247,0.290922,
2,0,0,1,0,18910.1,0.289744,0.289403,-1.01204,10,0.0175042,10,-0.000292889,-2.9948,-0.0316815,-1.86229,71.6591,0.289403,
2,0,0,1,0,18910.1,0.288257,0.287892,-1.10505,10,0.0174843,10,-0.000318134,-2.95662,-0.0429763,-1.37285,58.0625,0.287892,
2,0,0,1,0,18910.1,0.286753,0.286451,-1.17547,10,0.0174626,10,-0.000336716,-2.92979,-0.0522159,-1.12992,51.4072,0.286451,
2,0,0,1,0,18910.1,0.285249,0.284914,-1.24027,10,0.0174396,10,-0.000353369,-2.90649,-0.0645698,-0.91374,44.2195,0.284914,
2,0,0,1,0,18910.1,0.28376,0.283459,-1.30085,10,0.0174157,10,-0.000368737,-2.88577,-0.0780787,-0.755648,38.2877,0.283459,
2,0,0,1,0,18910.2,0.282257,0.281941,-1.3567,10,0.0173904,10,-0.000382508,-2.86752,-0.0898007,-0.657011,34.6144,0.281941,
2,0,0,1,0,18910.2,0.28076,0.280462,-1.39943,10,0.0173643,10,-0.000392487,-2.85405,-0.108055,-0.54602,29.8889,0.280462,
2,0,0,1,0,18910.2,0.279264,0.278956,-1.44628,10,0.0173375,10,-0.000403448,-2.83975,-0.123971,-0.475917,26.9017,0.278956,
2,0,0,1,0,18910.2,0.27776,0.277451,-1.49278,10,0.0173096,10,-0.000414172,-2.82601,-0.129979,-0.453921,26.3753,0.277451,
2,0,0,1,0,18910.2,0.276271,0.27597,-1.53101,10,0.0172813,10,-0.000422512,-2.81502,-0.153692,-0.383886,22.8834,0.2759704,
2,0,0,1,0,18910.3,0.274767,0.274468,-1.57027,10,0.0172519,10,-0.00043099,-2.80402,-0.164011,-0.359733,21.9548,0.274468,
2,0,0,1,0,18910.3,0.273264,0.27294,-1.60171,10,0.017222,10,-0.00043717,-2.79542,-0.175915,-0.335389,20.9484,0.27294,
2,0,0,1,0,18910.3,0.271776,0.271457,-1.6352,10,0.0171918,10,-0.000443887,-2.78643,-0.163655,-0.360514,23.0117,0.271457,
2,0,0,1,0,18910.3,0.270273,0.269962,-1.67359,10,0.0171605,10,-0.000451805,-2.77635,-0.183964,-0.320715,20.8505,0.269962,
2,0,0,1,0,18910.3,0.268769,0.268435,-1.69792,10,0.0171286,10,-0.000455781,-2.77008,-0.192134,-0.307077,20.3235,0.268435,
2,0,0,1,0,18910.4,0.26728,0.266972,-1.72446,10,0.0170966,10,-0.000460384,-2.76335,-0.209996,-0.280958,18.8951,0.266972,
2,0,0,1,0,18910.4,0.265777,0.265446,-1.75466,10,0.0170637,10,-0.000465767,-2.75581,-0.210921,-0.279725,19.1422,0.265446,
2,0,0,1,0,18910.4,0.26428,0.263992,-1.78062,10,0.0170305,10,-0.000470071,-2.74943,-0.210257,-0.280609,19.4731,0.263992,
2,0,0,1,0,18910.4,0.262784,0.262461,-1.80478,10,0.0169968,10,-0.000473684,-2.74358,-0.256925,-0.229639,16.1629,0.262461,
2,0,0,1,0,18910.4,0.26128,0.260988,-1.82783,10,0.0169624,10,-0.000477042,-2.73806,-0.241724,-0.24408,17.4348,0.260988,
2,0,0,1,0,18910.4,0.259791,0.259518,-1.85179,10,0.016928,10,-0.000480573,-2.73241,-0.241099,-0.244712,17.7289,0.2595185,
2,0,0,1,0,18910.5,0.258287,0.258003,-1.87472,10,0.0168928,10,-0.000483684,-2.72706,-0.253874,-0.232398,17.0355,0.258003,
2,0,0,1,0,18910.5,0.256786,0.256432,-1.89414,10,0.016857,10,-0.000485719,-2.72259,-0.304922,-0.193492,14.3313,0.256432,
2,0,0,1,0,18910.5,0.255296,0.254971,-1.92022,10,0.0168212,10,-0.000489602,-2.71665,-0.344012,-0.171505,12.8571,0.2549713,
2,0,0,1,0,18910.5,0.253793,0.253451,-1.94059,10,0.0167847,10,-0.000491845,-2.71207,-0.363309,-0.162396,12.2901,0.253451,
2,0,0,1,0,18910.5,0.252289,0.251963,-1.96013,10,0.0167478,10,-0.000493879,-2.70772,-0.347162,-0.169949,13.0082,0.251963,
2,0,0,1,0,18910.6,0.2508,0.250485,-1.98703,10,0.0167109,10,-0.00049772,-2.7018,-0.412822,-0.142919,11.0698,0.250485,
2,0,0,1,0,18910.6,0.249296,0.249015,-2.00198,10,0.0166732,10,-0.000498523,-2.69854,-0.446524,-0.132132,10.3391,0.249015,
2,0,0,1,0,18910.6,0.2478,0.247443,-2.02292,10,0.0166354,10,-0.000500557,-2.69402,-0.394932,-0.149393,11.8021,0.2474425,
2,0,0,1,0,18910.6,0.246304,0.245983,-2.04767,10,0.0165972,10,-0.000503693,-2.68874,-0.335728,-0.175738,14.0182,0.245983,
2,0,0,1,0,18910.6,0.2448,0.244472,-2.07454,10,0.0165584,10,-0.000507168,-2.68308,-0.330198,-0.178681,14.3767,0.244472,
2,0,0,1,0,18910.7,0.243313,0.243009,-2.08669,10,0.0165196,10,-0.000507085,-2.68054,-0.347823,-0.169627,13.7641,0.243009,
2,0,0,1,0,18910.7,0.241809,0.241455,-2.10318,10,0.01648,10,-0.000507825,-2.67712,-0.38232,-0.154321,12.6551,0.241455,
2,0,0,1,0,18910.7,0.240306,0.23994,-2.11842,10,0.0164402,10,-0.000508292,-2.67399,-0.330277,-0.178638,14.7822,0.2399397,
2,0,0,1,0,18910.7,0.238816,0.238487,-2.13332,10,0.0164005,10,-0.000508769,-2.67094,-0.331412,-0.178026,14.8286,0.238487,
2,0,0,1,0,18910.7,0.237313,0.236995,-2.1468,10,0.01636,10,-0.000508781,-2.66821,-0.411462,-0.143391,12.0257,0.236995,
2,0,0,1,0,18910.7,0.235809,0.235426,-2.16842,10,0.0163191,10,-0.000510503,-2.66386,-0.432759,-0.136335,11.545,0.235426,
2,0,0,1,0,18910.8,0.23432,0.233977,-2.18347,10,0.0162784,10,-0.000510882,-2.66085,-0.427998,-0.137851,11.7832,0.233977,
2,0,0,1,0,18910.8,0.232816,0.232536,-2.20326,10,0.0162369,10,-0.000512336,-2.65693,-0.459389,-0.128431,11.0552,0.232536,
2,0,0,1,0,18910.8,0.23132,0.23101,-2.22334,10,0.0161953,10,-0.000513613,-2.65299,-0.495543,-0.119061,10.3143,0.23101,
2,0,0,1,0,18910.8,0.229824,0.229524,-2.24182,10,0.0161533,10,-0.000514552,-2.6494,-0.718386,-0.0821285,7.18024,0.229524,
2,0,0,1,0,18910.8,0.22832,0.22799,-2.25599,10,0.0161109,10,-0.000514344,-2.64666,-0.618719,-0.0953583,8.38889,0.22799,
2,0,0,1,0,18910.9,0.226833,0.226521,-2.27708,10,0.0160686,10,-0.000515806,-2.64262,-0.455939,-0.129403,11.4575,0.226521,
2,0,0,1,0,18910.9,0.225329,0.225038,-2.29059,10,0.0160256,10,-0.00051547,-2.64005,-0.508208,-0.116094,10.3773,0.225038,
2,0,0,1,0,18910.9,0.223825,0.223529,-2.3087,10,0.0159822,10,-0.00051606,-2.63663,-0.617531,-0.0955417,8.59635,0.223529,
2,0,0,1,0,18910.9,0.222336,0.222038,-2.32342,10,0.015939,10,-0.000515887,-2.63387,-0.493028,-0.119669,10.8497,0.222038,
2,0,0,1,0,18910.9,0.220833,0.220527,-2.34282,10,0.015895,10,-0.000516654,-2.63026,-0.384305,-0.153524,14.0195,0.220527,
2,0,0,1,0,18911,0.219329,0.219027,-2.36135,10,0.0158507,10,-0.000517199,-2.62684,-0.415841,-0.141881,13.0365,0.219027,
2,0,0,1,0,18911,0.21784,0.217527,-2.3748,10,0.0158065,10,-0.000516583,-2.62437,-0.502172,-0.11749,10.87,0.217527,
2,0,0,1,0,18911,0.216336,0.216051,-2.38572,10,0.0157616,10,-0.000515438,-2.62238,-0.465481,-0.126751,11.8111,0.216051,
2,0,0,1,0,18911,0.21484,0.214541,-2.40269,10,0.0157166,10,-0.000515476,-2.6193,-0.418761,-0.140892,13.2313,0.214541,
2,0,0,1,0,18911,0.213343,0.213014,-2.42028,10,0.0156713,10,-0.000515553,-2.61613,-0.400346,-0.147372,13.9104,0.2130136,
2,0,0,1,0,18911,0.21184,0.211535,-2.43284,10,0.0156255,10,-0.000514629,-2.61389,-0.536155,-0.110043,10.4521,0.211535,
2,0,0,1,0,18911.1,0.210352,0.210016,-2.4481,10,0.0155798,10,-0.000514141,-2.61117,-0.470208,-0.125477,11.9942,0.210016,
2,0,0,1,0,18911.1,0.208849,0.208504,-2.46265,10,0.0155334,10,-0.000513471,-2.6086,-0.470765,-0.125328,12.0968,0.208504,
2,0,0,1,0,18911.1,0.207345,0.207043,-2.47831,10,0.0154867,10,-0.000513116,-2.60584,-0.474137,-0.124436,12.0632,0.207043,
2,0,0,1,0,18911.1,0.205856,0.205479,-2.51125,10,0.01544,10,-0.000516008,-2.60011,-0.54932,-0.107405,10.4951,0.205479,
2,0,0,1,0,18911.1,0.204353,0.204015,-2.52348,10,0.0153925,10,-0.000514828,-2.598,-0.842531,-0.0700271,6.89655,0.204015,
2,0,0,1,0,18911.2,0.202849,0.20254,-2.53259,10,0.0153448,10,-0.00051295,-2.59643,-0.681879,-0.0865256,8.57221,0.2025398,
2,0,0,1,0,18911.2,0.20136,0.201036,-2.55597,10,0.0152973,10,-0.000513841,-2.59244,-0.574371,-0.102721,10.2479,0.201036,
2,0,0,1,0,18911.2,0.199856,0.199495,-2.58058,10,0.0152489,10,-0.000514811,-2.58828,-0.523267,-0.112753,11.3197,0.199495,
2,0,0,1,0,18911.2,0.19836,0.198031,-2.59188,10,0.0152004,10,-0.000513273,-2.58639,-0.51812,-0.113873,11.5087,0.198031,
2,0,0,1,0,18911.2,0.196863,0.196558,-2.60601,10,0.0151517,10,-0.000512232,-2.58402,-0.501535,-0.117639,11.9605,0.196558,
2,0,0,1,0,18911.2,0.19536,0.195009,-2.62988,10,0.0151023,10,-0.00051285,-2.58006,-0.371904,-0.158643,16.2659,0.195009,
2,0,0,1,0,18911.3,0.193872,0.193519,-2.64865,10,0.0150531,10,-0.000512564,-2.57698,-0.348754,-0.169174,17.4543,0.193519,
2,0,0,1,0,18911.3,0.192369,0.192031,-2.66943,10,0.015003,10,-0.000512613,-2.57358,-0.413512,-0.14268,14.8302,0.192031,
2,0,0,1,0,18911.3,0.190865,0.190529,-2.67855,10,0.0149525,10,-0.000510343,-2.5721,-0.401406,-0.146983,15.3848,0.190529,
2,0,0,1,0,18911.3,0.189376,0.189048,-2.6984,10,0.0149022,10,-0.000510127,-2.56889,-0.39945,-0.147703,15.6024,0.189048,
2,0,0,1,0,18911.3,0.187872,0.187519,-2.71846,10,0.0148511,10,-0.000509764,-2.56568,-0.409453,-0.144095,15.318,0.187519,
2,0,0,1,0,18911.4,0.186369,0.18605,-2.74168,10,0.0147994,10,-0.000510089,-2.56198,-0.439704,-0.134181,14.3602,0.18605,
2,0,0,1,0,18911.4,0.18488,0.184566,-2.76636,10,0.0147479,10,-0.000510576,-2.55809,-0.532233,-0.110854,11.9824,0.184566,
2,0,0,1,0,18911.4,0.183376,0.183044,-2.78499,10,0.0146955,10,-0.000509778,-2.55518,-0.490033,-0.1204,13.1219,0.183044,
2,0,0,1,0,18911.4,0.18188,0.181581,-2.8147,10,0.0146429,10,-0.000511097,-2.55057,-0.418118,-0.141108,15.507,0.181581,
2,0,0,1,0,18911.4,0.180383,0.180068,-2.84379,10,0.0145898,10,-0.000512076,-2.5461,-0.43884,-0.134445,14.9021,0.1800679,
2,0,0,1,0,18911.5,0.17888,0.178544,-2.87149,10,0.0145359,10,-0.000512687,-2.54189,-0.460575,-0.128101,14.3515,0.178544,
2,0,0,1,0,18911.5,0.177392,0.177067,-2.8921,10,0.0144823,10,-0.000512097,-2.53879,-0.396233,-0.148902,16.8179,0.1770674,
2,0,0,1,0,18911.5,0.175889,0.175564,-2.92362,10,0.0144275,10,-0.000513282,-2.53408,-0.316667,-0.186316,21.2018,0.175564,
2,0,0,1,0,18911.5,0.174385,0.174034,-2.95242,10,0.0143721,10,-0.000513821,-2.52982,-0.345387,-0.170823,19.6676,0.174034,
2,0,0,1,0,18911.5,0.172896,0.17257,-2.98689,10,0.0143168,10,-0.000515449,-2.52478,-0.320506,-0.184084,21.4161,0.17257,
2,0,0,1,0,18911.5,0.171392,0.171032,-3.01312,10,0.0142602,10,-0.000515342,-2.52098,-0.290002,-0.203447,23.9475,0.171032,
2,0,0,1,0,18911.6,0.169889,0.169533,-3.04742,10,0.0142031,10,-0.000516638,-2.51607,-0.270952,-0.217751,25.9469,0.169533,
2,0,0,1,0,18911.6,0.1684,0.168104,-3.09113,10,0.0141459,10,-0.000519632,-2.50988,-0.248126,-0.237782,28.6566,0.168104,
2,0,0,1,0,18911.6,0.166896,0.166534,-3.12475,10,0.0140873,10,-0.000520376,-2.50518,-0.251221,-0.234853,28.6401,0.166534,
2,0,0,1,0,18911.6,0.165392,0.165042,-3.16306,10,0.0140279,10,-0.00052204,-2.49989,-0.24684,-0.239021,29.5866,0.165042,
2,0,0,1,0,18911.6,0.163905,0.1636,-3.20725,10,0.0139684,10,-0.000524706,-2.49387,-0.23342,-0.252763,31.7399,0.1636,
2,0,0,1,0,18911.7,0.162401,0.162059,-3.25191,10,0.0139074,10,-0.000527003,-2.48786,-0.211346,-0.279164,35.581,0.162059,
2,0,0,1,0,18911.7,0.160905,0.160561,-3.31232,10,0.0138457,10,-0.000531828,-2.47987,-0.215971,-0.273185,35.2993,0.160561,
2,0,0,1,0,18911.7,0.159409,0.159041,-3.36502,10,0.013783,10,-0.000535178,-2.47301,-0.217611,-0.271125,35.68,0.159041,
2,0,0,1,0,18911.7,0.157905,0.157608,-3.42615,10,0.0137189,10,-0.00053999,-2.46519,-0.193872,-0.304324,40.7924,0.157608,
2,0,0,1,0,18911.7,0.156416,0.156113,-3.50239,10,0.0136544,10,-0.000546768,-2.45564,-0.176732,-0.333838,45.6013,0.156113,
2,0,0,1,0,18911.8,0.154912,0.154585,-3.57988,10,0.0135877,10,-0.000553394,-2.44613,-0.156445,-0.377129,52.6529,0.154585,
2,0,0,1,0,18911.8,0.153409,0.153081,-3.65695,10,0.0135196,10,-0.000559809,-2.43688,-0.159334,-0.370291,52.8216,0.153081,
2,0,0,1,0,18911.8,0.151919,0.151581,-3.73533,10,0.0134507,10,-0.000566206,-2.42767,-0.144298,-0.408875,59.7944,0.151581,
2,0,0,1,0,18911.8,0.150416,0.150107,-3.83674,10,0.0133794,10,-0.00057592,-2.41604,-0.125451,-0.470301,70.4721,0.150107,
2,0,0,1,0,18911.8,0.148912,0.148589,-3.94125,10,0.0133062,10,-0.000585627,-2.40437,-0.116324,-0.507204,78.1237,0.148589,
2,0,0,1,0,18911.8,0.147425,0.147085,-4.06066,10,0.0132316,10,-0.000597263,-2.3914,-0.115356,-0.511462,81.0591,0.147085,
2,0,0,1,0,18911.9,0.145921,0.145607,-4.17548,10,0.013154,10,-0.000607978,-2.37929,-0.107091,-0.550933,90.0819,0.145607,
2,0,0,1,0,18911.9,0.144425,0.144128,-4.31601,10,0.0130744,10,-0.00062206,-2.36492,-0.0999487,-0.590303,99.6616,0.144128,
2,0,0,1,0,18911.9,0.142929,0.142602,-4.47224,10,0.012992,10,-0.000637752,-2.34947,-0.0960242,-0.614429,107.406,0.142602,
2,0,0,1,0,18911.9,0.141425,0.1411,-4.63487,10,0.0129061,10,-0.000653981,-2.33396,-0.0940262,-0.627485,113.62,0.1411,
2,0,0,1,0,18911.9,0.139936,0.139629,-4.80662,10,0.0128181,10,-0.000671144,-2.31816,-0.0919087,-0.641941,120.64,0.139629,
2,0,0,1,0,18912,0.138432,0.138115,-4.98913,10,0.0127257,10,-0.000689072,-2.30197,-0.0910127,-0.648261,126.514,0.138115,
2,0,0,1,0,18912,0.136929,0.136602,-5.19064,10,0.0126298,10,-0.000709052,-2.28478,-0.0884901,-0.666741,135.162,0.136602,
2,0,0,1,0,18912,0.135439,0.135117,-5.39902,10,0.012531,10,-0.000729497,-2.26769,-0.092367,-0.638757,134.51,0.135117,
2,0,0,1,0,18912,0.133936,0.133609,-5.60894,10,0.0124273,10,-0.000749406,-2.25112,-0.0931825,-0.633166,138.468,0.133609,
2,0,0,1,0,18912,0.132432,0.13214,-5.81559,10,0.0123198,10,-0.000768472,-2.23541,-0.0954506,-0.618121,140.471,0.13214,
2,0,0,1,0,18912.1,0.130945,0.130623,-6.04155,10,0.0122094,10,-0.000789164,-2.21885,-0.0940952,-0.627025,147.535,0.130623,
2,0,0,1,0,18912.1,0.129441,0.129116,-6.26235,10,0.0120936,10,-0.000808568,-2.20326,-0.100671,-0.586069,143.026,0.129116,
2,0,0,1,0,18912.1,0.127945,0.127637,-6.48215,10,0.0119743,10,-0.000827363,-2.18828,-0.106649,-0.553218,139.519,0.127637,
2,0,0,1,0,18912.1,0.126448,0.126143,-6.6829,10,0.011851,10,-0.000843,-2.17503,-0.11295,-0.522357,136.067,0.126143,
2,0,0,1,0,18912.1,0.124945,0.124619,-6.88286,10,0.0117234,10,-0.000857737,-2.16223,-0.117877,-0.500523,134.267,0.124619,
2,0,0,1,0,18912.1,0.123456,0.123138,-7.08343,10,0.0115933,10,-0.000872237,-2.14976,-0.123149,-0.479095,132.129,0.123138,
2,0,0,1,0,18912.2,0.121952,0.121627,-7.26777,10,0.0114583,10,-0.000883954,-2.1386,-0.138093,-0.427248,120.847,0.121627,
2,0,0,1,0,18912.2,0.120449,0.120125,-7.43427,10,0.0113198,10,-0.000893043,-2.12876,-0.15449,-0.381901,110.722,0.120125,
2,0,0,1,0,18912.2,0.118959,0.11866,-7.60067,10,0.0111798,10,-0.000901895,-2.11915,-0.162267,-0.363598,107.75,0.1186599,
2,0,0,1,0,18912.2,0.117456,0.117121,-7.75019,10,0.0110352,10,-0.00090771,-2.11069,-0.174898,-0.337339,101.935,0.117121,
2,0,0,1,0,18912.2,0.115952,0.115615,-7.89411,10,0.0108878,10,-0.000912681,-2.1027,-0.200337,-0.294504,90.6501,0.115615,
2,0,0,1,0,18912.3,0.114465,0.11414,-8.02528,10,0.0107393,10,-0.000916003,-2.09554,-0.224371,-0.262958,82.3396,0.11414,
2,0,0,1,0,18912.3,0.112961,0.112627,-8.14798,10,0.010587,10,-0.000917679,-2.08895,-0.252434,-0.233724,74.2969,0.1126266,
2,0,0,1,0,18912.3,0.111465,0.11115,-8.26201,10,0.0104333,10,-0.000918319,-2.08291,-0.273871,-0.21543,69.3634,0.11115,
2,0,0,1,0,18912.3,0.109968,0.10964,-8.3612,10,0.0102776,10,-0.00091672,-2.07773,-0.320049,-0.184347,60.0672,0.10964,
2,0,0,1,0,18912.3,0.108465,0.10815,-8.44994,10,0.0101194,10,-0.00091386,-2.07315,-0.383688,-0.153771,50.6287,0.10815,
2,0,0,1,0,18912.4,0.106976,0.106656,-8.52426,10,0.00996139,10,-0.000909166,-2.06934,-0.453814,-0.130009,43.1782,0.106656,
2,0,0,1,0,18912.4,0.105472,0.105188,-8.58758,10,0.00980044,10,-0.00090331,-2.06613,-0.52805,-0.111732,37.372,0.105188,
2,0,0,1,0,18912.4,0.103968,0.103645,-8.63557,10,0.00963839,10,-0.000895031,-2.06371,-0.677391,-0.0870989,29.313,0.103645,
2,0,0,1,0,18912.4,0.102479,0.102162,-8.67494,10,0.00947725,10,-0.000886246,-2.06173,-1.02944,-0.0573127,19.3659,0.102162,
2,0,0,1,0,18912.4,0.100976,0.100623,-8.69575,10,0.00931382,10,-0.000874996,-2.06069,-1.7123,-0.0344566,11.6759,0.1006234,
2,0,0,1,0,18912.4,0.0994721,0.0991486,-8.70102,10,0.00915015,10,-0.000862694,-2.06043,-2.86678,-0.0205806,6.98223,0.0991486,
2,0,0,1,0,18912.5,0.0979846,0.0976669,-8.70247,10,0.00898811,10,-0.000849943,-2.06036,8.44594,0.0069856,-2.36955,0.0976669,
2,0,0,1,0,18912.5,0.0964811,0.0961379,-8.68171,10,0.00882444,10,-0.000834641,-2.06139,1.4599,0.0404138,-13.6815,0.0961379,
2,0,0,1,0,18912.5,0.0949847,0.0946291,-8.65384,10,0.00866201,10,-0.000818905,-2.06279,0.991671,0.0594955,-20.0778,0.0946291,
2,0,0,1,0,18912.5,0.0934883,0.0931541,-8.61349,10,0.00850028,10,-0.000802382,-2.06482,0.703539,0.0838617,-28.2042,0.0931541,
2,0,0,1,0,18912.5,0.0919847,0.0916445,-8.56821,10,0.00833851,10,-0.00078523,-2.06711,0.562899,0.104814,-35.0523,0.0916445,
2,0,0,1,0,18912.6,0.0904955,0.0901714,-8.51727,10,0.00817933,10,-0.000768014,-2.0697,0.472944,0.12475,-41.4177,0.0901714,
2,0,0,1,0,18912.6,0.0889919,0.0886993,-8.4522,10,0.00801961,10,-0.000749704,-2.07303,0.394631,0.149507,-49.2659,0.0886993,
2,0,0,1,0,18912.6,0.0874884,0.0871846,-8.37596,10,0.00786124,10,-0.000730254,-2.07697,0.37222,0.158508,-51.8117,0.0871846,
2,0,0,1,0,18912.6,0.0860009,0.0856644,-8.30456,10,0.00770598,10,-0.000711405,-2.08068,0.365646,0.161358,-52.2587,0.0856644,
2,0,0,1,0,18912.6,0.0844973,0.0841729,-8.23145,10,0.00755045,10,-0.000692865,-2.08452,0.346609,0.170221,-54.612,0.0841729,
2,0,0,1,0,18912.7,0.0829938,0.0826452,-8.15119,10,0.00739636,10,-0.000673657,-2.08878,0.342881,0.172072,-54.6957,0.0826452,
2,0,0,1,0,18912.7,0.0815045,0.0811612,-8.06386,10,0.00724548,10,-0.000654472,-2.09346,0.348239,0.169424,-53.3426,0.0811612,
2,0,0,1,0,18912.7,0.080001,0.079658,-7.98911,10,0.00709447,10,-0.000636397,-2.0975,0.378854,0.155733,-48.5641,0.079658,
2,0,0,1,0,18912.7,0.0785046,0.0781502,-7.91956,10,0.00694562,10,-0.000618915,-2.1013,0.410136,0.143855,-44.4539,0.0781502,
2,0,0,1,0,18912.7,0.0770082,0.0766426,-7.84651,10,0.00679808,10,-0.000601377,-2.10532,0.417059,0.141467,-43.3245,0.07664258,
2,0,0,1,0,18912.7,0.0755046,0.0751872,-7.77896,10,0.006651,10,-0.000584878,-2.10908,0.450546,0.130952,-39.7892,0.0751872,
2,0,0,1,0,18912.8,0.0740154,0.0736554,-7.72129,10,0.00650671,10,-0.000568715,-2.11231,0.467231,0.126276,-38.0498,0.0736554,
2,0,0,1,0,18912.8,0.0725118,0.0721741,-7.66038,10,0.00636191,10,-0.000552881,-2.11575,0.511142,0.115428,-34.5424,0.07217411,
2,0,0,1,0,18912.8,0.0710083,0.0706444,-7.60817,10,0.00621815,10,-0.000537474,-2.11872,0.542487,0.108758,-32.3171,0.0706444,
2,0,0,1,0,18912.8,0.0695208,0.0691764,-7.56053,10,0.00607682,10,-0.00052301,-2.12145,0.553871,0.106523,-31.4492,0.0691764,
2,0,0,1,0,18912.8,0.0680173,0.0676518,-7.51014,10,0.0059349,10,-0.000508074,-2.12435,0.588449,0.100264,-29.4392,0.0676518,
2,0,0,1,0,18912.9,0.0665137,0.0662045,-7.46918,10,0.0057938,10,-0.000494494,-2.12673,0.602742,0.097886,-28.571,0.06620454,
2,0,0,1,0,18912.9,0.0650244,0.0646592,-7.43938,10,0.00565488,10,-0.000481024,-2.12846,0.598123,0.098642,-28.6295,0.0646592,
2,0,0,1,0,18912.9,0.0635209,0.0631744,-7.40018,10,0.00551522,10,-0.000467502,-2.13076,0.572283,0.103096,-29.7723,0.0631744,
2,0,0,1,0,18912.9,0.0620245,0.0617193,-7.35503,10,0.00537712,10,-0.000453947,-2.13342,0.609632,0.0967797,-27.791,0.06171931,
2,0,0,1,0,18912.9,0.0605281,0.0602081,-7.32009,10,0.00523973,10,-0.000440728,-2.13548,0.692563,0.0851908,-24.3282,0.0602081,
2,0,0,1,0,18913,0.0590246,0.0587162,-7.29121,10,0.00510221,10,-0.000428112,-2.1372,0.680868,0.0866541,-24.6339,0.0587162,
2,0,0,1,0,18913,0.0575353,0.0572137,-7.2526,10,0.00496688,10,-0.000414948,-2.13951,0.63575,0.0928037,-26.263,0.0572137,
2,0,0,1,0,18913,0.0560317,0.0557082,-7.2085,10,0.00483085,10,-0.000401573,-2.14216,0.691579,0.0853121,-24.0085,0.0557082,
2,0,0,1,0,18913,0.0545282,0.0542075,-7.1767,10,0.00469548,10,-0.000389031,-2.14408,0.848832,0.0695073,-19.4623,0.0542075,
2,0,0,1,0,18913,0.0530407,0.0526822,-7.14256,10,0.0045622,10,-0.000376286,-2.14615,0.761871,0.0774409,-21.5705,0.0526822,
2,0,0,1,0,18913,0.0515372,0.051174,-7.10015,10,0.00442814,10,-0.000363343,-2.14873,0.714487,0.0825767,-22.8701,0.051174,
2,0,0,1,0,18913.1,0.0500336,0.0496817,-7.05562,10,0.0042948,10,-0.000350535,-2.15146,0.65632,0.0898952,-24.7703,0.0496817,
2,0,0,1,0,18913.1,0.0485444,0.0482199,-7.01861,10,0.00416371,10,-0.000338436,-2.15375,0.629547,0.0937181,-25.6892,0.0482199,
2,0,0,1,0,18913.1,0.0470408,0.0466953,-6.97596,10,0.00403188,10,-0.000325744,-2.1564,0.663864,0.0888736,-24.2067,0.0466953,
2,0,0,1,0,18913.1,0.0455444,0.0452509,-6.93849,10,0.00390144,10,-0.000313973,-2.15873,0.551304,0.107019,-28.9936,0.0452509,
2,0,0,1,0,18913.1,0.044048,0.0437466,-6.89768,10,0.00377178,10,-0.00030175,-2.1613,0.536243,0.110025,-29.636,0.0437466,
2,0,0,1,0,18913.2,0.0425445,0.0421794,-6.85237,10,0.00364228,10,-0.000289029,-2.16416,0.525958,0.112176,-30.0544,0.0421794,
2,0,0,1,0,18913.2,0.0410552,0.0407005,-6.82192,10,0.0035149,10,-0.000277655,-2.16609,0.561057,0.105159,-27.9834,0.04070048,
2,0,0,1,0,18913.2,0.0395517,0.0392355,-6.78503,10,0.00338684,10,-0.000266214,-2.16845,0.536776,0.109915,-29.0616,0.0392355,
2,0,0,1,0,18913.2,0.0380481,0.0377109,-6.74146,10,0.00325959,10,-0.000254227,-2.17125,0.500956,0.117775,-30.9384,0.0377109,
2,0,0,1,0,18913.2,0.0365606,0.0361901,-6.68849,10,0.00313457,10,-0.000242057,-2.17467,0.482324,0.122324,-31.9254,0.0361901,
2,0,0,1,0,18913.3,0.0350571,0.0347452,-6.64461,10,0.00300911,10,-0.000230868,-2.17753,0.486314,0.121321,-31.4369,0.0347452,
2,0,0,1,0,18913.3,0.0335535,0.0331923,-6.59727,10,0.0028845,10,-0.000218979,-2.18064,0.484667,0.121733,-31.3234,0.0331923,
2,0,0,1,0,18913.3,0.0320643,0.0317741,-6.54641,10,0.00276218,10,-0.000208006,-2.184,0.441004,0.133786,-34.158,0.0317741,
2,0,0,1,0,18913.3,0.0305607,0.0302168,-6.48879,10,0.0026395,10,-0.00019607,-2.18784,0.454126,0.12992,-32.9012,0.0302168,
2,0,0,1,0,18913.3,0.0290643,0.028744,-6.43543,10,0.00251848,10,-0.00018498,-2.19142,0.456846,0.129146,-32.4382,0.028744,
2,0,0,1,0,18913.3,0.0275679,0.0272207,-6.38434,10,0.00239845,10,-0.000173787,-2.19488,0.438286,0.134615,-33.5139,0.0272207,
2,0,0,1,0,18913.4,0.0260644,0.0257565,-6.32652,10,0.00227876,10,-0.000162949,-2.19884,0.393985,0.149752,-36.9601,0.0257565,
2,0,0,1,0,18913.4,0.0245751,0.0242827,-6.26979,10,0.00216137,10,-0.000152247,-2.20275,0.386563,0.152627,-37.3672,0.0242827,
2,0,0,1,0,18913.4,0.0230716,0.0227209,-6.21589,10,0.00204384,10,-0.000141231,-2.2065,0.377267,0.156388,-37.9496,0.0227209,
2,0,0,1,0,18913.4,0.021568,0.0212341,-6.15464,10,0.00192731,10,-0.000130688,-2.2108,0.383967,0.153659,-36.9399,0.0212341,
2,0,0,1,0,18913.4,0.0200805,0.0197617,-6.102,10,0.00181306,10,-0.000120586,-2.21453,0.365654,0.161355,-38.4345,0.0197617,
2,0,0,1,0,18913.5,0.018577,0.01828,-6.04499,10,0.00169862,10,-0.000110503,-2.2186,0.353705,0.166806,-39.3808,0.01828004,
2,0,0,1,0,18913.5,0.0170735,0.0167432,-5.9928,10,0.00158529,10,-0.000100339,-2.22237,0.371711,0.158726,-37.1428,0.01674317,
2,0,0,1,0,18913.5,0.0155842,0.0152772,-5.93856,10,0.00147412,10,-9.07245e-05,-2.22632,0.404203,0.145966,-33.8586,0.0152772,
2,0,0,1,0,18913.5,0.0140806,0.0137369,-5.89467,10,0.00136269,10,-8.09746e-05,-2.22954,0.371866,0.158659,-36.4823,0.0137369,
2,0,0,1,0,18913.5,0.0125842,0.0122243,-5.8492,10,0.00125273,10,-7.15022e-05,-2.2329,0.391271,0.150791,-34.3818,0.0122243,
2,0,0,1,0,18913.6,0.0110878,0.0107341,-5.79483,10,0.00114381,10,-6.22021e-05,-2.23696,0.397508,0.148425,-33.5684,0.0107341,
2,0,0,1,0,18913.6,0.00958429,0.00928548,-5.75261,10,0.00103518,10,-5.34157e-05,-2.24014,0.475127,0.124177,-27.8582,0.00928548,
2,0,0,1,0,18913.6,0.0080968,0.00772884,-5.70741,10,0.000928495,10,-4.41117e-05,-2.24356,0.500032,0.117992,-26.2898,0.00772884,
2,0,0,1,0,18913.6,0.00659326,0.00624071,-5.66814,10,0.000821433,10,-3.53732e-05,-2.24656,0.546013,0.108056,-23.8936,0.00624071,
2,0,0,1,0,18913.6,0.00508972,0.00475599,-5.62354,10,0.000715129,10,-2.67455e-05,-2.24999,0.565423,0.104347,-22.9307,0.00475599,
2,0,0,1,0,18913.6,0.00360044,0.00326582,-5.58767,10,0.00061068,10,-1.82483e-05,-2.25277,1.19675,0.0493003,-10.7989,0.00326582,
2,0,0,1,0,18913.7,0.0020969,0.00173917,-5.60329,10,0.00050558,10,-9.7451e-06,-2.25156,1.16142,0.0507999,-11.0431,0.00173917,
2,0,0,1,0,18913.7,0.000593362,0.000214234,-5.55223,10,0.000400483,10,-1.18948e-06,-2.25553, , , ,0.000214234,
2,0,0,1,0,18913.7,0.000199195,-0.000159264,-5.54828,10,0.000373236,10,8.8364e-07,-2.25584, , , ,-0.000159264,