File: Figure_codes/Fig_3-5/rawdata_trumpetplot_data/after 10th/20221101_1-115_003_TrumpetPlot_ParaChange_from10_every3_06_CV_C01_15.csv
mode,ox/red,error,control changes,counter inc.,time/s,control/V,Ewe/V,<I>/mA,cycle number,(Q-Qo)/C,I Range,P/W,log(|I|),Tafel slope mV/dec,alpha_eff,dI/d(E-IR),E-IR/V,
2,0,0,0,0,30702,2.44065e-05,-0.000363498,-1.41089,16,0.0000000E+000,10,5.12857e-07,-2.85051, , , ,-0.000363498,
2,0,0,1,0,30702,0.00129787,0.000935973,-0.306276,16,-2.3523e-05,10,-2.86666e-07,-3.51389, , , ,0.000935973,
2,1,0,1,0,30702,0.00279427,0.00247233,0.368339,16,-2.05006e-05,10,9.10657e-07,-3.43375,0.0349648,1.68741,358.726,0.00247233,
2,1,0,1,0,30702.1,0.00429425,0.00400984,0.736882,16,1.41267e-06,10,2.95478e-06,-3.1326,0.00547977,10.7669,209.49,0.00400984,
2,1,0,1,0,30702.1,0.00579422,0.00547432,0.971625,16,3.43515e-05,10,5.31899e-06,-3.0125,0.0146961,4.01468,137.078,0.00547432,
2,1,0,1,0,30702.2,0.00729063,0.0069691,1.14029,16,7.45658e-05,10,7.94677e-06,-2.94299,0.0259725,2.27164,96.06,0.0069691,
2,1,0,1,0,30702.2,0.00878703,0.0084574,1.25941,16,0.000120065,10,1.06514e-05,-2.89983,0.0383382,1.53893,73.5495,0.008457399,
2,1,0,1,0,30702.2,0.010287,0.0099542,1.35431,16,0.000169663,10,1.34811e-05,-2.86828,0.0543942,1.08467,56.2815,0.0099542,
2,1,0,1,0,30702.3,0.011787,0.0114579,1.42439,16,0.000222423,10,1.63205e-05,-2.84637,0.0687248,0.858496,47.3656,0.0114579,
2,1,0,1,0,30702.3,0.0132825,0.0129034,1.48367,16,0.000277505,10,1.91443e-05,-2.82866,0.0843669,0.699326,40.5913,0.0129034,
2,1,0,1,0,30702.3,0.014778,0.0144377,1.54256,16,0.000334793,10,2.2271e-05,-2.81176,0.0987776,0.597301,35.8994,0.0144377,
2,1,0,1,0,30702.4,0.0162816,0.0159899,1.59754,16,0.00039452,10,2.55445e-05,-2.79655,0.115123,0.512497,31.7416,0.0159899,
2,1,0,1,0,30702.4,0.017778,0.0174574,1.64189,16,0.000455686,10,2.86632e-05,-2.78466,0.131958,0.447111,28.5561,0.0174574,
2,1,0,1,0,30702.5,0.0192744,0.0189849,1.6856,16,0.000518376,10,3.20011e-05,-2.77324,0.145392,0.405799,26.5465,0.0189849,
2,1,0,1,0,30702.5,0.0207743,0.0204887,1.72375,16,0.000582791,10,3.53175e-05,-2.76352,0.140749,0.419185,28.1067,0.0204887,
2,1,0,1,0,30702.5,0.0222743,0.0219203,1.764,16,0.000648744,10,3.86672e-05,-2.7535,0.14899,0.396,27.1863,0.0219203,
2,1,0,1,0,30702.6,0.0237707,0.023459,1.79974,16,0.000715949,10,4.22201e-05,-2.74479,0.167926,0.351345,24.6995,0.023459,
2,1,0,1,0,30702.6,0.0252671,0.0249592,1.83163,16,0.000784499,10,4.5716e-05,-2.73716,0.175818,0.335575,24.0963,0.0249592,
2,1,0,1,0,30702.6,0.0267671,0.026478,1.87133,16,0.000854572,10,4.9549e-05,-2.72785,0.169534,0.348013,25.4416,0.026478,
2,1,0,1,0,30702.7,0.0282671,0.0279406,1.91,16,0.000926119,10,5.33666e-05,-2.71897,0.171339,0.344346,25.6445,0.0279406,
2,1,0,1,0,30702.7,0.0297626,0.0294981,1.94776,16,0.000998825,10,5.74552e-05,-2.71047,0.193415,0.305043,23.1228,0.0294981,
2,1,0,1,0,30702.8,0.0312581,0.0309523,1.97871,16,0.00107286,10,6.12457e-05,-2.70362,0.189873,0.310735,23.9822,0.0309523,
2,1,0,1,0,30702.8,0.0327616,0.0324345,2.01619,16,0.00114848,10,6.53942e-05,-2.69547,0.193707,0.304584,23.9211,0.0324345,
2,1,0,1,0,30702.8,0.034258,0.0339412,2.05314,16,0.00122512,10,6.96861e-05,-2.68758,0.195491,0.301804,24.1583,0.0339412,
2,1,0,1,0,30702.9,0.0357545,0.0354557,2.08262,16,0.00130312,10,7.38406e-05,-2.68139,0.220033,0.268141,21.8434,0.0354557,
2,1,0,1,0,30702.9,0.0372544,0.0369058,2.12002,16,0.00138265,10,7.8241e-05,-2.67366,0.205552,0.287032,23.7837,0.0369058,
2,1,0,1,0,30702.9,0.0387544,0.0384334,2.15213,16,0.0014634,10,8.27137e-05,-2.66713,0.208093,0.283527,23.9164,0.0384334,
2,1,0,1,0,30703,0.0402508,0.0399368,2.19382,16,0.00154532,10,8.76142e-05,-2.6588,0.216996,0.271895,23.2787,0.0399368,
2,1,0,1,0,30703,0.0417472,0.0414065,2.23298,16,0.0016287,10,9.24601e-05,-2.65111,0.211956,0.27836,24.1787,0.0414065,
2,1,0,1,0,30703.1,0.0432472,0.0429589,2.26954,16,0.00171361,10,9.74969e-05,-2.64406,0.238322,0.247564,21.8455,0.0429589,
2,1,0,1,0,30703.1,0.0447472,0.0444552,2.29926,16,0.00179973,10,0.000102214,-2.63841,0.233583,0.252587,22.6515,0.04445523,
2,1,0,1,0,30703.1,0.0462427,0.0459314,2.33121,16,0.0018869,10,0.000107076,-2.63242,0.230057,0.256458,23.3581,0.0459314,
2,1,0,1,0,30703.2,0.0477382,0.0474022,2.36687,16,0.00197538,10,0.000112195,-2.62583,0.227477,0.259367,23.9821,0.04740217,
2,1,0,1,0,30703.2,0.0492417,0.0489639,2.39877,16,0.00206565,10,0.000117453,-2.62001,0.257612,0.229026,21.4588,0.0489639,
2,1,0,1,0,30703.2,0.0507381,0.0504319,2.42547,16,0.00215663,10,0.000122321,-2.6152,0.2616,0.225535,21.4362,0.0504319,
2,1,0,1,0,30703.3,0.0522345,0.0519296,2.46241,16,0.00224879,10,0.000127872,-2.60864,0.244521,0.241288,23.2235,0.0519296,
2,1,0,1,0,30703.3,0.0537345,0.0533783,2.50643,16,0.0023425,10,0.000133789,-2.60094,0.25752,0.229108,22.3295,0.0533783,
2,1,0,1,0,30703.4,0.0552345,0.0549354,2.53733,16,0.00243752,10,0.000139389,-2.59562,0.28706,0.205532,20.2519,0.0549354,
2,1,0,1,0,30703.4,0.0567309,0.0564114,2.56286,16,0.00253341,10,0.000144574,-2.59128,0.299779,0.196812,19.6714,0.0564114,
2,1,0,1,0,30703.4,0.0582273,0.0579065,2.59272,16,0.00263037,10,0.000150135,-2.58624,0.28721,0.205424,20.8058,0.0579065,
2,1,0,1,0,30703.5,0.0597309,0.0594253,2.62439,16,0.00272903,10,0.000155955,-2.58097,0.296433,0.199033,20.3955,0.0594253,
2,1,0,1,0,30703.5,0.0612264,0.0608961,2.65235,16,0.00282835,10,0.000161518,-2.57637,0.309114,0.190868,19.7649,0.06089605,
2,1,0,1,0,30703.5,0.0627219,0.0624219,2.68354,16,0.0029288,10,0.000167512,-2.57129,0.334085,0.176602,18.4858,0.0624219,
2,1,0,1,0,30703.6,0.0642218,0.0639263,2.71033,16,0.00303047,10,0.000173261,-2.56698,0.303725,0.194255,20.5609,0.0639263,
2,1,0,1,0,30703.6,0.0657218,0.0653858,2.74156,16,0.00313326,10,0.000179259,-2.562,0.301345,0.195789,20.912,0.0653858,
2,1,0,1,0,30703.7,0.0672182,0.0669123,2.7733,16,0.00323699,10,0.000185568,-2.557,0.333519,0.176901,19.0746,0.0669123,
2,1,0,1,0,30703.7,0.0687146,0.06839,2.80012,16,0.00334173,10,0.0001915,-2.55282,0.406325,0.145204,15.8334,0.06839,
2,1,0,1,0,30703.7,0.0702146,0.0698656,2.818,16,0.00344756,10,0.000196881,-2.55006,0.379474,0.155478,17.1193,0.0698656,
2,1,0,1,0,30703.8,0.0717146,0.0713927,2.84312,16,0.00355437,10,0.000202978,-2.54621,0.348359,0.169366,18.8092,0.0713927,
2,1,0,1,0,30703.8,0.073211,0.0728991,2.86668,16,0.00366189,10,0.000208978,-2.54262,0.418949,0.140828,15.7919,0.0728991,
2,1,0,1,0,30703.8,0.0747074,0.0743772,2.8954,16,0.00377029,10,0.000215351,-2.53829,0.477253,0.123624,13.9641,0.0743772,
2,1,0,1,0,30703.9,0.0762109,0.075889,2.91367,16,0.00388007,10,0.000221116,-2.53556,0.453186,0.130189,14.8049,0.075889,
2,1,0,1,0,30703.9,0.0777064,0.0773923,2.93723,16,0.00399004,10,0.000227319,-2.53206,0.442398,0.133364,15.2911,0.0773923,
2,1,0,1,0,30704,0.079202,0.0789053,2.9666,16,0.00410089,10,0.00023408,-2.52774,0.447104,0.13196,15.2099,0.0789053,
2,1,0,1,0,30704,0.0807019,0.0803596,2.9837,16,0.00421299,10,0.000239769,-2.52525,0.50676,0.116426,13.53,0.0803596,
2,1,0,1,0,30704,0.0822019,0.0818546,2.99462,16,0.00432577,10,0.000245124,-2.52366,0.562905,0.104813,12.2681,0.0818546,
2,1,0,1,0,30704.1,0.0836983,0.0833543,3.01519,16,0.00443885,10,0.000251329,-2.52069,0.553016,0.106688,12.5945,0.0833543,
2,1,0,1,0,30704.1,0.0851947,0.0848711,3.03477,16,0.00455268,10,0.000257564,-2.51787,0.547588,0.107745,12.7904,0.0848711,
2,1,0,1,0,30704.1,0.0866947,0.0863602,3.05952,16,0.00466765,10,0.000264221,-2.51435,0.517789,0.113946,13.6012,0.0863602,
2,1,0,1,0,30704.2,0.0881947,0.0879079,3.08048,16,0.00478337,10,0.000270799,-2.51138,0.50595,0.116612,14.0204,0.0879079,
2,1,0,1,0,30704.2,0.0896911,0.0893958,3.10508,16,0.0048995,10,0.000277581,-2.50793,0.453082,0.130219,15.7706,0.0893958,
2,1,0,1,0,30704.3,0.0911875,0.0908602,3.13306,16,0.00501659,10,0.000284671,-2.50403,0.402868,0.14645,17.8658,0.0908602,
2,1,0,1,0,30704.3,0.0926901,0.0923697,3.15784,16,0.00513534,10,0.000291689,-2.50061,0.389913,0.151316,18.6392,0.0923697,
2,1,0,1,0,30704.3,0.0941856,0.0938732,3.18299,16,0.00525452,10,0.000298798,-2.49716,0.379713,0.15538,19.3338,0.0938732,
2,1,0,1,0,30704.4,0.0956821,0.095403,3.20921,16,0.00537473,10,0.000306168,-2.4936,0.35811,0.164754,20.7131,0.095403,
2,1,0,1,0,30704.4,0.097182,0.0968708,3.24172,16,0.00549646,10,0.000314028,-2.48922,0.302895,0.194787,24.7378,0.09687081,
2,1,0,1,0,30704.4,0.098682,0.0983743,3.28251,16,0.00561958,10,0.000322915,-2.48379,0.281626,0.209498,26.9023,0.0983743,
2,1,0,1,0,30704.5,0.100178,0.0998279,3.32849,16,0.00574392,10,0.000332276,-2.47775,0.274199,0.215172,27.965,0.0998279,
2,1,0,1,0,30704.5,0.101675,0.101349,3.37342,16,0.00586985,10,0.000341893,-2.47193,0.249403,0.236565,31.1642,0.101349,
2,1,0,1,0,30704.6,0.103175,0.102864,3.42577,16,0.00599782,10,0.000352389,-2.46524,0.231765,0.254568,34.0278,0.102864,
2,1,0,1,0,30704.6,0.104675,0.104361,3.47897,16,0.00612778,10,0.000363069,-2.45855,0.212933,0.277083,37.6166,0.104361,
2,1,0,1,0,30704.6,0.106171,0.105853,3.53158,16,0.00625946,10,0.00037383,-2.45203,0.221307,0.266598,36.7506,0.105853,
2,1,0,1,0,30704.7,0.107667,0.107331,3.58515,16,0.0063932,10,0.000384798,-2.44549,0.219697,0.268552,37.6464,0.107331,
2,1,0,1,0,30704.7,0.10917,0.108885,3.64087,16,0.00652972,10,0.000396436,-2.4388,0.214698,0.274805,39.1244,0.108885,
2,1,0,1,0,30704.7,0.110666,0.110354,3.70281,16,0.00666779,10,0.00040862,-2.43147,0.214775,0.274706,39.7078,0.110354,
2,1,0,1,0,30704.8,0.112162,0.111838,3.76475,16,0.00680804,10,0.000421043,-2.42426,0.228711,0.257968,37.8443,0.111838,
2,1,0,1,0,30704.8,0.113662,0.113324,3.82105,16,0.00695082,10,0.000433017,-2.41782,0.242594,0.243205,36.1959,0.113324,
2,1,0,1,0,30704.9,0.115162,0.114809,3.87294,16,0.00709559,10,0.000444647,-2.41196,0.249202,0.236756,35.7307,0.114809,
2,1,0,1,0,30704.9,0.116658,0.116299,3.92184,16,0.00724195,10,0.000456106,-2.40651,0.259337,0.227503,34.8236,0.116299,
2,1,0,1,0,30704.9,0.118155,0.117865,3.97603,16,0.00739033,10,0.000468633,-2.40055,0.290487,0.203107,31.4778,0.117865,
2,1,0,1,0,30705,0.119655,0.119313,4.01736,16,0.00754087,10,0.000479322,-2.39606,0.33883,0.174129,27.2997,0.119313,
2,1,0,1,0,30705,0.121155,0.120839,4.05242,16,0.00769292,10,0.000489689,-2.39229,0.366091,0.161162,25.528,0.120839,
2,1,0,1,0,30705,0.122651,0.12236,4.09425,16,0.00784593,10,0.000500974,-2.38783,0.397726,0.148343,23.6957,0.1223603,
2,1,0,1,0,30705.1,0.124147,0.123839,4.12956,16,0.0080003,10,0.000511401,-2.3841,0.434636,0.135746,21.8543,0.123839,
2,1,0,1,0,30705.1,0.12565,0.125311,4.16201,16,0.00815676,10,0.000521545,-2.3807,0.483903,0.121925,19.763,0.125311,
2,1,0,1,0,30705.2,0.127146,0.126804,4.18627,16,0.00831349,10,0.000530835,-2.37817,0.530254,0.111267,18.169,0.126804,
2,1,0,1,0,30705.2,0.128642,0.128304,4.21021,16,0.00847112,10,0.000540185,-2.3757,0.539642,0.109332,17.9833,0.128304,
2,1,0,1,0,30705.2,0.130142,0.129817,4.23686,16,0.00863021,10,0.000550018,-2.37296,0.573902,0.102805,17.0037,0.129817,
2,1,0,1,0,30705.3,0.131642,0.131352,4.26173,16,0.0087903,10,0.000559788,-2.37041,0.662292,0.0890846,14.8162,0.131352,
2,1,0,1,0,30705.3,0.133139,0.13284,4.28142,16,0.00895083,10,0.000568744,-2.36841,0.755014,0.0781442,13.0701,0.1328399,
2,1,0,1,0,30705.3,0.134635,0.134336,4.30117,16,0.009112,10,0.000577801,-2.36641,0.917217,0.064325,10.8029,0.134336,
2,1,0,1,0,30705.4,0.136135,0.135842,4.32072,16,0.0092743,10,0.000586933,-2.36444,1.0726,0.0550064,9.26137,0.135842,
2,1,0,1,0,30705.4,0.137635,0.137278,4.33887,16,0.00943716,10,0.000595629,-2.36262,2.37361,0.0248566,4.19479,0.137278,
2,1,0,1,0,30705.5,0.13913,0.138839,4.34305,16,0.00959989,10,0.000602985,-2.36221,-3.89099,-0.0151632,-2.55743,0.138839,
2,1,0,1,0,30705.5,0.140626,0.140273,4.32548,16,0.00976252,10,0.000606747,-2.36397,-1.0732,-0.0549759,-9.2659,0.140273,
2,1,0,1,0,30705.5,0.14213,0.141857,4.30615,16,0.0099255,10,0.000610858,-2.36591,-0.640019,-0.0921847,-15.4724,0.141857,
2,1,0,1,0,30705.6,0.143626,0.143315,4.27874,16,0.0100868,10,0.000613207,-2.36868,-0.381023,-0.154846,-25.7754,0.143315,
2,1,0,1,0,30705.6,0.145122,0.144824,4.23146,16,0.0102466,10,0.000612816,-2.37351,-0.237078,-0.248863,-40.9443,0.144824,
2,1,0,1,0,30705.6,0.146622,0.146355,4.16007,16,0.0104046,10,0.000608845,-2.3809,-0.181576,-0.324933,-52.578,0.146355,
2,1,0,1,0,30705.7,0.148122,0.147801,4.07828,16,0.0105596,10,0.000602773,-2.38952,-0.147291,-0.400568,-63.41,0.147801,
2,1,0,1,0,30705.7,0.149619,0.149312,3.97374,16,0.0107107,10,0.000593326,-2.4008,-0.12309,-0.479323,-73.9589,0.149312,
2,1,0,1,0,30705.8,0.151115,0.15081,3.85689,16,0.0108577,10,0.000581658,-2.41376,-0.10356,-0.569718,-85.267,0.15081,
2,1,0,1,0,30705.8,0.152615,0.152329,3.71762,16,0.0110002,10,0.0005663,-2.42973,-0.0938013,-0.628989,-91.0054,0.152329,
2,1,0,1,0,30705.8,0.154115,0.153818,3.57385,16,0.0111375,10,0.000549722,-2.44686,-0.0869684,-0.678407,-94.68,0.153818,
2,1,0,1,0,30705.9,0.155611,0.155297,3.42996,16,0.0112691,10,0.000532664,-2.46471,-0.0823223,-0.716696,-95.9696,0.155297,
2,1,0,1,0,30705.9,0.157106,0.156818,3.28592,16,0.0113954,10,0.000515292,-2.48334,-0.077706,-0.759272,-97.3487,0.156818,
2,1,0,1,0,30705.9,0.15861,0.158328,3.14941,16,0.0115169,10,0.000498641,-2.50177,-0.0786516,-0.750144,-92.1211,0.158328,
2,1,0,1,0,30706,0.160106,0.159762,3.00924,16,0.0116324,10,0.000480762,-2.52154,-0.0816768,-0.722359,-84.9315,0.159762,
2,1,0,1,0,30706,0.161602,0.161287,2.89015,16,0.0117432,10,0.000466145,-2.53908,-0.0851223,-0.69312,-78.1888,0.161287,
2,1,0,1,0,30706.1,0.163102,0.162785,2.77574,16,0.0118498,10,0.000451849,-2.55662,-0.0881587,-0.669248,-72.5905,0.162785,
2,1,0,1,0,30706.1,0.164602,0.164239,2.66752,16,0.0119525,10,0.00043811,-2.57389,-0.0929532,-0.634728,-66.3011,0.164239,
2,1,0,1,0,30706.1,0.166099,0.165777,2.57063,16,0.0120511,10,0.000426152,-2.58996,-0.101807,-0.57953,-58.5717,0.165777,
2,1,0,1,0,30706.2,0.167595,0.167227,2.4932,16,0.0121464,10,0.000416931,-2.60324,-0.115484,-0.510895,-49.9452,0.167227,
2,1,0,1,0,30706.2,0.169095,0.168766,2.42237,16,0.0122392,10,0.000408813,-2.61576,-0.123209,-0.478863,-45.3781,0.168766,
2,1,0,1,0,30706.2,0.170595,0.170275,2.35447,16,0.0123294,10,0.000400906,-2.62811,-0.129573,-0.455341,-41.9937,0.170275,
2,1,0,1,0,30706.3,0.172091,0.171778,2.29757,16,0.0124169,10,0.000394672,-2.63873,-0.141544,-0.416833,-37.4446,0.1717784,
2,1,0,1,0,30706.3,0.173586,0.173225,2.24658,16,0.0125024,10,0.000389164,-2.64848,-0.160421,-0.367783,-32.269,0.173225,
2,1,0,1,0,30706.4,0.17509,0.174756,2.19822,16,0.0125865,10,0.00038415,-2.65793,-0.18111,-0.325768,-28.0003,0.1747555,
2,1,0,1,0,30706.4,0.176586,0.17627,2.15609,16,0.0126685,10,0.000380054,-2.66633,-0.177797,-0.331838,-27.9551,0.17627,
2,1,0,1,0,30706.4,0.178083,0.177746,2.11387,16,0.012749,10,0.000375731,-2.67492,-0.201483,-0.292829,-24.2418,0.177746,
2,1,0,1,0,30706.5,0.179582,0.179253,2.08334,16,0.0128283,10,0.000373445,-2.68124,-0.217379,-0.271415,-22.1542,0.179253,
2,1,0,1,0,30706.5,0.181082,0.180804,2.05207,16,0.0129065,10,0.000371022,-2.68781,-0.268774,-0.219515,-17.6505,0.180804,
2,1,0,1,0,30706.5,0.182579,0.182294,2.03295,16,0.0129835,10,0.000370596,-2.69187,-0.26844,-0.219789,-17.4078,0.182294,
2,1,0,1,0,30706.6,0.184075,0.183741,2.01096,16,0.0130596,10,0.000369497,-2.6966,-0.290802,-0.202888,-15.8852,0.183741,
2,1,0,1,0,30706.6,0.185579,0.185274,1.98754,16,0.0131351,10,0.000368239,-2.70168,-0.324002,-0.182098,-14.1061,0.185274,
2,1,0,1,0,30706.7,0.187074,0.18674,1.966,16,0.0132095,10,0.000367131,-2.70642,-0.404965,-0.145691,-11.1592,0.1867401,
2,1,0,1,0,30706.7,0.18857,0.188231,1.94964,16,0.0132832,10,0.000366982,-2.71005,-0.378636,-0.155822,-11.8454,0.188231,
2,1,0,1,0,30706.7,0.19007,0.189759,1.92814,16,0.0133565,10,0.000365882,-2.71486,-0.410901,-0.143587,-10.8359,0.189759,
2,1,0,1,0,30706.8,0.19157,0.191267,1.91017,16,0.0134291,10,0.000365353,-2.71893,-0.479775,-0.122974,-9.20124,0.191267,
2,1,0,1,0,30706.8,0.193066,0.192723,1.90106,16,0.013501,10,0.000366379,-2.721,-0.52655,-0.11205,-8.32157,0.192723,
2,1,0,1,0,30706.8,0.194563,0.194237,1.89178,16,0.0135725,10,0.000367454,-2.72313,-0.54125,-0.109007,-8.04494,0.194237,
2,1,0,1,0,30706.9,0.196063,0.195738,1.88017,16,0.0136437,10,0.000368022,-2.7258,-0.49331,-0.1196,-8.75386,0.195738,
2,1,0,1,0,30706.9,0.197563,0.197274,1.86572,16,0.0137145,10,0.000368059,-2.72915,-0.560418,-0.105279,-7.66299,0.1972739,
2,1,0,1,0,30706.9,0.199059,0.198706,1.85671,16,0.0137847,10,0.000368938,-2.73126,-0.654459,-0.0901509,-6.53318,0.198706,
2,1,0,1,0,30707,0.200555,0.200239,1.85002,16,0.0138545,10,0.000370446,-2.73282,-0.709979,-0.0831011,-5.98982,0.200239,
2,1,0,1,0,30707,0.202059,0.201774,1.83629,16,0.0139244,10,0.000370516,-2.73606,-0.543509,-0.108554,-7.78279,0.201774,
2,1,0,1,0,30707.1,0.203554,0.20321,1.82533,16,0.0139936,10,0.000370924,-2.73866,-0.710675,-0.0830196,-5.93697,0.20321,
2,1,0,1,0,30707.1,0.20505,0.204755,1.81889,16,0.0140624,10,0.000372427,-2.74019,-1.10264,-0.0535082,-3.81911,0.204755,
2,1,0,1,0,30707.1,0.20655,0.206267,1.81686,16,0.0141312,10,0.000374759,-2.74068,-2.13892,-0.027584,-1.9548,0.206267,
2,1,0,1,0,30707.2,0.20805,0.207738,1.8131,16,0.0141999,10,0.00037665,-2.74158,-0.870246,-0.0677969,-4.77572,0.207738,
2,1,0,1,0,30707.2,0.209546,0.20923,1.80559,16,0.0142681,10,0.000377783,-2.74338,-0.817437,-0.0721768,-5.0775,0.20923,
2,1,0,1,0,30707.2,0.211043,0.210714,1.79537,16,0.0143359,10,0.000378311,-2.74585,-0.871866,-0.0676709,-4.74508,0.2107143,
2,1,0,1,0,30707.3,0.212543,0.212266,1.78809,16,0.0144037,10,0.000379551,-2.74761,-1.03836,-0.0568203,-3.97183,0.212266,
2,1,0,1,0,30707.3,0.214043,0.213706,1.78464,16,0.0144713,10,0.000381387,-2.74845,-1.16921,-0.0504615,-3.51998,0.213706,
2,1,0,1,0,30707.4,0.215539,0.215196,1.77923,16,0.0145386,10,0.000382883,-2.74977,-0.932024,-0.0633031,-4.40698,0.215196,
2,1,0,1,0,30707.4,0.217035,0.21675,1.76957,16,0.0146055,10,0.000383554,-2.75213,-1.18619,-0.0497389,-3.45086,0.21675,
2,1,0,1,0,30707.4,0.218538,0.21822,1.77009,16,0.0146726,10,0.000386269,-2.752,-2.08573,-0.0282875,-1.95174,0.21822,
2,1,0,1,0,30707.5,0.220034,0.219746,1.7701,16,0.0147393,10,0.000388971,-2.752,-2.59007,-0.0227793,-1.5669,0.219746,
2,1,0,1,0,30707.5,0.22153,0.221236,1.76192,16,0.0148059,10,0.000389801,-2.75401,-1.016,-0.058071,-3.98228,0.221236,
2,1,0,1,0,30707.5,0.22303,0.222751,1.75541,16,0.0148725,10,0.000391018,-2.75562,-1.22196,-0.0482832,-3.30685,0.222751,
2,1,0,1,0,30707.6,0.22453,0.224246,1.7538,16,0.0149388,10,0.000393284,-2.75602,-1.37721,-0.0428401,-2.93369,0.224246,
2,1,0,1,0,30707.6,0.226026,0.225737,1.74415,16,0.0150048,10,0.000393718,-2.75842,-1.60144,-0.0368418,-2.51801,0.225737,
2,1,0,1,0,30707.7,0.227523,0.227217,1.73982,16,0.0150707,10,0.000395316,-2.7595,-1.01522,-0.0581153,-3.95726,0.227217,
2,1,0,1,0,30707.7,0.229023,0.228716,1.74198,16,0.0151367,10,0.00039842,-2.75896,-1.52933,-0.038579,-2.623,0.228716,
2,1,0,1,0,30707.7,0.230523,0.230214,1.73597,16,0.0152023,10,0.000399646,-2.76046,-1.54094,-0.0382883,-2.59697,0.230214,
2,1,0,1,0,30707.8,0.232019,0.23173,1.733,16,0.0152678,10,0.000401587,-2.7612,-1.86065,-0.0317094,-2.14231,0.23173,
2,1,0,1,0,30707.8,0.233515,0.233185,1.73461,16,0.0153332,10,0.000404485,-2.7608,-1.49635,-0.0394292,-2.65937,0.233185,
2,1,0,1,0,30707.8,0.235018,0.234721,1.726,16,0.0153988,10,0.000405129,-2.76296,-2.23791,-0.0263639,-1.77366,0.234721,
2,1,0,1,0,30707.9,0.236514,0.236187,1.72353,16,0.0154638,10,0.000407076,-2.76358,-2.47118,-0.0238752,-1.60597,0.236187,
2,1,0,1,0,30707.9,0.23801,0.237709,1.72019,16,0.0155288,10,0.000408904,-2.76442,-2.02507,-0.0291348,-1.95648,0.237709,
2,1,0,1,0,30708,0.23951,0.239194,1.71798,16,0.0155938,10,0.00041093,-2.76498,-2.30151,-0.0256354,-1.71954,0.239194,
2,1,0,1,0,30708,0.24101,0.240714,1.71563,16,0.0156588,10,0.000412975,-2.76558,-1.52971,-0.0385695,-2.5833,0.240714,
2,1,0,1,0,30708,0.242506,0.242168,1.70783,16,0.0157234,10,0.00041358,-2.76756,-1.86821,-0.031581,-2.10948,0.242168,
2,1,0,1,0,30708.1,0.244003,0.2437,1.70872,16,0.0157879,10,0.000416416,-2.76733,-3.02788,-0.0194856,-1.29714,0.2437,
2,1,0,1,0,30708.1,0.245503,0.245202,1.71099,16,0.0158525,10,0.000419538,-2.76675,-2.98484,-0.0197666,-1.31453,0.245202,
2,1,0,1,0,30708.1,0.247003,0.246707,1.70669,16,0.0159171,10,0.000421051,-2.76785,-1.52624,-0.0386572,-2.56687,0.246707,
2,1,0,1,0,30708.2,0.248499,0.248217,1.69768,16,0.0159814,10,0.000421393,-2.77014,-1.99537,-0.0295685,-1.96503,0.248217,
2,1,0,1,0,30708.2,0.249995,0.249678,1.69519,16,0.0160454,10,0.000423251,-2.77078,-2.31636,-0.025471,-1.68975,0.249678,
2,1,0,1,0,30708.3,0.251498,0.251204,1.69122,16,0.0161098,10,0.00042484,-2.7718,-2.74255,-0.0215128,-1.42338,0.2512036,
2,1,0,1,0,30708.3,0.252994,0.252692,1.69403,16,0.0161737,10,0.000428067,-2.77108,-2.1694,-0.0271964,-1.79738,0.252692,
2,1,0,1,0,30708.3,0.25449,0.254156,1.69221,16,0.0162376,10,0.000430086,-2.77155,-2.61057,-0.0226005,-1.48968,0.254156,
2,1,0,1,0,30708.4,0.25599,0.25569,1.6892,16,0.0163014,10,0.000431912,-2.77232,-3.71538,-0.01588,-1.04481,0.25569,
2,1,0,1,0,30708.4,0.25749,0.257179,1.68818,16,0.0163652,10,0.000434165,-2.77258,-4.46926,-0.0132013,-0.86592,0.257179,
2,1,0,1,0,30708.4,0.258987,0.258657,1.68547,16,0.0164288,10,0.000435958,-2.77328,-1.97201,-0.0299187,-1.96318,0.258657,
2,1,0,1,0,30708.5,0.260483,0.260204,1.68067,16,0.0164923,10,0.000437317,-2.77452,-1.45926,-0.0404316,-2.65469,0.260204,
2,1,0,1,0,30708.5,0.261983,0.261658,1.67242,16,0.0165557,10,0.000437601,-2.77666,-1.80369,-0.0327107,-2.14594,0.261658,
2,1,0,1,0,30708.6,0.263483,0.263157,1.67354,16,0.0166191,10,0.000440402,-2.77636,-9.76534,-0.00604178,-0.395048,0.263157,
2,1,0,1,0,30708.6,0.264978,0.264641,1.67302,16,0.0166823,10,0.000442748,-2.7765,-3.3853,-0.0174283,-1.13793,0.264641,
2,1,0,1,0,30708.6,0.266474,0.266196,1.6724,16,0.0167454,10,0.000445188,-2.77666,-1.92587,-0.0306354,-1.99342,0.266196,
2,1,0,1,0,30708.7,0.267977,0.267642,1.66554,16,0.0168086,10,0.000445768,-2.77845,-1.47872,-0.0398993,-2.59176,0.2676422,
2,1,0,1,0,30708.7,0.269474,0.269155,1.66531,16,0.0168714,10,0.000448226,-2.7785,-4.88209,-0.012085,-0.784354,0.2691547,
2,1,0,1,0,30708.7,0.27097,0.270667,1.6662,16,0.0169342,10,0.000450983,-2.77827,-3.19746,-0.0184521,-1.19784,0.270667,
2,1,0,1,0,30708.8,0.27247,0.272157,1.65797,16,0.0169971,10,0.000451228,-2.78042,-2.33155,-0.0253051,-1.63879,0.272157,
2,1,0,1,0,30708.8,0.27397,0.273677,1.65292,16,0.0170599,10,0.000452367,-2.78175,-2.12686,-0.0277404,-1.79527,0.273677,
2,1,0,1,0,30708.9,0.275467,0.275166,1.65368,16,0.0171223,10,0.000455035,-2.78155,-1.89155,-0.0311913,-2.01777,0.275166,
2,1,0,1,0,30708.9,0.276963,0.276661,1.65226,16,0.0171847,10,0.000457115,-2.78192,-1.97315,-0.0299014,-1.92526,0.276661,
2,1,0,1,0,30708.9,0.278463,0.278168,1.64993,16,0.0172471,10,0.000458957,-2.78254,-2.28368,-0.0258354,-1.65913,0.2781682,
2,1,0,1,0,30709,0.279963,0.279658,1.6459,16,0.0173094,10,0.00046029,-2.7836,-2.35471,-0.0250561,-1.60514,0.279658,
2,1,0,1,0,30709,0.281459,0.281105,1.64491,16,0.0173714,10,0.000462392,-2.78386,-2.13412,-0.0276461,-1.77211,0.281105,
2,1,0,1,0,30709,0.282954,0.282641,1.63802,16,0.0174333,10,0.000462973,-2.78568,-3.49651,-0.016874,-1.07833,0.282641,
2,1,0,1,0,30709.1,0.284458,0.284155,1.63783,16,0.0174956,10,0.000465398,-2.78573,-2.31907,-0.0254413,-1.62578,0.284155,
2,1,0,1,0,30709.1,0.285954,0.285637,1.63299,16,0.0175573,10,0.000466442,-2.78702,-1.26666,-0.0465792,-2.97938,0.285637,
2,1,0,1,0,30709.2,0.28745,0.287151,1.62679,16,0.0176189,10,0.000467135,-2.78867,-2.08862,-0.0282483,-1.79729,0.287151,
2,1,0,1,0,30709.2,0.28895,0.288648,1.62782,16,0.0176805,10,0.000469868,-2.78839,-1.48841,-0.0396397,-2.51537,0.288648,
2,1,0,1,0,30709.2,0.29045,0.290128,1.62497,16,0.0177421,10,0.000471448,-2.78916,-1.9621,-0.0300698,-1.90253,0.290128,
2,1,0,1,0,30709.3,0.291947,0.291675,1.62177,16,0.0178034,10,0.000473029,-2.79001,-1.44929,-0.0407095,-2.56973,0.291675,
2,1,0,1,0,30709.3,0.293443,0.293135,1.61758,16,0.0178645,10,0.000474168,-2.79114,-1.33277,-0.0442686,-2.79597,0.293135,
2,1,0,1,0,30709.3,0.294943,0.294634,1.61545,16,0.0179257,10,0.000475967,-2.79171,-2.30976,-0.0255438,-1.61094,0.294634,
2,1,0,1,0,30709.4,0.296443,0.296142,1.61722,16,0.0179868,10,0.000478927,-2.79123,-2.88357,-0.0204607,-1.28755,0.296142,
2,1,0,1,0,30709.4,0.297939,0.297651,1.61118,16,0.0180477,10,0.000479569,-2.79286,-1.17486,-0.0502187,-3.15528,0.297651,
2,1,0,1,0,30709.5,0.299434,0.299171,1.60525,16,0.0181084,10,0.000480245,-2.79446,-0.0162288,-3.6355,-195.729,0.299171,
2,1,0,0,0,30709.5,0.299962,0.299708,1.53712,16,0.0181323,10,0.000460686,-2.81329,0.000956103,61.7088,1806.48,0.299708,
2,1,0,1,0,30709.5,0.298689,0.298381,0.463916,16,0.0181595,10,0.000138424,-3.33356,0.00242026,24.3775,516.831,0.298381,
2,1,0,1,0,30709.5,0.297189,0.296863,0.0127993,16,0.0181667,10,3.79965e-06,-4.89281,0.00826409,7.13932,245.257,0.296863,
2,0,0,1,0,30709.6,0.295692,0.295363,-0.196716,16,0.0181622,10,-5.81027e-05,-3.70616,-0.0088938,-6.63384,118.643,0.295363,
2,0,0,1,0,30709.6,0.294196,0.293886,-0.316956,16,0.0181517,10,-9.31488e-05,-3.499,-0.00858405,-6.87321,68.643,0.293886,
2,0,0,1,0,30709.7,0.292696,0.292404,-0.394172,16,0.0181377,10,-0.000115258,-3.40431,-0.0179419,-3.2884,47.5192,0.292404,
2,0,0,1,0,30709.7,0.291196,0.290872,-0.454269,16,0.018121,10,-0.000132134,-3.34269,-0.0269158,-2.19202,37.771,0.290872,
2,0,0,1,0,30709.7,0.2897,0.28943,-0.503579,16,0.0181024,10,-0.000145751,-3.29793,-0.0388771,-1.5176,29.3593,0.28943,
2,0,0,1,0,30709.8,0.288205,0.287876,-0.544301,16,0.0180822,10,-0.000156691,-3.26416,-0.048306,-1.22138,25.5608,0.287876,
2,0,0,1,0,30709.8,0.286701,0.286377,-0.574777,16,0.0180603,10,-0.000164603,-3.2405,-0.0578874,-1.01922,22.8251,0.2863766,
2,0,0,1,0,30709.8,0.285205,0.284896,-0.611132,16,0.0180375,10,-0.000174109,-3.21387,-0.0702926,-0.839349,19.8863,0.284896,
2,0,0,1,0,30709.9,0.283708,0.283378,-0.639494,16,0.0180135,10,-0.000181219,-3.19416,-0.0802793,-0.734934,18.209,0.283378,
2,0,0,1,0,30709.9,0.282208,0.281908,-0.664399,16,0.0179883,10,-0.000187299,-3.17757,-0.0903291,-0.653167,16.8387,0.281908,
2,0,0,1,0,30710,0.280709,0.280361,-0.686128,16,0.0179623,10,-0.000192363,-3.16359,-0.113642,-0.519175,13.9546,0.280361,
2,0,0,1,0,30710,0.279212,0.278911,-0.708178,16,0.0179355,10,-0.000197518,-3.14986,-0.108761,-0.542472,15.0702,0.278911,
2,0,0,1,0,30710,0.277716,0.277421,-0.730863,16,0.0179079,10,-0.000202756,-3.13616,-0.121553,-0.485386,13.8451,0.277421,
2,0,0,1,0,30710.1,0.276216,0.275898,-0.754328,16,0.0178795,10,-0.000208118,-3.12244,-0.126901,-0.464931,13.6038,0.275898,
2,0,0,1,0,30710.1,0.274716,0.274424,-0.773232,16,0.0178503,10,-0.000212193,-3.11169,-0.161994,-0.364212,10.9196,0.274424,
2,0,0,1,0,30710.1,0.27322,0.272914,-0.788619,16,0.0178206,10,-0.000215225,-3.10313,-0.15576,-0.378788,11.6005,0.272914,
2,0,0,1,0,30710.2,0.271725,0.271437,-0.807347,16,0.0177902,10,-0.000219143,-3.09294,-0.134246,-0.439492,13.7162,0.271437,
2,0,0,1,0,30710.2,0.270221,0.269881,-0.821545,16,0.0177589,10,-0.00022172,-3.08537,-0.159501,-0.369905,11.8711,0.2698814,
2,0,0,1,0,30710.3,0.268725,0.268407,-0.835122,16,0.0177272,10,-0.000224153,-3.07825,-0.215795,-0.273407,8.9373,0.268407,
2,0,0,1,0,30710.3,0.267228,0.266929,-0.84981,16,0.017695,10,-0.000226839,-3.07068,-0.205262,-0.287438,9.59029,0.266929,
2,0,0,1,0,30710.3,0.265728,0.26539,-0.864207,16,0.0176622,10,-0.000229352,-3.06338,-0.228329,-0.258399,8.76108,0.2653904,
2,0,0,1,0,30710.4,0.264228,0.263948,-0.880676,16,0.0176288,10,-0.000232452,-3.05518,-0.224945,-0.262286,8.99481,0.263948,
2,0,0,1,0,30710.4,0.262732,0.262397,-0.89569,16,0.017595,10,-0.000235026,-3.04784,-0.260188,-0.226759,7.87708,0.262397,
2,0,0,1,0,30710.4,0.261236,0.260926,-0.905729,16,0.0175607,10,-0.000236328,-3.043,-0.227591,-0.259237,9.1432,0.260926,
2,0,0,1,0,30710.5,0.259736,0.259449,-0.919661,16,0.0175259,10,-0.000238605,-3.03637,-0.289943,-0.203489,7.3017,0.259449,
2,0,0,1,0,30710.5,0.258236,0.25794,-0.931522,16,0.0174906,10,-0.000240277,-3.03081,-0.227088,-0.259811,9.44599,0.25794,
2,0,0,1,0,30710.6,0.256741,0.256407,-0.942815,16,0.0174548,10,-0.000241744,-3.02557,-0.290815,-0.202878,7.48738,0.256407,
2,0,0,1,0,30710.6,0.255241,0.254897,-0.953377,16,0.0174185,10,-0.000243013,-3.02074,-0.298928,-0.197372,7.37945,0.2548967,
2,0,0,1,0,30710.6,0.253741,0.253384,-0.969451,16,0.0173819,10,-0.000245643,-3.01347,-0.327557,-0.180121,6.81376,0.253384,
2,0,0,1,0,30710.7,0.252245,0.251926,-0.980692,16,0.0173448,10,-0.000247061,-3.00847,-0.268114,-0.220055,8.39739,0.2519255,
2,0,0,1,0,30710.7,0.250748,0.250396,-0.993262,16,0.0173074,10,-0.000248709,-3.00294,-0.294158,-0.200573,7.72451,0.250396,
2,0,0,1,0,30710.7,0.249248,0.248983,-1.00441,16,0.0172694,10,-0.00025008,-2.99809,-0.36326,-0.162418,6.32159,0.248983,
2,0,0,1,0,30710.8,0.247748,0.247475,-1.01001,16,0.0172311,10,-0.000249952,-2.99567,-0.383149,-0.153987,6.06691,0.247475,
2,0,0,1,0,30710.8,0.246252,0.245919,-1.02241,16,0.0171924,10,-0.000251429,-2.99038,-0.291334,-0.202517,8.06756,0.245919,
2,0,0,1,0,30710.9,0.244756,0.244435,-1.03357,16,0.0171534,10,-0.00025264,-2.98566,-0.311171,-0.189606,7.66275,0.244435,
2,0,0,1,0,30710.9,0.243252,0.242883,-1.04044,16,0.0171136,10,-0.000252705,-2.98278,-0.430685,-0.136991,5.58576,0.242883,
2,0,0,1,0,30710.9,0.241756,0.241438,-1.04912,16,0.0170738,10,-0.000253298,-2.97918,-0.425414,-0.138688,5.69761,0.241438,
2,0,0,1,0,30711,0.240261,0.239953,-1.06071,16,0.0170336,10,-0.00025452,-2.9744,-0.358767,-0.164452,6.82903,0.239953,
2,0,0,1,0,30711,0.238761,0.238474,-1.07497,16,0.0169929,10,-0.000256351,-2.96861,-0.368722,-0.160012,6.66977,0.238474,
2,0,0,1,0,30711,0.237261,0.23691,-1.08229,16,0.0169518,10,-0.000256406,-2.96566,-0.44284,-0.133231,5.60855,0.23691,
2,0,0,1,0,30711.1,0.235765,0.235457,-1.09063,16,0.0169105,10,-0.000256797,-2.96232,-0.466387,-0.126504,5.39598,0.235457,
2,0,0,1,0,30711.1,0.234268,0.233974,-1.09872,16,0.0168689,10,-0.000257071,-2.95911,-0.376357,-0.156766,6.75533,0.233974,
2,0,0,1,0,30711.2,0.232768,0.232441,-1.10667,16,0.0168267,10,-0.000257236,-2.95598,-0.355905,-0.165775,7.20058,0.232441,
2,0,0,1,0,30711.2,0.231268,0.230952,-1.11632,16,0.0167842,10,-0.000257816,-2.95221,-0.508712,-0.115979,5.0849,0.230952,
2,0,0,1,0,30711.2,0.229772,0.229476,-1.13135,16,0.0167414,10,-0.000259618,-2.9464,-0.463831,-0.127202,5.61339,0.229476,
2,0,0,1,0,30711.3,0.228275,0.227981,-1.13969,16,0.0166984,10,-0.000259827,-2.94321,-0.40563,-0.145453,6.46247,0.227981,
2,0,0,1,0,30711.3,0.226772,0.226477,-1.15445,16,0.0166548,10,-0.000261455,-2.93763,-0.382363,-0.154304,6.88746,0.226477,
2,0,0,1,0,30711.3,0.225276,0.224975,-1.16042,16,0.016611,10,-0.000261065,-2.93539,-0.44867,-0.1315,5.9252,0.224975,
2,0,0,1,0,30711.4,0.223781,0.223461,-1.16665,16,0.0165669,10,-0.000260702,-2.93306,-0.473941,-0.124488,5.65941,0.223461,
2,0,0,1,0,30711.4,0.222281,0.221972,-1.17282,16,0.0165224,10,-0.000260333,-2.93077,-0.510186,-0.115644,5.30953,0.221972,
2,0,0,1,0,30711.5,0.220781,0.220457,-1.17867,16,0.0164776,10,-0.000259846,-2.92861,-0.388811,-0.151745,7.01761,0.220457,
2,0,0,1,0,30711.5,0.219284,0.218962,-1.19442,16,0.0164325,10,-0.000261532,-2.92284,-0.385797,-0.15293,7.13205,0.2189617,
2,0,0,1,0,30711.5,0.217788,0.21747,-1.20379,16,0.0163869,10,-0.00026179,-2.91945,-0.420287,-0.14038,6.58448,0.21747,
2,0,0,1,0,30711.6,0.216288,0.215985,-1.21017,16,0.016341,10,-0.000261379,-2.91715,-0.454615,-0.12978,6.13314,0.215985,
2,0,0,1,0,30711.6,0.214788,0.214478,-1.22103,16,0.0162948,10,-0.000261885,-2.91327,-0.595647,-0.099052,4.71334,0.2144784,
2,0,0,1,0,30711.6,0.213292,0.212945,-1.23356,16,0.0162483,10,-0.000262681,-2.90884,-0.367461,-0.160561,7.69611,0.212945,
2,0,0,1,0,30711.7,0.211796,0.211461,-1.2409,16,0.0162015,10,-0.000262402,-2.90626,-0.595966,-0.0989989,4.77658,0.211461,
2,0,0,1,0,30711.7,0.210293,0.209981,-1.24622,16,0.0161541,10,-0.000261683,-2.9044,-0.487292,-0.121077,5.90358,0.209981,
2,0,0,1,0,30711.8,0.208797,0.208498,-1.25245,16,0.0161067,10,-0.000261134,-2.90224,-0.437265,-0.13493,6.64829,0.208498,
2,0,0,1,0,30711.8,0.207301,0.206988,-1.26176,16,0.0160589,10,-0.00026117,-2.89902,-0.42881,-0.13759,6.80594,0.206988,
2,0,0,1,0,30711.8,0.205801,0.205481,-1.28012,16,0.0160104,10,-0.000263039,-2.89275,-0.469005,-0.125798,6.25986,0.205481,
2,0,0,1,0,30711.9,0.204301,0.203924,-1.28881,16,0.0159617,10,-0.00026282,-2.88981,-0.680415,-0.0867118,4.34856,0.203924,
2,0,0,1,0,30711.9,0.202804,0.202487,-1.29459,16,0.0159129,10,-0.000262139,-2.88787,-0.559864,-0.105383,5.31647,0.2024873,
2,0,0,1,0,30711.9,0.201308,0.200979,-1.30432,16,0.0158637,10,-0.000262141,-2.88462,-0.431183,-0.136833,6.93861,0.2009789,
2,0,0,1,0,30712,0.199808,0.199467,-1.31094,16,0.015814,10,-0.000261489,-2.88242,-0.439651,-0.134198,6.87919,0.199467,
2,0,0,1,0,30712,0.198308,0.198008,-1.31666,16,0.0157639,10,-0.000260709,-2.88053,-0.520746,-0.113299,5.85352,0.198008,
2,0,0,1,0,30712.1,0.196812,0.196517,-1.33129,16,0.0157136,10,-0.000261621,-2.87573,-0.458057,-0.128805,6.71683,0.196517,
2,0,0,1,0,30712.1,0.195316,0.194964,-1.33999,16,0.015663,10,-0.000261249,-2.8729,-0.385794,-0.152932,8.01782,0.194964,
2,0,0,1,0,30712.1,0.193813,0.193474,-1.35655,16,0.0156117,10,-0.000262456,-2.86757,-0.43521,-0.135567,7.16468,0.193474,
2,0,0,1,0,30712.2,0.192317,0.191946,-1.36578,16,0.0155602,10,-0.000262157,-2.86462,-0.509733,-0.115747,6.14263,0.191946,
2,0,0,1,0,30712.2,0.190821,0.190504,-1.37198,16,0.0155084,10,-0.000261367,-2.86265,-0.454827,-0.12972,6.94693,0.190504,
2,0,0,1,0,30712.2,0.189321,0.188988,-1.38546,16,0.0154561,10,-0.000261835,-2.85841,-0.394122,-0.1497,8.07963,0.188988,
2,0,0,1,0,30712.3,0.187821,0.187505,-1.39367,16,0.0154033,10,-0.000261321,-2.85584,-0.397312,-0.148498,8.08286,0.187505,
2,0,0,1,0,30712.3,0.186324,0.186015,-1.40341,16,0.0153503,10,-0.000261056,-2.85281,-0.508418,-0.116046,6.37332,0.186015,
2,0,0,1,0,30712.4,0.184828,0.184543,-1.41682,16,0.0152968,10,-0.000261465,-2.84868,-0.509612,-0.115774,6.42129,0.184543,
2,0,0,1,0,30712.4,0.183328,0.182998,-1.42816,16,0.0152428,10,-0.00026135,-2.84522,-0.369421,-0.159709,8.94522,0.182998,
2,0,0,1,0,30712.4,0.181828,0.181478,-1.4461,16,0.0151883,10,-0.000262437,-2.8398,-0.406491,-0.145145,8.16462,0.181478,
2,0,0,1,0,30712.5,0.180332,0.18001,-1.45985,16,0.0151334,10,-0.000262789,-2.83569,-0.407136,-0.144915,8.21581,0.18001,
2,0,0,1,0,30712.5,0.178836,0.178506,-1.47467,16,0.015078,10,-0.000263238,-2.83131,-0.376572,-0.156677,8.96463,0.178506,
2,0,0,1,0,30712.5,0.177333,0.176989,-1.47931,16,0.0150219,10,-0.00026182,-2.82994,-0.328501,-0.179604,10.3973,0.176989,
2,0,0,1,0,30712.6,0.175837,0.175515,-1.49502,16,0.0149656,10,-0.000262399,-2.82535,-0.343038,-0.171993,10.0564,0.175515,
2,0,0,1,0,30712.6,0.174341,0.174013,-1.50975,16,0.0149086,10,-0.000262716,-2.82109,-0.288307,-0.204643,12.1074,0.174013,
2,0,0,1,0,30712.7,0.172841,0.172498,-1.52589,16,0.0148509,10,-0.000263213,-2.81648,-0.356051,-0.165707,9.90871,0.1724976,
2,0,0,1,0,30712.7,0.171341,0.171,-1.53857,16,0.0147926,10,-0.000263096,-2.81288,-0.314887,-0.187369,11.332,0.1709999,
2,0,0,1,0,30712.7,0.169844,0.169517,-1.56668,16,0.0147338,10,-0.000265578,-2.80502,-0.318951,-0.184981,11.3123,0.169517,
2,0,0,1,0,30712.8,0.168348,0.168057,-1.58805,16,0.0146743,10,-0.000266883,-2.79914,-0.263619,-0.223808,13.8111,0.168057,
2,0,0,1,0,30712.8,0.166848,0.166543,-1.60995,16,0.0146138,10,-0.000268126,-2.79319,-0.259035,-0.227769,14.2206,0.166543,
2,0,0,1,0,30712.8,0.165348,0.164995,-1.62825,16,0.0145526,10,-0.000268653,-2.78828,-0.266755,-0.221177,14.0411,0.164995,
2,0,0,1,0,30712.9,0.163852,0.163526,-1.64753,16,0.0144908,10,-0.000269414,-2.78317,-0.232736,-0.253506,16.3388,0.163526,
2,0,0,1,0,30712.9,0.162357,0.16201,-1.67122,16,0.014428,10,-0.000270753,-2.77697,-0.203722,-0.289611,18.9745,0.16201,
2,0,0,1,0,30713,0.160853,0.160513,-1.70198,16,0.0143638,10,-0.000273189,-2.76905,-0.207845,-0.283866,18.8896,0.160513,
2,0,0,1,0,30713,0.159357,0.159021,-1.73329,16,0.0142989,10,-0.00027563,-2.76113,-0.204753,-0.288153,19.4896,0.159021,
2,0,0,1,0,30713,0.157861,0.157538,-1.7625,16,0.014233,10,-0.000277661,-2.75387,-0.188384,-0.313191,21.5876,0.157538,
2,0,0,1,0,30713.1,0.156361,0.156041,-1.80078,16,0.0141656,10,-0.000280994,-2.74454,-0.157436,-0.374757,26.3194,0.156041,
2,0,0,1,0,30713.1,0.154861,0.154538,-1.84151,16,0.0140966,10,-0.000284583,-2.73483,-0.15288,-0.385923,27.6619,0.154538,
2,0,0,1,0,30713.1,0.153364,0.15306,-1.88133,16,0.0140264,10,-0.000287956,-2.72554,-0.151734,-0.388838,28.6132,0.15306,
2,0,0,1,0,30713.2,0.151868,0.151524,-1.92255,16,0.0139546,10,-0.000291311,-2.71612,-0.137381,-0.429463,32.3839,0.1515235,
2,0,0,1,0,30713.2,0.150368,0.150047,-1.97751,16,0.0138808,10,-0.00029672,-2.70388,-0.12062,-0.489141,37.8597,0.150047,
2,0,0,1,0,30713.3,0.148868,0.148505,-2.03326,16,0.013805,10,-0.000301949,-2.69181,-0.114761,-0.51411,40.9761,0.148505,
2,0,0,1,0,30713.3,0.147372,0.147039,-2.09992,16,0.013727,10,-0.000308772,-2.6778,-0.107363,-0.549535,45.1206,0.1470395,
2,0,0,1,0,30713.3,0.145877,0.14559,-2.16845,16,0.0136465,10,-0.000315704,-2.66385,-0.103959,-0.567531,48.1161,0.14559,
2,0,0,1,0,30713.4,0.144373,0.144068,-2.2468,16,0.0135628,10,-0.000323692,-2.64843,-0.0926029,-0.637129,56.0058,0.144068,
2,0,0,1,0,30713.4,0.142877,0.142589,-2.33523,16,0.0134765,10,-0.000332978,-2.63167,-0.0884524,-0.667025,60.7847,0.142589,
2,0,0,1,0,30713.4,0.14138,0.141034,-2.43017,16,0.0133867,10,-0.000342736,-2.61436,-0.0883568,-0.667747,63.2489,0.141034,
2,0,0,1,0,30713.5,0.13988,0.139566,-2.52404,16,0.0132932,10,-0.00035227,-2.5979,-0.086388,-0.682965,67.4941,0.1395658,
2,0,0,1,0,30713.5,0.13838,0.138051,-2.62685,16,0.0131959,10,-0.000362639,-2.58056,-0.0853846,-0.690991,71.1001,0.138051,
2,0,0,1,0,30713.6,0.136884,0.136547,-2.73878,16,0.0130948,10,-0.000373972,-2.56244,-0.0858075,-0.687585,73.5798,0.136547,
2,0,0,1,0,30713.6,0.135388,0.135032,-2.85464,16,0.0129895,10,-0.000385467,-2.54445,-0.0858074,-0.687586,76.5492,0.135032,
2,0,0,1,0,30713.6,0.133888,0.133576,-2.97385,16,0.0128796,10,-0.000397234,-2.52668,-0.0904426,-0.652347,75.56,0.133576,
2,0,0,1,0,30713.7,0.132389,0.132033,-3.08922,16,0.0127655,10,-0.000407878,-2.51015,-0.0915343,-0.644567,77.4876,0.132033,
2,0,0,1,0,30713.7,0.130893,0.130551,-3.20255,16,0.0126473,10,-0.000418095,-2.4945,-0.0958623,-0.615466,76.7106,0.130551,
2,0,0,1,0,30713.7,0.129393,0.129071,-3.31572,16,0.0125243,10,-0.000427965,-2.47942,-0.101456,-0.581535,75.1287,0.129071,
2,0,0,1,0,30713.8,0.127893,0.127557,-3.42009,16,0.0123972,10,-0.000436256,-2.46596,-0.110959,-0.53173,71.0411,0.1275568,
2,0,0,1,0,30713.8,0.126397,0.126097,-3.52609,16,0.0122665,10,-0.000444629,-2.45271,-0.114237,-0.51647,71.0681,0.126097,
2,0,0,1,0,30713.9,0.1249,0.124552,-3.63083,16,0.0121318,10,-0.000452226,-2.43999,-0.125375,-0.470589,66.6972,0.124552,
2,0,0,1,0,30713.9,0.1234,0.123049,-3.73454,16,0.011993,10,-0.000459529,-2.42776,-0.134912,-0.437322,63.5334,0.123049,
2,0,0,1,0,30713.9,0.1219,0.121556,-3.82387,16,0.0118506,10,-0.000464814,-2.4175,-0.155677,-0.378989,56.372,0.121556,
2,0,0,1,0,30714,0.120404,0.12008,-3.90454,16,0.0117055,10,-0.000468856,-2.40843,-0.168058,-0.351069,53.3986,0.12008,
2,0,0,1,0,30714,0.118908,0.118617,-3.98152,16,0.0115574,10,-0.000472276,-2.39995,-0.182158,-0.323895,50.2669,0.118617,
2,0,0,1,0,30714,0.117404,0.11708,-4.05503,16,0.0114056,10,-0.000474764,-2.39201,-0.203168,-0.2904,45.8757,0.11708,
2,0,0,1,0,30714.1,0.115909,0.115589,-4.11808,16,0.011252,10,-0.000476003,-2.38531,-0.237857,-0.248048,39.7698,0.115589,
2,0,0,1,0,30714.1,0.114413,0.114056,-4.1733,16,0.0110962,10,-0.000475989,-2.37952,-0.274476,-0.214955,34.9969,0.114056,
2,0,0,1,0,30714.2,0.112913,0.112563,-4.21999,16,0.0109381,10,-0.000475016,-2.37469,-0.313037,-0.188476,31.0315,0.112563,
2,0,0,1,0,30714.2,0.111413,0.111067,-4.26702,16,0.0107783,10,-0.000473924,-2.36988,-0.393027,-0.150117,24.9424,0.111067,
2,0,0,1,0,30714.2,0.109917,0.109573,-4.30453,16,0.0106174,10,-0.00047166,-2.36607,-0.465294,-0.126802,21.226,0.109573,
2,0,0,1,0,30714.3,0.10842,0.108139,-4.33017,16,0.0104554,10,-0.000468258,-2.3635,-0.695594,-0.0848196,14.2824,0.108139,
2,0,0,1,0,30714.3,0.10692,0.106559,-4.34097,16,0.0102922,10,-0.00046257,-2.36241,-0.996438,-0.0592109,10.0121,0.106559,
2,0,0,1,0,30714.3,0.10542,0.105085,-4.35286,16,0.0101286,10,-0.000457419,-2.36123,-1.68282,-0.0350602,5.94918,0.105085,
2,0,0,1,0,30714.4,0.103924,0.103582,-4.357,16,0.00996493,10,-0.000451307,-2.36081,-9.01438,-0.0065451,1.11216,0.103582,
2,0,0,1,0,30714.4,0.102427,0.10209,-4.35718,16,0.00980122,10,-0.000444824,-2.36079,2.00844,0.029376,-4.98838,0.1020899,
2,0,0,1,0,30714.4,0.100924,0.100588,-4.33953,16,0.009637,10,-0.000436503,-2.36256,1.17927,0.0500311,-8.47832,0.1005878,
2,0,0,1,0,30714.5,0.0994284,0.0991634,-4.32732,16,0.00947421,10,-0.000429112,-2.36378,0.790243,0.0746606,-12.5959,0.0991634,
2,0,0,1,0,30714.5,0.0979329,0.0976202,-4.31171,16,0.00931205,10,-0.000420911,-2.36535,0.660687,0.089301,-14.991,0.0976202,
2,0,0,1,0,30714.6,0.0964329,0.0961055,-4.28778,16,0.00915032,10,-0.000412079,-2.36777,0.49973,0.118064,-19.6889,0.0961055,
2,0,0,1,0,30714.6,0.094933,0.0946763,-4.24984,16,0.00898964,10,-0.00040236,-2.37163,0.452565,0.130368,-21.608,0.0946763,
2,0,0,1,0,30714.6,0.0934366,0.0931453,-4.21402,16,0.00883071,10,-0.000392516,-2.3753,0.436054,0.135304,-22.2846,0.0931453,
2,0,0,1,0,30714.7,0.0919401,0.0916288,-4.17926,16,0.00867295,10,-0.000382941,-2.3789,0.449139,0.131362,-21.4633,0.09162885,
2,0,0,1,0,30714.7,0.0904402,0.0900896,-4.14532,16,0.00851595,10,-0.00037345,-2.38244,0.388653,0.151806,-24.6034,0.0900896,
2,0,0,1,0,30714.7,0.0889402,0.0886502,-4.11586,16,0.00836024,10,-0.000364872,-2.38554,0.383139,0.153991,-24.7475,0.0886502,
2,0,0,1,0,30714.8,0.0874438,0.087104,-4.07826,16,0.00820643,10,-0.000355233,-2.38953,0.410807,0.14362,-22.8788,0.087104,
2,0,0,1,0,30714.8,0.0859483,0.0855928,-4.05288,16,0.00805384,10,-0.000346898,-2.39224,0.444589,0.132707,-20.9464,0.0855928,
2,0,0,1,0,30714.9,0.0844447,0.0841219,-4.02207,16,0.00790154,10,-0.000338344,-2.39555,0.446969,0.132,-20.6881,0.08412192,
2,0,0,1,0,30714.9,0.0829492,0.0826231,-3.98923,16,0.00775127,10,-0.000329603,-2.39911,0.452013,0.130527,-20.3073,0.08262305,
2,0,0,1,0,30714.9,0.0814528,0.0811209,-3.95567,16,0.00760212,10,-0.000320888,-2.40278,0.48928,0.120585,-18.634,0.0811209,
2,0,0,1,0,30715,0.0799528,0.0796477,-3.9257,16,0.00745363,10,-0.000312673,-2.40608,0.561111,0.105148,-16.1447,0.07964769,
2,0,0,1,0,30715,0.0784529,0.0780961,-3.90351,16,0.00730602,10,-0.000304849,-2.40854,0.604717,0.0975662,-14.897,0.0780961,
2,0,0,1,0,30715,0.0769565,0.0766438,-3.88299,16,0.00715963,10,-0.000297607,-2.41083,0.535958,0.110083,-16.6853,0.07664378,
2,0,0,1,0,30715.1,0.0754601,0.0751055,-3.85977,16,0.00701412,10,-0.00028989,-2.41344,0.576271,0.102382,-15.4342,0.07510554,
2,0,0,1,0,30715.1,0.0739601,0.073627,-3.84363,16,0.00686913,10,-0.000282995,-2.41526,0.651582,0.0905488,-13.5702,0.073627,
2,0,0,1,0,30715.2,0.0724601,0.0721153,-3.82483,16,0.00672485,10,-0.000275828,-2.41739,0.700197,0.084262,-12.556,0.0721153,
2,0,0,1,0,30715.2,0.0709637,0.0705921,-3.80309,16,0.00658164,10,-0.000268468,-2.41986,0.638805,0.09236,-13.6865,0.0705921,
2,0,0,1,0,30715.2,0.0694682,0.0691356,-3.77794,16,0.00643921,10,-0.00026119,-2.42275,0.569292,0.103637,-15.296,0.0691356,
2,0,0,1,0,30715.3,0.0679646,0.0676092,-3.75594,16,0.00629687,10,-0.000253936,-2.42528,0.700263,0.0842541,-12.3855,0.0676092,
2,0,0,1,0,30715.3,0.0664691,0.0660982,-3.73773,16,0.00615598,10,-0.000247057,-2.42739,0.706396,0.0835226,-12.2076,0.0660982,
2,0,0,1,0,30715.3,0.0649727,0.0646227,-3.72563,16,0.00601566,10,-0.00024076,-2.4288,0.629258,0.0937613,-13.6137,0.0646227,
2,0,0,1,0,30715.4,0.0634727,0.0631653,-3.70032,16,0.00587574,10,-0.000233732,-2.43176,0.621247,0.0949703,-13.714,0.0631653,
2,0,0,1,0,30715.4,0.0619728,0.0617115,-3.68299,16,0.00573674,10,-0.000227283,-2.4338,0.619542,0.0952316,-13.6704,0.0617115,
2,0,0,1,0,30715.5,0.0604764,0.0601128,-3.66486,16,0.00559879,10,-0.000220305,-2.43594,0.678427,0.0869658,-12.4116,0.0601128,
2,0,0,1,0,30715.5,0.05898,0.0586674,-3.64257,16,0.00546156,10,-0.0002137,-2.43859,0.586309,0.100629,-14.3019,0.05866744,
2,0,0,1,0,30715.5,0.05748,0.0571365,-3.61874,16,0.00532472,10,-0.000206762,-2.44144,0.562823,0.104829,-14.8154,0.0571365,
2,0,0,1,0,30715.6,0.05598,0.0556626,-3.59643,16,0.00518875,10,-0.000200187,-2.44413,0.588693,0.100222,-14.0887,0.0556626,
2,0,0,1,0,30715.6,0.0544836,0.0541529,-3.57702,16,0.00505395,10,-0.000193706,-2.44648,0.717654,0.0822123,-11.4903,0.0541529,
2,0,0,1,0,30715.6,0.0529881,0.0526493,-3.55862,16,0.00491981,10,-0.000187359,-2.44872,0.631607,0.0934126,-12.977,0.0526493,
2,0,0,1,0,30715.7,0.0514846,0.0511479,-3.53714,16,0.00478569,10,-0.000180917,-2.45135,0.545508,0.108156,-14.9166,0.0511479,
2,0,0,1,0,30715.7,0.049989,0.0496429,-3.51373,16,0.00465318,10,-0.000174432,-2.45423,0.514893,0.114587,-15.7056,0.0496429,
2,0,0,1,0,30715.8,0.0484926,0.0481536,-3.49322,16,0.0045216,10,-0.000168211,-2.45677,0.531722,0.11096,-15.0965,0.0481536,
2,0,0,1,0,30715.8,0.0469927,0.0466581,-3.46885,16,0.00439045,10,-0.00016185,-2.45981,0.556005,0.106114,-14.3561,0.0466581,
2,0,0,1,0,30715.8,0.0454927,0.0451172,-3.44602,16,0.00426013,10,-0.000155475,-2.46268,0.491753,0.119979,-16.1271,0.0451172,
2,0,0,1,0,30715.9,0.0439963,0.0436513,-3.41939,16,0.00413102,10,-0.000149261,-2.46605,0.478095,0.123406,-16.4953,0.0436513,
2,0,0,1,0,30715.9,0.0424999,0.042168,-3.39337,16,0.00400291,10,-0.000143092,-2.46937,0.54082,0.109094,-14.495,0.042168,
2,0,0,1,0,30715.9,0.0409999,0.0406546,-3.3742,16,0.00387529,10,-0.000137177,-2.47183,0.481701,0.122483,-16.1371,0.0406546,
2,0,0,1,0,30716,0.0394999,0.0391212,-3.35429,16,0.00374844,10,-0.000131224,-2.4744,0.474952,0.124223,-16.2285,0.0391212,
2,0,0,1,0,30716,0.0380044,0.0376479,-3.33078,16,0.0036229,10,-0.000125397,-2.47745,0.433907,0.135974,-17.6304,0.0376479,
2,0,0,1,0,30716.1,0.0365089,0.0361747,-3.30488,16,0.00349839,10,-0.000119553,-2.48084,0.447246,0.131919,-16.9751,0.0361747,
2,0,0,1,0,30716.1,0.0350054,0.034667,-3.27225,16,0.0033742,10,-0.000113439,-2.48515,0.434121,0.135907,-17.3483,0.034667,
2,0,0,1,0,30716.1,0.033509,0.0331559,-3.24585,16,0.00325161,10,-0.000107619,-2.48867,0.469002,0.125799,-15.9382,0.0331559,
2,0,0,1,0,30716.2,0.0320125,0.0316988,-3.21819,16,0.00313003,10,-0.000102013,-2.49239,0.407382,0.144827,-18.2038,0.0316988,
2,0,0,1,0,30716.2,0.0305126,0.0302335,-3.18638,16,0.00300921,10,-9.63354e-05,-2.4967,0.407104,0.144926,-18.0742,0.0302335,
2,0,0,1,0,30716.2,0.0290126,0.0286917,-3.16179,16,0.00288943,10,-9.07169e-05,-2.50007,0.430878,0.13693,-16.9124,0.0286917,
2,0,0,1,0,30716.3,0.0275162,0.0272112,-3.14331,16,0.0027709,10,-8.55333e-05,-2.50261,0.403633,0.146172,-17.8894,0.0272112,
2,0,0,1,0,30716.3,0.0260198,0.0257011,-3.11288,16,0.00265334,10,-8.00045e-05,-2.50684,0.356508,0.165494,-20.0798,0.0257011,
2,0,0,1,0,30716.4,0.0245198,0.0242263,-3.08285,16,0.00253653,10,-7.46862e-05,-2.51105,0.38333,0.153914,-18.5078,0.0242263,
2,0,0,1,0,30716.4,0.0230198,0.0227112,-3.0601,16,0.00242079,10,-6.94985e-05,-2.51426,0.412187,0.143139,-17.0861,0.0227112,
2,0,0,1,0,30716.4,0.0215243,0.0211552,-3.03183,16,0.00230626,10,-6.4139e-05,-2.5183,0.42965,0.137321,-16.2536,0.0211552,
2,0,0,1,0,30716.5,0.0200288,0.0196714,-3.00637,16,0.0021926,10,-5.91394e-05,-2.52196,0.409536,0.144065,-16.9261,0.0196714,
2,0,0,1,0,30716.5,0.0185253,0.0181969,-2.98096,16,0.00207928,10,-5.42442e-05,-2.52564,0.441808,0.133542,-15.566,0.0181969,
2,0,0,1,0,30716.5,0.0170289,0.0166518,-2.96156,16,0.00196751,10,-4.93154e-05,-2.52848,0.494282,0.119365,-13.8076,0.0166518,
2,0,0,1,0,30716.6,0.0155325,0.0152348,-2.9409,16,0.00185653,10,-4.4804e-05,-2.53152,0.495447,0.119084,-13.651,0.0152348,
2,0,0,1,0,30716.6,0.0140325,0.0136707,-2.92659,16,0.00174593,10,-4.00085e-05,-2.53364,0.547889,0.107686,-12.2538,0.0136707,
2,0,0,1,0,30716.7,0.0125325,0.0122041,-2.90123,16,0.00163608,10,-3.5407e-05,-2.53742,0.467627,0.126169,-14.2776,0.0122041,
2,0,0,1,0,30716.7,0.0110361,0.0106826,-2.87959,16,0.00152739,10,-3.07615e-05,-2.54067,0.502293,0.117461,-13.2214,0.0106826,
2,0,0,1,0,30716.7,0.0095397,0.0092243,-2.86085,16,0.00141933,10,-2.63894e-05,-2.5435,0.727478,0.0811021,-9.07263,0.0092243,
2,0,0,1,0,30716.8,0.00803616,0.00767124,-2.84606,16,0.00131123,10,-2.18328e-05,-2.54576,0.800691,0.0736864,-8.20593,0.00767124,
2,0,0,1,0,30716.8,0.00654064,0.00623611,-2.83246,16,0.00120426,10,-1.76635e-05,-2.54784,0.70313,0.0839105,-9.29735,0.00623611,
2,0,0,1,0,30716.8,0.00504513,0.00468476,-2.8198,16,0.00109783,10,-1.32101e-05,-2.54978,0.835006,0.0706582,-7.78925,0.004684756,
2,0,0,1,0,30716.9,0.00354515,0.00323881,-2.81348,16,0.000991581,10,-9.11234e-06,-2.55076,659.123,8.95128e-05,-0.00986371,0.00323881,
2,0,0,1,0,30716.9,0.00204518,0.00167356,-2.83976,16,0.000885366,10,-4.75252e-06,-2.54672,1.65086,0.0357389,-3.91474,0.00167356,
2,0,0,1,0,30717,0.000548773,0.000189182,-2.81325,16,0.000779175,10,-5.32217e-07,-2.55079, , , ,0.000189182,
2,0,0,1,0,30717,0.000177222,-0.000209654,-2.79905,16,0.000752883,10,5.86832e-07,-2.55299, , , ,-0.000209654,