File: Figure_codes/Fig_3-5/rawdata_trumpetplot_data/after 10th/20221101_1-115_003_TrumpetPlot_ParaChange_from10_every3_02_CV_C01_11.csv
mode,ox/red,error,control changes,counter inc.,time/s,control/V,Ewe/V,<I>/mA,cycle number,(Q-Qo)/C,I Range,P/W,log(|I|),Tafel slope mV/dec,alpha_eff,dI/d(E-IR),E-IR/V,
2,0,0,1,0,22011.5,2.44065e-05,-0.000325324,-0.356987,12,0.0000000E+000,10,1.16136e-07,-3.44735, , , ,-0.000325324,
2,0,0,1,0,22012.7,0.00129791,0.000936622,-0.173881,12,-0.00024992,10,-1.62861e-07,-3.75975, , , ,0.000936622,
2,0,0,1,0,22014.2,0.00279612,0.00250603,-0.139635,12,-0.00045958,10,-3.49928e-07,-3.85501,-0.0182191,-3.23836,18.9779,0.00250603,
2,0,0,1,0,22015.7,0.00429431,0.00394493,-0.120393,12,-0.000633032,10,-4.74943e-07,-3.9194,-0.025963,-2.27246,10.827,0.00394493,
2,0,0,1,0,22017.2,0.00579242,0.00545073,-0.105575,12,-0.000781356,10,-5.7546e-07,-3.97644,-0.0277769,-2.12406,8.86163,0.00545073,
2,0,0,1,0,22018.7,0.00729061,0.00698511,-0.0939133,12,-0.000910431,10,-6.55995e-07,-4.02727,-0.0308716,-1.91114,7.0927,0.00698511,
2,0,0,1,0,22020.2,0.00878882,0.00846967,-0.0843181,12,-0.00102372,10,-7.14146e-07,-4.07408,-0.0343495,-1.71764,5.73821,0.008469671,
2,0,0,1,0,22021.7,0.010287,0.00994044,-0.076599,12,-0.00112428,10,-7.61428e-07,-4.11578,-0.0368144,-1.60264,4.84127,0.00994044,
2,0,0,1,0,22023.2,0.0117852,0.0114834,-0.0701104,12,-0.00121456,10,-8.05105e-07,-4.15422,-0.037519,-1.57254,4.31445,0.0114834,
2,0,0,1,0,22024.7,0.0132834,0.0129319,-0.064104,12,-0.00129569,10,-8.28985e-07,-4.19312,-0.0379577,-1.55436,3.8953,0.0129319,
2,0,0,1,0,22026.2,0.0147815,0.0144418,-0.0587867,12,-0.00136802,10,-8.48988e-07,-4.23072,-0.0401519,-1.46942,3.3816,0.0144418,
2,0,0,1,0,22027.7,0.0162797,0.0159646,-0.0545039,12,-0.00143276,10,-8.70131e-07,-4.26357,-0.0458026,-1.28814,2.74568,0.0159646,
2,0,0,1,0,22029.2,0.0177779,0.0174831,-0.0492275,12,-0.00149096,10,-8.60649e-07,-4.30779,-0.0414458,-1.42355,2.76966,0.0174831,
2,0,0,1,0,22030.7,0.0192761,0.018974,-0.0455582,12,-0.00154339,10,-8.64422e-07,-4.34143,-0.0405553,-1.4548,2.58877,0.01897401,
2,0,0,1,0,22032.2,0.0207743,0.0204788,-0.0417908,12,-0.00158969,10,-8.55826e-07,-4.37892,-0.0424008,-1.39148,2.29313,0.0204788,
2,0,0,1,0,22033.7,0.0222725,0.0220057,-0.0382947,12,-0.00163036,10,-8.42703e-07,-4.41686,-0.037294,-1.58202,2.3734,0.0220057,
2,0,0,1,0,22035.2,0.0237707,0.0234691,-0.035236,12,-0.00166597,10,-8.26957e-07,-4.45301,-0.0348042,-1.6952,2.30447,0.02346913,
2,0,0,1,0,22036.7,0.0252689,0.0249378,-0.0317172,12,-0.00169688,10,-7.90958e-07,-4.49871,-0.0337448,-1.74842,2.1512,0.0249378,
2,0,0,1,0,22038.2,0.0267671,0.026416,-0.0286642,12,-0.00172238,10,-7.57195e-07,-4.54266,-0.028576,-2.06467,2.30142,0.026416,
2,0,0,1,0,22039.7,0.0282653,0.0279706,-0.0253836,12,-0.00174315,10,-7.09994e-07,-4.59545,-0.0307481,-1.91882,1.90446,0.0279706,
2,0,0,1,0,22041.2,0.0297635,0.0294509,-0.022707,12,-0.00175943,10,-6.6874e-07,-4.64384,-0.0290305,-2.03235,1.80042,0.0294509,
2,0,0,1,0,22042.7,0.0312617,0.0309429,-0.0206383,12,-0.00177189,10,-6.38611e-07,-4.68533,-0.0255956,-2.30509,1.7949,0.0309429,
2,0,0,1,0,22044.2,0.0327599,0.0324688,-0.0174448,12,-0.00178025,10,-5.66414e-07,-4.75833,-0.0225673,-2.61441,1.74345,0.0324688,
2,0,0,1,0,22045.7,0.0342581,0.0339651,-0.0149439,12,-0.00178469,10,-5.07571e-07,-4.82554,-0.0202332,-2.91599,1.6974,0.0339651,
2,0,0,1,0,22047.2,0.0357563,0.0354433,-0.0124971,12,-0.00178528,10,-4.42937e-07,-4.90319,-0.0204193,-2.88942,1.40497,0.0354433,
2,0,0,1,0,22048.7,0.0372544,0.0369299,-0.0109973,12,-0.00178241,10,-4.06131e-07,-4.95871,-0.0141343,-4.17423,1.59486,0.0369299,
2,0,0,1,0,22050.2,0.0387526,0.0384187,-0.00821295,12,-0.00177607,10,-3.15531e-07,-5.0855,-0.00970442,-6.07971,1.68084,0.0384187,
2,0,0,1,0,22051.7,0.0402508,0.0398991,-0.00549683,12,-0.00176573,10,-2.19318e-07,-5.25989,-0.00653485,-9.02851,1.61885,0.0398991,
2,0,0,1,0,22053.2,0.041749,0.0414685,-0.00284521,12,-0.0017514,10,-1.17986e-07,-5.54589,-0.00234671,-25.1416,1.4991,0.0414685,
2,0,0,1,0,22054.7,0.0432472,0.0429435,-0.000499362,12,-0.00173385,10,-2.14444e-08,-6.30158,-0.0121032,-4.87476,1.46396,0.0429435,
2,0,0,1,0,22056.2,0.0447454,0.0444737,0.00212387,12,-0.00171283,10,9.44564e-08,-5.67287,0.0110191,5.35432,1.51241,0.0444737,
2,0,0,1,0,22057.7,0.0462435,0.0459232,0.00414634,12,-0.00168841,10,1.90413e-07,-5.38233,0.0041445,14.2357,1.33967,0.0459232,
2,1,0,1,0,22059.2,0.0477417,0.0474735,0.00577465,12,-0.00166059,10,2.74143e-07,-5.23847,0.00919407,6.41718,1.29872,0.0474735,
2,1,0,1,0,22060.7,0.0492399,0.0489347,0.00741363,12,-0.00162995,10,3.62784e-07,-5.12997,0.0146314,4.03242,1.17233,0.0489347,
2,0,0,1,0,22062.2,0.0507381,0.050415,0.00973853,12,-0.00159694,10,4.90969e-07,-5.01151,0.0169684,3.47705,1.3017,0.050415,
2,0,0,1,0,22063.7,0.0522363,0.051923,0.0115158,12,-0.00156034,10,5.97937e-07,-4.9387,0.0181002,3.25964,1.39524,0.051923,
2,1,0,1,0,22065.2,0.0537345,0.0534288,0.0137869,12,-0.00152046,10,7.36615e-07,-4.86053,0.0257843,2.28822,1.21507,0.0534288,
2,1,0,1,0,22066.7,0.0552327,0.0549059,0.0155778,12,-0.00147797,10,8.55312e-07,-4.80749,0.0280199,2.10565,1.23602,0.0549059,
2,1,0,1,0,22068.2,0.0567309,0.0563927,0.0166993,12,-0.00143298,10,9.41716e-07,-4.7773,0.0303602,1.94333,1.32123,0.0563927,
2,1,0,1,0,22069.7,0.0582291,0.0578857,0.0195921,12,-0.00138489,10,1.1341e-06,-4.70792,0.0294361,2.00434,1.47286,0.0578857,
2,1,0,1,0,22071.2,0.0597273,0.059383,0.0216729,12,-0.00133306,10,1.287e-06,-4.66408,0.0456625,1.29209,1.04432,0.059383,
2,1,0,1,0,22072.7,0.0612255,0.0609057,0.0229728,12,-0.00127886,10,1.39918e-06,-4.63879,0.0675644,0.873241,0.770601,0.0609057,
2,1,0,1,0,22074.2,0.0627237,0.0624073,0.0245662,12,-0.00122198,10,1.53311e-06,-4.60966,0.055999,1.05359,1.00285,0.0624073,
2,1,0,1,0,22075.7,0.0642219,0.0639099,0.0259526,12,-0.00116336,10,1.65863e-06,-4.58582,0.0633844,0.930829,0.975689,0.0639099,
2,1,0,1,0,22077.2,0.0657201,0.0654019,0.028504,12,-0.00110168,10,1.86421e-06,-4.54509,0.0623002,0.947028,1.03772,0.0654019,
2,1,0,1,0,22078.7,0.0672183,0.06693,0.0300048,12,-0.00103706,10,2.00822e-06,-4.52281,0.0668274,0.882871,1.01002,0.06693,
2,1,0,1,0,22080.2,0.0687164,0.0684102,0.0312748,12,-0.000970113,10,2.13952e-06,-4.50481,0.0643595,0.916725,1.11182,0.06841021,
2,1,0,1,0,22081.7,0.0702146,0.0698778,0.0325229,12,-0.000901329,10,2.27263e-06,-4.48781,0.0682352,0.864656,1.1047,0.0698778,
2,1,0,1,0,22083.2,0.0717128,0.0713804,0.0345488,12,-0.000829763,10,2.46611e-06,-4.46157,0.0696519,0.847069,1.12737,0.0713804,
2,1,0,1,0,22084.7,0.073211,0.0729371,0.0354709,12,-0.000756187,10,2.58714e-06,-4.45013,0.082109,0.718557,1.00415,0.0729371,
2,1,0,1,0,22086.1,0.0747092,0.0744005,0.0366841,12,-0.000680343,10,2.72931e-06,-4.43552,0.0818854,0.720519,1.04664,0.0744005,
2,1,0,1,0,22087.6,0.0762074,0.0758395,0.0379981,12,-0.00060309,10,2.88175e-06,-4.42024,0.0970226,0.608106,0.923318,0.0758395,
2,1,0,1,0,22089.1,0.0777055,0.0773833,0.0404374,12,-0.000522907,10,3.12918e-06,-4.39322,0.0721601,0.817626,1.25715,0.0773833,
2,1,0,1,0,22090.6,0.0792037,0.0788446,0.0418768,12,-0.000440281,10,3.30176e-06,-4.37803,0.0946552,0.623315,1.01171,0.0788446,
2,1,0,1,0,22092.1,0.0807019,0.0803801,0.0429983,12,-0.000355539,10,3.4562e-06,-4.36655,0.0993653,0.593768,0.999451,0.0803801,
2,1,0,1,0,22093.6,0.0822001,0.0818752,0.0436226,12,-0.00026885,10,3.57161e-06,-4.36029,0.116437,0.506711,0.879374,0.08187522,
2,1,0,1,0,22095.1,0.0836983,0.0833916,0.0462358,12,-0.000179607,10,3.85568e-06,-4.33502,0.095428,0.618267,1.11341,0.0833916,
2,1,0,1,0,22096.6,0.0851965,0.08489,0.0473795,12,-8.80077e-05,10,4.02204e-06,-4.32441,0.0944302,0.6248,1.16047,0.08489,
2,1,0,1,0,22098.1,0.0866947,0.0863268,0.0495102,12,6.19178e-06,10,4.27406e-06,-4.30531,0.108317,0.544696,1.04355,0.0863268,
2,1,0,1,0,22099.6,0.0881929,0.0878803,0.0508508,12,0.000102894,10,4.46878e-06,-4.2937,0.100119,0.5893,1.18716,0.0878803,
2,1,0,1,0,22101.1,0.0896911,0.089384,0.0529557,12,0.000202054,10,4.73339e-06,-4.27609,0.0815403,0.723569,1.51703,0.089384,
2,1,0,1,0,22102.6,0.0911893,0.090859,0.0557849,12,0.000304623,10,5.06856e-06,-4.25348,0.0882693,0.668409,1.43708,0.090859,
2,1,0,1,0,22104.1,0.0926875,0.0923553,0.0577845,12,0.000411082,10,5.33671e-06,-4.23819,0.110061,0.536068,1.19089,0.0923553,
2,1,0,1,0,22105.6,0.0941857,0.0938611,0.0592191,12,0.00052009,10,5.55837e-06,-4.22754,0.094706,0.622981,1.43539,0.0938611,
2,1,0,1,0,22107.1,0.0956839,0.0953446,0.0613059,12,0.000631606,10,5.84518e-06,-4.2125,0.09425,0.625995,1.49325,0.0953446,
2,1,0,1,0,22108.6,0.0971821,0.096826,0.0634454,12,0.000746804,10,6.14316e-06,-4.1976,0.0796478,0.740761,1.83322,0.096826,
2,1,0,1,0,22110.1,0.0986803,0.0983827,0.0661191,12,0.000865656,10,6.50497e-06,-4.17967,0.0906367,0.65095,1.68726,0.0983827,
2,1,0,1,0,22111.6,0.100178,0.0998438,0.0685256,12,0.00098819,10,6.84186e-06,-4.16415,0.10205,0.57815,1.54052,0.0998438,
2,1,0,1,0,22113.1,0.101677,0.101327,0.0703623,12,0.00111411,10,7.12962e-06,-4.15266,0.0968208,0.609373,1.69241,0.101327,
2,1,0,1,0,22114.6,0.103175,0.10289,0.0732191,12,0.00124356,10,7.53354e-06,-4.13538,0.108614,0.543207,1.5444,0.1028904,
2,1,0,1,0,22116.1,0.104673,0.104369,0.0761068,12,0.00137709,10,7.94316e-06,-4.11858,0.144423,0.408524,1.18968,0.104369,
2,1,0,1,0,22117.6,0.106171,0.10586,0.0776326,12,0.00151371,10,8.21815e-06,-4.10996,0.132961,0.44374,1.33629,0.10586,
2,1,0,1,0,22119.1,0.107669,0.10738,0.0792045,12,0.00165304,10,8.50499e-06,-4.10125,0.165947,0.355536,1.09713,0.10738,
2,1,0,1,0,22120.6,0.109167,0.108875,0.0812555,12,0.00179547,10,8.84671e-06,-4.09015,0.148182,0.398159,1.27154,0.108875,
2,1,0,1,0,22122.1,0.110666,0.110362,0.0827758,12,0.00194064,10,9.1353e-06,-4.0821,0.15611,0.377938,1.22652,0.110362,
2,1,0,1,0,22123.6,0.112164,0.111815,0.0850471,12,0.00208898,10,9.50951e-06,-4.07034,0.21844,0.270097,0.894831,0.111815,
2,1,0,1,0,22125.1,0.113662,0.113322,0.0865568,12,0.00224001,10,9.80875e-06,-4.0627,0.16229,0.363547,1.23069,0.113322,
2,1,0,1,0,22126.6,0.11516,0.114845,0.0886504,12,0.00239272,10,1.01811e-05,-4.05232,0.173367,0.340318,1.1753,0.114845,
2,1,0,1,0,22128.1,0.116658,0.116377,0.0902119,12,0.00254911,10,1.04986e-05,-4.04474,0.142777,0.413232,1.45251,0.1163766,
2,1,0,1,0,22129.6,0.118157,0.117867,0.0927056,12,0.00270833,10,1.09269e-05,-4.03289,0.193079,0.305574,1.09712,0.117867,
2,1,0,1,0,22131.1,0.119655,0.119304,0.0941574,12,0.00287036,10,1.12334e-05,-4.02615,0.179159,0.329317,1.20635,0.119304,
2,1,0,1,0,22132.6,0.121153,0.120869,0.0958726,12,0.00303433,10,1.1588e-05,-4.01831,0.163802,0.36019,1.35451,0.120869,
2,1,0,1,0,22134.1,0.122651,0.122312,0.0976599,12,0.00320169,10,1.1945e-05,-4.01028,0.15795,0.373535,1.41981,0.1223118,
2,1,0,1,0,22135.6,0.124149,0.123825,0.0990978,12,0.00337241,10,1.22708e-05,-4.00394,0.191542,0.308026,1.19816,0.123825,
2,1,0,1,0,22137.1,0.125648,0.125341,0.101156,12,0.00354522,10,1.2679e-05,-3.99501,0.285387,0.206737,0.815023,0.125341,
2,1,0,1,0,22138.6,0.127146,0.126837,0.101217,12,0.00372015,10,1.2838e-05,-3.99475,0.339293,0.173891,0.692121,0.126837,
2,1,0,1,0,22140.1,0.128644,0.128289,0.10369,12,0.00389676,10,1.33024e-05,-3.98426,0.376691,0.156627,0.630804,0.1282893,
2,1,0,1,0,22141.6,0.130142,0.12983,0.10524,12,0.00407509,10,1.36634e-05,-3.97782,1.21037,0.0487455,0.197779,0.12983,
2,1,0,1,0,22143.1,0.13164,0.13133,0.105217,12,0.00425443,10,1.38182e-05,-3.97791,-0.987206,-0.0597646,-0.242595,0.13133,
2,1,0,1,0,22144.6,0.133139,0.132843,0.104004,12,0.00443323,10,1.38161e-05,-3.98295,-0.391559,-0.15068,-0.611669,0.132843,
2,1,0,1,0,22146.1,0.134637,0.134319,0.10311,12,0.00461065,10,1.38496e-05,-3.9867,-0.192664,-0.306232,-1.22411,0.134319,
2,1,0,1,0,22147.6,0.136135,0.135846,0.101113,12,0.00478594,10,1.37357e-05,-3.99519,-0.153347,-0.384748,-1.51882,0.135846,
2,1,0,1,0,22149.1,0.137633,0.137319,0.0984451,12,0.00495739,10,1.35184e-05,-4.00681,-0.0993593,-0.593805,-2.25535,0.137319,
2,1,0,1,0,22150.6,0.139131,0.13884,0.0953237,12,0.00512426,10,1.32348e-05,-4.0208,-0.0862743,-0.683865,-2.51359,0.13884,
2,1,0,1,0,22152.1,0.14063,0.140294,0.0912705,12,0.00528468,10,1.28047e-05,-4.03967,-0.0793847,-0.743216,-2.6311,0.140294,
2,1,0,1,0,22153.6,0.142128,0.14182,0.0867339,12,0.00543945,10,1.23006e-05,-4.06181,-0.0725195,-0.813575,-2.72919,0.14182,
2,1,0,1,0,22155.1,0.143626,0.143308,0.0825406,12,0.00558806,10,1.18287e-05,-4.08333,-0.0641151,-0.92022,-2.94778,0.143308,
2,1,0,1,0,22156.6,0.145124,0.144802,0.0779728,12,0.00572941,10,1.12906e-05,-4.10806,-0.0590389,-0.999342,-3.05049,0.144802,
2,1,0,1,0,22158.1,0.146622,0.146277,0.073027,12,0.00586334,10,1.06822e-05,-4.13652,-0.0624243,-0.945144,-2.72259,0.146277,
2,1,0,1,0,22159.6,0.14812,0.14783,0.06918,12,0.00599134,10,1.02269e-05,-4.16002,-0.0747133,-0.789685,-2.14731,0.14783,
2,1,0,1,0,22161.1,0.149619,0.149342,0.0660412,12,0.00611391,10,9.8627e-06,-4.18018,-0.0653835,-0.902368,-2.34635,0.149342,
2,1,0,1,0,22162.6,0.151117,0.150783,0.063565,12,0.00623167,10,9.5845e-06,-4.19678,-0.0801612,-0.736017,-1.82277,0.150783,
2,1,0,1,0,22164.1,0.152615,0.152336,0.0605722,12,0.00634487,10,9.22733e-06,-4.21773,-0.0858718,-0.68707,-1.63664,0.152336,
2,1,0,1,0,22165.6,0.154113,0.153813,0.0589581,12,0.00645447,10,9.06853e-06,-4.22946,-0.10903,-0.541135,-1.239,0.153813,
2,1,0,1,0,22167.1,0.155611,0.155261,0.0574532,12,0.00656143,10,8.92023e-06,-4.24069,-0.146023,-0.404046,-0.90062,0.155261,
2,1,0,1,0,22168.5,0.15711,0.156815,0.0559162,12,0.00666621,10,8.76851e-06,-4.25246,-0.122469,-0.481753,-1.03814,0.156815,
2,1,0,1,0,22170,0.158608,0.158307,0.054249,12,0.00676869,10,8.58801e-06,-4.26561,-0.139795,-0.422045,-0.897815,0.158307,
2,1,0,1,0,22171.5,0.160106,0.159792,0.0528806,12,0.00686874,10,8.44989e-06,-4.2767,-0.178555,-0.33043,-0.692028,0.159792,
2,1,0,1,0,22173,0.161604,0.1613,0.0525488,12,0.00696776,10,8.47611e-06,-4.27944,-0.23686,-0.249093,-0.512347,0.1613,
2,1,0,1,0,22174.5,0.163102,0.162802,0.0516597,12,0.00706527,10,8.41031e-06,-4.28685,-0.21828,-0.270295,-0.542836,0.162802,
2,1,0,1,0,22176,0.164601,0.164233,0.0511886,12,0.00716222,10,8.40685e-06,-4.29083,-0.685429,-0.0860775,-0.171365,0.164233,
2,1,0,1,0,22177.5,0.166099,0.165784,0.0505091,12,0.00725753,10,8.37361e-06,-4.29663,-0.291249,-0.202576,-0.401486,0.165784,
2,1,0,1,0,22179,0.167597,0.167306,0.0500106,12,0.00735247,10,8.36706e-06,-4.30094,-0.47947,-0.123053,-0.239283,0.167306,
2,1,0,1,0,22180.5,0.169095,0.168754,0.0496313,12,0.0074469,10,8.3755e-06,-4.30424,-1.24572,-0.0473623,-0.0922905,0.168754,
2,1,0,1,0,22182,0.170593,0.170242,0.0496133,12,0.00754041,10,8.44628e-06,-4.3044,-0.362312,-0.162843,-0.314618,0.170242,
2,1,0,1,0,22183.5,0.172091,0.171785,0.0491811,12,0.00763339,10,8.44857e-06,-4.3082,-2.63307,-0.0224073,-0.0430158,0.171785,
2,1,0,1,0,22185,0.17359,0.173254,0.0491598,12,0.00772608,10,8.5171e-06,-4.30839,1.10857,0.0532217,0.102056,0.173254,
2,1,0,1,0,22186.5,0.175088,0.174744,0.0489628,12,0.00781875,10,8.55593e-06,-4.31013,-1.0918,-0.0540392,-0.102694,0.174744,
2,1,0,1,0,22188,0.176586,0.176292,0.0490412,12,0.00791127,10,8.64556e-06,-4.30944,-4.13535,-0.0142672,-0.0273286,0.176292,
2,1,0,1,0,22189.5,0.178084,0.177779,0.0483538,12,0.0080033,10,8.59632e-06,-4.31557,-3.93374,-0.0149985,-0.0285689,0.177779,
2,1,0,1,0,22191,0.179582,0.179247,0.0491051,12,0.00809556,10,8.80194e-06,-4.30887,1.39957,0.0421557,0.080031,0.179247,
2,1,0,1,0,22192.5,0.181081,0.18078,0.0488471,12,0.00818777,10,8.83061e-06,-4.31116,-2.37646,-0.0248268,-0.0474487,0.18078,
2,1,0,1,0,22194,0.182579,0.182266,0.0489623,12,0.00828021,10,8.92416e-06,-4.31014,-1.9348,-0.0304941,-0.0581038,0.182266,
2,1,0,1,0,22195.5,0.184077,0.183758,0.0486956,12,0.00837242,10,8.94821e-06,-4.31251,2.78949,0.0211508,0.0405404,0.183758,
2,1,0,1,0,22197,0.185575,0.185268,0.0492381,12,0.00846443,10,9.12226e-06,-4.3077,1.31396,0.0449024,0.0861398,0.185268,
2,1,0,1,0,22198.5,0.187073,0.186799,0.0491996,12,0.00855663,10,9.19045e-06,-4.30804,1.2725,0.0463653,0.088271,0.186799,
2,1,0,1,0,22200,0.188572,0.188252,0.0490524,12,0.00864885,10,9.23421e-06,-4.30934,2.0087,0.0293722,0.0558852,0.188252,
2,1,0,1,0,22201.5,0.19007,0.189729,0.0489959,12,0.00874117,10,9.29597e-06,-4.30984,1.91429,0.0308208,0.0588103,0.189729,
2,1,0,1,0,22203,0.191568,0.191255,0.0490282,12,0.00883295,10,9.37689e-06,-4.30955,-5.3873,-0.0109517,-0.0209673,0.1912552,
2,1,0,1,0,22204.5,0.193066,0.192692,0.049312,12,0.00892513,10,9.50203e-06,-4.30705,0.567774,0.103915,0.197668,0.192692,
2,1,0,1,0,22206,0.194564,0.194216,0.0489468,12,0.0090177,10,9.50623e-06,-4.31028,0.442957,0.133196,0.255811,0.194216,
2,1,0,1,0,22207.5,0.196063,0.195753,0.0490619,12,0.00911035,10,9.60403e-06,-4.30926,3.19084,0.0184905,0.0359443,0.195753,
2,1,0,1,0,22209,0.197561,0.197227,0.0494332,12,0.00920287,10,9.74959e-06,-4.30598,0.778298,0.0758065,0.146857,0.197227,
2,1,0,1,0,22210.5,0.199059,0.19874,0.0494394,12,0.00929576,10,9.82561e-06,-4.30593,1.25863,0.0468765,0.0904474,0.1987405,
2,1,0,1,0,22212,0.200557,0.200211,0.0496447,12,0.00938856,10,9.93944e-06,-4.30413,2.01375,0.0292986,0.0564414,0.200211,
2,1,0,1,0,22213.5,0.202055,0.201747,0.0495637,12,0.00948152,10,9.99931e-06,-4.30484,-200.988,-0.000293549,-0.000566576,0.201747,
2,1,0,1,0,22215,0.203554,0.20324,0.0495712,12,0.00957442,10,1.00749e-05,-4.30477,3.97921,0.0148271,0.0288926,0.20324,
2,1,0,1,0,22216.5,0.205052,0.204746,0.0500331,12,0.00966731,10,1.02441e-05,-4.30074,0.597358,0.0987682,0.193153,0.204746,
2,1,0,1,0,22218,0.20655,0.20621,0.0501965,12,0.00976068,10,1.0351e-05,-4.29933,0.851038,0.0693271,0.135339,0.20621,
2,1,0,1,0,22219.5,0.208048,0.20775,0.0498415,12,0.00985445,10,1.03546e-05,-4.30241,0.792258,0.0744707,0.146338,0.20775,
2,1,0,1,0,22221,0.209546,0.209217,0.0504367,12,0.00994829,10,1.05522e-05,-4.29725,0.851142,0.0693187,0.136831,0.209217,
2,1,0,1,0,22222.5,0.211044,0.21074,0.0508151,12,0.0100422,10,1.07088e-05,-4.29401,1.36774,0.0431367,0.0856356,0.21074,
2,1,0,1,0,22224,0.212543,0.212197,0.0510223,12,0.0101365,10,1.08268e-05,-4.29224,0.737186,0.0800341,0.157893,0.212197,
2,1,0,1,0,22225.5,0.214041,0.213747,0.0509906,12,0.0102309,10,1.08991e-05,-4.29251,1.19857,0.0492252,0.0972399,0.213747,
2,1,0,1,0,22227,0.215539,0.215236,0.051149,12,0.0103255,10,1.10091e-05,-4.29116,9.22596,0.006395,0.0127345,0.215236,
2,1,0,1,0,22228.5,0.217037,0.216744,0.0510648,12,0.0104203,10,1.1068e-05,-4.29188,0.844943,0.0698272,0.139882,0.216744,
2,1,0,1,0,22230,0.218535,0.218239,0.0516176,12,0.0105154,10,1.1265e-05,-4.2872,0.579474,0.101817,0.204811,0.218239,
2,1,0,1,0,22231.5,0.220034,0.219731,0.0521105,12,0.0106113,10,1.14503e-05,-4.28307,0.447215,0.131928,0.266514,0.219731,
2,1,0,1,0,22233,0.221532,0.221206,0.0516207,12,0.0107074,10,1.14188e-05,-4.28718,0.862335,0.0684189,0.139089,0.221206,
2,1,0,1,0,22234.5,0.22303,0.222743,0.0516584,12,0.0108036,10,1.15065e-05,-4.28686,0.412695,0.142963,0.291436,0.2227429,
2,1,0,1,0,22236,0.224528,0.224201,0.0528362,12,0.0108999,10,1.18459e-05,-4.27707,0.880798,0.0669847,0.136292,0.224201,
2,1,0,1,0,22237.5,0.226026,0.225678,0.053015,12,0.010997,10,1.19643e-05,-4.2756,1.6983,0.0347407,0.0709991,0.225678,
2,1,0,1,0,22239,0.227525,0.227231,0.0528688,12,0.0110941,10,1.20135e-05,-4.2768,0.714582,0.0825657,0.169684,0.227231,
2,1,0,1,0,22240.5,0.229023,0.228709,0.0527413,12,0.0111912,10,1.20624e-05,-4.27785,0.815936,0.0723096,0.149672,0.228709,
2,1,0,1,0,22242,0.230521,0.230269,0.0530181,12,0.0112885,10,1.22084e-05,-4.27558,0.955488,0.0617485,0.128292,0.230269,
2,1,0,1,0,22243.5,0.232019,0.231751,0.0534382,12,0.0113864,10,1.23844e-05,-4.27215,0.66003,0.0893899,0.186594,0.231751,
2,1,0,1,0,22245,0.233517,0.233227,0.0532223,12,0.0114845,10,1.24129e-05,-4.27391,-20.7161,-0.00284803,-0.00593709,0.233227,
2,1,0,1,0,22246.5,0.235016,0.234686,0.0541604,12,0.0115827,10,1.27107e-05,-4.26632,0.979318,0.060246,0.126397,0.234686,
2,1,0,1,0,22248,0.236514,0.236258,0.0540745,12,0.0116811,10,1.27755e-05,-4.26701,0.521753,0.11308,0.236718,0.236258,
2,1,0,1,0,22249.5,0.238012,0.237721,0.0538347,12,0.0117798,10,1.27976e-05,-4.26894,1.47524,0.0399934,0.0839573,0.237721,
2,1,0,1,0,22250.9,0.23951,0.239186,0.0545689,12,0.0118788,10,1.30521e-05,-4.26306,0.478296,0.123355,0.261251,0.239186,
2,1,0,1,0,22252.4,0.241008,0.240668,0.0544828,12,0.0119782,10,1.31123e-05,-4.26374,0.50843,0.116043,0.24789,0.240668,
2,1,0,1,0,22253.9,0.242506,0.24218,0.0547755,12,0.0120778,10,1.32655e-05,-4.26141,0.464728,0.126956,0.272271,0.24218,
2,1,0,1,0,22255.4,0.244005,0.243657,0.0548168,12,0.0121782,10,1.33565e-05,-4.26109,0.548102,0.107644,0.230558,0.243657,
2,1,0,1,0,22256.9,0.245503,0.245165,0.0552779,12,0.0122788,10,1.35522e-05,-4.25745,-1.13438,-0.052011,-0.112205,0.245165,
2,1,0,1,0,22258.4,0.247001,0.246671,0.0554188,12,0.0123792,10,1.36702e-05,-4.25634,0.844262,0.0698835,0.150094,0.2466709,
2,1,0,1,0,22259.9,0.248499,0.248193,0.0549934,12,0.0124797,10,1.36489e-05,-4.25969,0.514782,0.114612,0.248314,0.248193,
2,1,0,1,0,22261.4,0.249997,0.249663,0.0559956,12,0.0125806,10,1.398e-05,-4.25185,0.581717,0.101424,0.219705,0.249663,
2,1,0,1,0,22262.9,0.251496,0.251152,0.0563956,12,0.012682,10,1.41639e-05,-4.24875,0.941329,0.0626773,0.13666,0.251152,
2,1,0,1,0,22264.4,0.252994,0.25271,0.0556956,12,0.0127836,10,1.40748e-05,-4.25418,2.4288,0.0242918,0.0532049,0.25271,
2,1,0,1,0,22265.9,0.254492,0.25416,0.0563195,12,0.0128854,10,1.43141e-05,-4.24934,0.893096,0.0660623,0.144877,0.25416,
2,1,0,1,0,22267.4,0.25599,0.255668,0.056243,12,0.012987,10,1.43796e-05,-4.24993,1.8843,0.0313114,0.0693913,0.255668,
2,1,0,1,0,22268.9,0.257488,0.257143,0.0567363,12,0.0130892,10,1.45893e-05,-4.24614,0.690894,0.0853965,0.188075,0.257143,
2,1,0,1,0,22270.4,0.258987,0.258694,0.0568545,12,0.0131918,10,1.47079e-05,-4.24524,1.59346,0.0370262,0.0821481,0.2586939,
2,1,0,1,0,22271.9,0.260485,0.26022,0.0565606,12,0.0132942,10,1.47182e-05,-4.24749,-72.4608,-0.000814233,-0.00180433,0.26022,
2,1,0,1,0,22273.4,0.261983,0.261684,0.0568581,12,0.0133968,10,1.48789e-05,-4.24521,1.19266,0.0494692,0.109967,0.261684,
2,1,0,1,0,22274.9,0.263481,0.263139,0.0567738,12,0.0134995,10,1.49394e-05,-4.24585,1.37537,0.0428975,0.0958136,0.263139,
2,1,0,1,0,22276.4,0.264979,0.264711,0.0575619,12,0.0136027,10,1.52372e-05,-4.23987,1.20322,0.0490352,0.109887,0.264711,
2,1,0,1,0,22277.9,0.266477,0.266171,0.0577568,12,0.0137061,10,1.53732e-05,-4.2384,0.575374,0.102542,0.230829,0.266171,
2,1,0,1,0,22279.4,0.267976,0.26763,0.0576506,12,0.0138096,10,1.5429e-05,-4.2392,0.795871,0.0741326,0.168252,0.26763,
2,1,0,1,0,22280.9,0.269474,0.269166,0.0582998,12,0.013914,10,1.56923e-05,-4.23433,0.35276,0.167253,0.376822,0.269166,
2,1,0,1,0,22282.4,0.270972,0.270661,0.0585758,12,0.0140189,10,1.58542e-05,-4.23228,1.36896,0.0430984,0.0985626,0.270661,
2,1,0,1,0,22283.9,0.27247,0.272146,0.0585933,12,0.0141237,10,1.59459e-05,-4.23215,-2.21845,-0.0265952,-0.0605854,0.272146,
2,1,0,1,0,22285.4,0.273968,0.273622,0.0580982,12,0.0142286,10,1.5897e-05,-4.23584,2.63275,0.0224101,0.0510466,0.2736221,
2,1,0,1,0,22286.9,0.275467,0.275182,0.0586529,12,0.0143335,10,1.61402e-05,-4.23171,0.653009,0.090351,0.207858,0.275182,
2,1,0,1,0,22288.4,0.276965,0.276643,0.0586739,12,0.0144386,10,1.62317e-05,-4.23156,0.545299,0.108198,0.249659,0.276643,
2,1,0,1,0,22289.9,0.278463,0.278177,0.0594515,12,0.0145441,10,1.6538e-05,-4.22584,0.707645,0.0833751,0.191385,0.278177,
2,1,0,1,0,22291.4,0.279961,0.279692,0.0596826,12,0.01465,10,1.66928e-05,-4.22415,0.596031,0.0989881,0.229556,0.279692,
2,1,0,1,0,22292.9,0.281459,0.281162,0.0594864,12,0.0147556,10,1.67253e-05,-4.22558,0.591282,0.0997832,0.232627,0.2811617,
2,1,0,1,0,22294.4,0.282958,0.282633,0.0595621,12,0.0148617,10,1.68342e-05,-4.22503,0.525695,0.112232,0.262013,0.282633,
2,1,0,1,0,22295.9,0.284456,0.284164,0.0604188,12,0.0149684,10,1.71688e-05,-4.21883,0.532481,0.110802,0.258434,0.284164,
2,1,0,1,0,22297.4,0.285954,0.28563,0.0603425,12,0.0150756,10,1.72356e-05,-4.21938,1.03718,0.0568851,0.134056,0.28563,
2,1,0,1,0,22298.9,0.287452,0.287146,0.0603205,12,0.0151827,10,1.73208e-05,-4.21954,1.43635,0.0410763,0.0964837,0.287146,
2,1,0,1,0,22300.4,0.28895,0.288654,0.060756,12,0.0152901,10,1.75374e-05,-4.21641,2.69873,0.0218621,0.0515809,0.288654,
2,1,0,1,0,22301.9,0.290448,0.290131,0.0601757,12,0.0153973,10,1.74588e-05,-4.22058,4.65924,0.012663,0.0298762,0.290131,
2,1,0,1,0,22303.4,0.291947,0.29161,0.0606895,12,0.0155047,10,1.76977e-05,-4.21689,1.40709,0.0419305,0.0995335,0.29161,
2,1,0,1,0,22304.9,0.293445,0.293132,0.0606903,12,0.0156121,10,1.77902e-05,-4.21688,0.606465,0.097285,0.231348,0.293132,
2,1,0,1,0,22306.4,0.294943,0.294629,0.0610835,12,0.0157201,10,1.7997e-05,-4.21408,2.86371,0.0206026,0.0490806,0.294629,
2,1,0,1,0,22307.9,0.296441,0.296081,0.061233,12,0.0158284,10,1.81299e-05,-4.21301,0.85549,0.0689663,0.164661,0.296081,
2,1,0,1,0,22309.4,0.297939,0.297621,0.0610733,12,0.015937,10,1.81767e-05,-4.21415,1.69486,0.0348112,0.0833475,0.297621,
2,1,0,1,0,22310.9,0.299438,0.299089,0.061573,12,0.0160456,10,1.84158e-05,-4.21061,-0.00500385,-11.7909,-18.9417,0.299089,
2,1,0,1,0,22311.7,0.299737,0.299416,0.0322781,12,0.0160937,10,9.66456e-06,-4.49109,0.00236289,24.9695,35.7552,0.299416,
2,1,0,1,0,22313.2,0.298239,0.297964,0.0209731,12,0.0161146,10,6.24924e-06,-4.67834,0.00621064,9.49983,12.3864,0.297964,
2,1,0,1,0,22314.7,0.296741,0.29645,0.0168527,12,0.016126,10,4.99598e-06,-4.77333,0.0158403,3.72468,2.53818,0.29645,
2,1,0,1,0,22316.2,0.295243,0.294915,0.0134591,12,0.0161316,10,3.9693e-06,-4.87098,0.0189095,3.12013,1.72151,0.294915,
2,1,0,1,0,22317.7,0.293745,0.293396,0.0116204,12,0.0161336,10,3.40937e-06,-4.93478,0.0173795,3.39481,1.47583,0.293396,
2,1,0,1,0,22319.2,0.292246,0.291928,0.00902694,12,0.0161324,10,2.63522e-06,-5.04446,0.0145878,4.04448,1.42036,0.291928,
2,1,0,1,0,22320.7,0.290748,0.29045,0.00725214,12,0.016128,10,2.10638e-06,-5.13953,0.0119533,4.93589,1.33072,0.29045,
2,1,0,1,0,22322.2,0.28925,0.288954,0.00554251,12,0.0161209,10,1.60153e-06,-5.25629,0.0125828,4.68894,0.979108,0.288954,
2,1,0,1,0,22323.7,0.287752,0.287436,0.00389787,12,0.0161113,10,1.12039e-06,-5.40917,0.010343,5.70433,0.90036,0.287436,
2,1,0,1,0,22325.2,0.286254,0.285891,0.00253661,12,0.0161,10,7.25194e-07,-5.59575,0.00690059,8.54999,0.86904,0.285891,
2,1,0,1,0,22326.7,0.284755,0.28443,0.0016222,12,0.0160866,10,4.61402e-07,-5.7899,0.00181139,32.5716,0.877543,0.28443,
2,0,0,1,0,22328.2,0.283257,0.282934,0.000177761,12,0.0160713,10,5.02946e-08,-6.75016,0.0206668,2.85481,0.833055,0.282934,
2,1,0,1,0,22329.7,0.281759,0.281446,-0.000748791,12,0.0160543,10,-2.10744e-07,-6.12564,-0.00795375,-7.41788,0.7047,0.281446,
2,0,0,1,0,22331.2,0.280261,0.279937,-0.00121375,12,0.0160357,10,-3.39775e-07,-5.91587,-0.00348685,-16.9207,0.693055,0.279937,
2,1,0,1,0,22332.7,0.278763,0.278464,-0.00292622,12,0.0160157,10,-8.14848e-07,-5.53369,-0.0112769,-5.23191,0.565815,0.278464,
2,1,0,1,0,22334.2,0.277264,0.276983,-0.00365115,12,0.0159942,10,-1.01131e-06,-5.43757,-0.0124217,-4.74974,0.630329,0.276983,
2,1,0,1,0,22335.7,0.275766,0.275445,-0.00461284,12,0.015971,10,-1.27058e-06,-5.33603,-0.0173139,-3.40767,0.611634,0.275445,
2,1,0,1,0,22337.2,0.274268,0.273943,-0.00583265,12,0.0159461,10,-1.59781e-06,-5.23413,-0.0227179,-2.59707,0.568636,0.273943,
2,0,0,1,0,22338.7,0.27277,0.272453,-0.00641235,12,0.0159203,10,-1.74706e-06,-5.19298,-0.0264425,-2.23125,0.589765,0.272453,
2,1,0,1,0,22340.2,0.271272,0.270963,-0.00768748,12,0.0158928,10,-2.08302e-06,-5.11422,-0.0260943,-2.26103,0.658792,0.270963,
2,0,0,1,0,22341.7,0.269774,0.269476,-0.00852024,12,0.0158638,10,-2.296e-06,-5.06955,-0.0387798,-1.52141,0.491839,0.269476,
2,0,0,1,0,22343.2,0.268275,0.267913,-0.00923502,12,0.0158337,10,-2.47418e-06,-5.03456,-0.0453592,-1.30073,0.449979,0.267913,
2,1,0,1,0,22344.7,0.266777,0.266508,-0.00956013,12,0.0158027,10,-2.54785e-06,-5.01954,-0.06567,-0.898431,0.343314,0.266508,
2,0,0,1,0,22346.2,0.265279,0.264904,-0.0106814,12,0.0157706,10,-2.82953e-06,-4.97137,-0.0507401,-1.16279,0.484778,0.264904,
2,0,0,1,0,22347.7,0.263781,0.263484,-0.0109063,12,0.0157372,10,-2.87364e-06,-4.96232,-0.0671272,-0.878928,0.38884,0.263484,
2,0,0,1,0,22349.2,0.262283,0.261957,-0.0120896,12,0.0157029,10,-3.16694e-06,-4.91759,-0.0604864,-0.975426,0.457671,0.261957,
2,0,0,1,0,22350.7,0.260784,0.260449,-0.0125079,12,0.0156677,10,-3.25766e-06,-4.90282,-0.0608188,-0.970095,0.480681,0.260449,
2,0,0,1,0,22352.2,0.259286,0.258967,-0.0132806,12,0.015631,10,-3.43925e-06,-4.87678,-0.0571119,-1.03306,0.532667,0.258967,
2,0,0,1,0,22353.7,0.257788,0.257519,-0.014447,12,0.0155933,10,-3.72037e-06,-4.84022,-0.0649353,-0.908597,0.492739,0.257519,
2,0,0,1,0,22355.2,0.25629,0.255972,-0.0146914,12,0.0155545,10,-3.76059e-06,-4.83294,-0.0628579,-0.938625,0.539528,0.2559717,
2,0,0,1,0,22356.7,0.254792,0.254497,-0.0150769,12,0.0155148,10,-3.83703e-06,-4.82169,-0.0977448,-0.603612,0.363957,0.254497,
2,0,0,1,0,22358.2,0.253293,0.252955,-0.0163656,12,0.0154738,10,-4.13976e-06,-4.78607,-0.128174,-0.460312,0.286211,0.2529549,
2,0,0,1,0,22359.7,0.251795,0.25147,-0.0167609,12,0.0154319,10,-4.21488e-06,-4.7757,-0.189876,-0.310729,0.199792,0.25147,
2,0,0,1,0,22361.2,0.250297,0.250016,-0.0169834,12,0.0153894,10,-4.24614e-06,-4.76997,-0.125321,-0.470793,0.322981,0.250016,
2,0,0,1,0,22362.7,0.248799,0.24849,-0.0174775,12,0.015346,10,-4.34299e-06,-4.75752,-0.095027,-0.620876,0.435549,0.24849,
2,0,0,1,0,22364.2,0.247301,0.24699,-0.0186369,12,0.0153015,10,-4.60313e-06,-4.72963,-0.0759127,-0.777208,0.570768,0.24699,
2,0,0,1,0,22365.7,0.245802,0.245538,-0.0193874,12,0.0152558,10,-4.76036e-06,-4.71248,-0.112062,-0.526493,0.394233,0.245538,
2,0,0,1,0,22367.2,0.244304,0.24399,-0.01985,12,0.0152089,10,-4.8432e-06,-4.70224,-0.168581,-0.349979,0.268328,0.2439902,
2,0,0,1,0,22368.7,0.242806,0.242446,-0.0206683,12,0.0151614,10,-5.01094e-06,-4.6847,-0.115418,-0.511187,0.405915,0.242446,
2,0,0,1,0,22370.2,0.241308,0.240944,-0.0210733,12,0.0151134,10,-5.07748e-06,-4.67627,-0.0866468,-0.680926,0.551202,0.240944,
2,0,0,1,0,22371.7,0.23981,0.239492,-0.0209042,12,0.0150643,10,-5.00639e-06,-4.67977,-0.0771862,-0.764385,0.636013,0.239492,
2,0,0,1,0,22373.2,0.238312,0.238071,-0.0221026,12,0.0150141,10,-5.262e-06,-4.65556,-0.131693,-0.44801,0.381622,0.238071,
2,0,0,1,0,22374.7,0.236813,0.236481,-0.0226626,12,0.014963,10,-5.35928e-06,-4.64469,-0.191951,-0.307371,0.27028,0.236481,
2,0,0,1,0,22376.1,0.235315,0.235015,-0.0232131,12,0.0149113,10,-5.45542e-06,-4.63427,-0.237238,-0.248696,0.2238,0.235015,
2,0,0,1,0,22377.6,0.233817,0.233479,-0.0236035,12,0.0148586,10,-5.51094e-06,-4.62702,-0.355402,-0.166009,0.15116,0.233479,
2,0,0,1,0,22379.1,0.232319,0.232045,-0.0240047,12,0.0148055,10,-5.57017e-06,-4.6197,-0.290184,-0.203319,0.187455,0.2320447,
2,0,0,1,0,22380.6,0.230821,0.230497,-0.0238999,12,0.0147521,10,-5.50885e-06,-4.6216,-0.161423,-0.3655,0.345257,0.230497,
2,0,0,1,0,22382.1,0.229322,0.229066,-0.0244861,12,0.0146977,10,-5.60893e-06,-4.61108,-0.160681,-0.367187,0.351681,0.229066,
2,0,0,1,0,22383.6,0.227824,0.227535,-0.0255647,12,0.0146422,10,-5.81686e-06,-4.59236,-0.12763,-0.462272,0.462427,0.2275348,
2,0,0,1,0,22385.1,0.226326,0.226051,-0.0261308,12,0.0145858,10,-5.90689e-06,-4.58285,-0.129624,-0.455163,0.473016,0.226051,
2,0,0,1,0,22386.6,0.224828,0.22454,-0.0265985,12,0.0145283,10,-5.97244e-06,-4.57514,-0.120344,-0.490263,0.516926,0.22454,
2,0,0,1,0,22388.1,0.22333,0.222983,-0.0279813,12,0.0144692,10,-6.23938e-06,-4.55313,-0.108062,-0.545983,0.590243,0.222983,
2,0,0,1,0,22389.6,0.221831,0.221482,-0.0286664,12,0.0144091,10,-6.34908e-06,-4.54263,-0.134548,-0.438506,0.487655,0.221482,
2,0,0,1,0,22391.1,0.220333,0.219994,-0.0289828,12,0.0143481,10,-6.37605e-06,-4.53786,-0.229533,-0.257043,0.291077,0.219994,
2,0,0,1,0,22392.6,0.218835,0.218524,-0.029485,12,0.0142864,10,-6.44318e-06,-4.5304,-0.370565,-0.159216,0.181686,0.2185235,
2,0,0,1,0,22394.1,0.217337,0.217046,-0.0299141,12,0.0142242,10,-6.49275e-06,-4.52412,-0.189296,-0.311682,0.361078,0.217046,
2,0,0,1,0,22395.6,0.215839,0.215527,-0.0303604,12,0.0141612,10,-6.54349e-06,-4.51769,-0.136442,-0.432418,0.510809,0.215527,
2,0,0,1,0,22397.1,0.21434,0.214032,-0.030748,12,0.0140974,10,-6.58104e-06,-4.51218,-0.150485,-0.392066,0.469886,0.214032,
2,0,0,1,0,22398.6,0.212842,0.21255,-0.0312859,12,0.0140325,10,-6.64982e-06,-4.50465,-0.156226,-0.377658,0.464428,0.21255,
2,0,0,1,0,22400.1,0.211344,0.211025,-0.0321777,12,0.0139668,10,-6.7903e-06,-4.49245,-0.190206,-0.31019,0.391151,0.211025,
2,0,0,1,0,22401.6,0.209846,0.209511,-0.0326129,12,0.0138999,10,-6.83276e-06,-4.48661,-0.13686,-0.431097,0.549566,0.209511,
2,0,0,1,0,22403.1,0.208348,0.20802,-0.0339753,12,0.0138319,10,-7.06755e-06,-4.46884,-0.185181,-0.318607,0.415314,0.20802,
2,0,0,1,0,22404.6,0.20685,0.206588,-0.0345587,12,0.0137626,10,-7.13941e-06,-4.46144,-0.261053,-0.226007,0.303461,0.206588,
2,0,0,1,0,22406.1,0.205351,0.205055,-0.0343499,12,0.0136925,10,-7.04364e-06,-4.46407,-0.344579,-0.171223,0.231568,0.2050553,
2,0,0,1,0,22407.6,0.203853,0.203509,-0.0344459,12,0.0136221,10,-7.01006e-06,-4.46286,-0.260441,-0.226539,0.312632,0.203509,
2,0,0,1,0,22409.1,0.202355,0.202083,-0.0353938,12,0.0135511,10,-7.15249e-06,-4.45107,-0.16684,-0.353632,0.494877,0.202083,
2,0,0,1,0,22410.6,0.200857,0.200525,-0.0361473,12,0.0134787,10,-7.24844e-06,-4.44192,-0.234211,-0.25191,0.356631,0.200525,
2,0,0,1,0,22412.1,0.199359,0.199035,-0.0371305,12,0.0134053,10,-7.39028e-06,-4.43027,-0.272689,-0.216364,0.310112,0.199035,
2,0,0,1,0,22413.6,0.19786,0.197551,-0.0374528,12,0.0133315,10,-7.39883e-06,-4.42652,-0.367363,-0.160604,0.233552,0.197551,
2,0,0,1,0,22415.1,0.196362,0.196052,-0.0380665,12,0.0132571,10,-7.46304e-06,-4.41946,-0.248324,-0.237593,0.347907,0.196052,
2,0,0,1,0,22416.6,0.194864,0.194515,-0.0385232,12,0.0131813,10,-7.49333e-06,-4.41428,-0.222842,-0.264762,0.394977,0.194515,
2,0,0,1,0,22418.1,0.193366,0.193031,-0.0390585,12,0.0131047,10,-7.5395e-06,-4.40828,-0.278919,-0.211531,0.321044,0.1930313,
2,0,0,1,0,22419.6,0.191868,0.191552,-0.0396582,12,0.013027,10,-7.5966e-06,-4.40167,-0.215871,-0.273311,0.425592,0.191552,
2,0,0,1,0,22421.1,0.190369,0.190058,-0.0404581,12,0.0129488,10,-7.68938e-06,-4.39299,-0.240733,-0.245085,0.383901,0.190058,
2,0,0,1,0,22422.6,0.188871,0.188564,-0.0406538,12,0.0128693,10,-7.66584e-06,-4.3909,-0.175825,-0.335562,0.535062,0.188564,
2,0,0,1,0,22424.1,0.187373,0.187094,-0.041949,12,0.0127885,10,-7.8484e-06,-4.37728,-0.156796,-0.376286,0.616674,0.187094,
2,0,0,1,0,22425.6,0.185875,0.18554,-0.0430364,12,0.0127064,10,-7.98495e-06,-4.36616,-0.189414,-0.311487,0.516367,0.18554,
2,0,0,1,0,22427.1,0.184377,0.184083,-0.0433167,12,0.012623,10,-7.97385e-06,-4.36334,-0.162134,-0.363898,0.616744,0.184083,
2,0,0,1,0,22428.6,0.182878,0.182604,-0.0446538,12,0.0125383,10,-8.15398e-06,-4.35014,-0.250423,-0.235602,0.404186,0.1826043,
2,0,0,1,0,22430.1,0.18138,0.181054,-0.0452037,12,0.0124519,10,-8.18432e-06,-4.34483,-0.218123,-0.270489,0.475643,0.181054,
2,0,0,1,0,22431.6,0.179882,0.179572,-0.0458846,12,0.0123648,10,-8.23956e-06,-4.33833,-0.217736,-0.27097,0.487859,0.179572,
2,0,0,1,0,22433.1,0.178384,0.178048,-0.046734,12,0.0122761,10,-8.32089e-06,-4.33037,-0.222402,-0.265285,0.482829,0.178048,
2,0,0,1,0,22434.6,0.176886,0.176584,-0.0474735,12,0.0121863,10,-8.38308e-06,-4.32355,-0.224171,-0.263192,0.491166,0.176584,
2,0,0,1,0,22436.1,0.175388,0.17507,-0.0484132,12,0.0120953,10,-8.47572e-06,-4.31504,-0.15764,-0.37427,0.704391,0.17507,
2,0,0,1,0,22437.6,0.173889,0.173528,-0.0492431,12,0.0120029,10,-8.54506e-06,-4.30766,-0.178621,-0.330309,0.63382,0.173528,
2,0,0,1,0,22439.1,0.172391,0.172079,-0.0503159,12,0.0119088,10,-8.65829e-06,-4.29829,-0.152739,-0.386281,0.756256,0.172079,
2,0,0,1,0,22440.6,0.170893,0.170572,-0.0515987,12,0.0118133,10,-8.80129e-06,-4.28736,-0.196299,-0.300563,0.60086,0.170572,
2,0,0,1,0,22442.1,0.169395,0.169109,-0.0525555,12,0.0117158,10,-8.88759e-06,-4.27938,-0.222269,-0.265445,0.539073,0.169109,
2,0,0,1,0,22443.6,0.167897,0.16755,-0.0531994,12,0.0116169,10,-8.91355e-06,-4.27409,-0.162163,-0.363832,0.759061,0.16755,
2,0,0,1,0,22445.1,0.166398,0.166045,-0.0540239,12,0.0115165,10,-8.97039e-06,-4.26741,-0.175187,-0.336783,0.721972,0.166045,
2,0,0,1,0,22446.6,0.1649,0.164557,-0.0559218,12,0.011414,10,-9.20233e-06,-4.25242,-0.1274,-0.463108,1.01022,0.164557,
2,0,0,1,0,22448.1,0.163402,0.163108,-0.0574182,12,0.011309,10,-9.36535e-06,-4.24095,-0.141558,-0.416789,0.926919,0.163108,
2,0,0,1,0,22449.6,0.161904,0.161606,-0.0591397,12,0.0112016,10,-9.55734e-06,-4.22812,-0.128656,-0.458587,1.05867,0.161606,
2,0,0,1,0,22451.1,0.160406,0.160104,-0.0606197,12,0.011092,10,-9.70543e-06,-4.21739,-0.124995,-0.472019,1.11073,0.160104,
2,0,0,1,0,22452.6,0.158907,0.158564,-0.0622987,12,0.0109798,10,-9.87832e-06,-4.20552,-0.124451,-0.474082,1.16207,0.158564,
2,0,0,1,0,22454.1,0.157409,0.157092,-0.0644435,12,0.0108647,10,-1.01236e-05,-4.19082,-0.0984938,-0.599023,1.50203,0.157092,
2,0,0,1,0,22455.6,0.155911,0.155588,-0.0663731,12,0.0107461,10,-1.03269e-05,-4.17801,-0.0982387,-0.600578,1.55537,0.155588,
2,0,0,1,0,22457.1,0.154413,0.1541,-0.0684816,12,0.010624,10,-1.0553e-05,-4.16443,-0.0963005,-0.612666,1.64336,0.1541,
2,0,0,1,0,22458.5,0.152915,0.15259,-0.0710891,12,0.0104981,10,-1.08474e-05,-4.1482,-0.0907639,-0.650038,1.82014,0.15259,
2,0,0,1,0,22460,0.151417,0.151125,-0.074142,12,0.0103683,10,-1.12047e-05,-4.12994,-0.0940224,-0.62751,1.82366,0.1511251,
2,0,0,1,0,22461.5,0.149918,0.149606,-0.0774657,12,0.0102336,10,-1.15893e-05,-4.11089,-0.0803915,-0.733908,2.22426,0.149606,
2,0,0,1,0,22463,0.14842,0.148098,-0.0808301,12,0.0100938,10,-1.19708e-05,-4.09243,-0.0796867,-0.7404,2.33463,0.148098,
2,0,0,1,0,22464.5,0.146922,0.146608,-0.0845536,12,0.00994841,10,-1.23962e-05,-4.07287,-0.0744689,-0.792277,2.61632,0.146608,
2,0,0,1,0,22466,0.145424,0.14508,-0.0882304,12,0.00979756,10,-1.28004e-05,-4.05438,-0.0755553,-0.780885,2.70858,0.14508,
2,0,0,1,0,22467.5,0.143926,0.143637,-0.0929227,12,0.00963999,10,-1.33471e-05,-4.03188,-0.067284,-0.876881,3.17897,0.143637,
2,0,0,1,0,22469,0.142427,0.142082,-0.0972326,12,0.00947527,10,-1.3815e-05,-4.01219,-0.0647761,-0.91083,3.48775,0.142082,
2,0,0,1,0,22470.5,0.140929,0.140609,-0.102463,12,0.0093031,10,-1.44073e-05,-3.98943,-0.0716601,-0.823331,3.31182,0.140609,
2,0,0,1,0,22472,0.139431,0.13911,-0.107836,12,0.00912333,10,-1.50011e-05,-3.96723,-0.0687567,-0.858098,3.62259,0.13911,
2,0,0,1,0,22473.5,0.137933,0.13761,-0.113637,12,0.00893538,10,-1.56377e-05,-3.94448,-0.0719961,-0.819489,3.62126,0.13761,
2,0,0,1,0,22475,0.136435,0.136102,-0.119687,12,0.00873904,10,-1.62897e-05,-3.92195,-0.0804755,-0.733142,3.38662,0.136102,
2,0,0,1,0,22476.5,0.134936,0.134595,-0.123642,12,0.00853478,10,-1.66417e-05,-3.90783,-0.0871417,-0.677058,3.25182,0.134595,
2,0,0,1,0,22478,0.133438,0.133118,-0.127861,12,0.00832355,10,-1.70206e-05,-3.89326,-0.0998714,-0.590759,2.95863,0.1331183,
2,0,0,1,0,22479.5,0.13194,0.131603,-0.13309,12,0.00810524,10,-1.75151e-05,-3.87585,-0.105048,-0.561648,2.91983,0.131603,
2,0,0,1,0,22481,0.130442,0.130122,-0.136854,12,0.00788022,10,-1.78076e-05,-3.86374,-0.126523,-0.466318,2.48441,0.130122,
2,0,0,1,0,22482.5,0.128944,0.128621,-0.140111,12,0.00764924,10,-1.80212e-05,-3.85353,-0.177665,-0.332085,1.81131,0.1286211,
2,0,0,1,0,22484,0.127445,0.127155,-0.143155,12,0.0074144,10,-1.82028e-05,-3.84419,-0.221242,-0.266677,1.48813,0.127155,
2,0,0,1,0,22485.5,0.125947,0.125603,-0.144871,12,0.00717671,10,-1.81963e-05,-3.83902,-0.258328,-0.228392,1.28631,0.125603,
2,0,0,1,0,22487,0.124449,0.124141,-0.146703,12,0.00693584,10,-1.82118e-05,-3.83356,-0.364248,-0.161978,0.921303,0.124141,
2,0,0,1,0,22488.5,0.122951,0.122614,-0.14798,12,0.00669318,10,-1.81444e-05,-3.8298,-0.592419,-0.0995918,0.570637,0.122614,
2,0,0,1,0,22490,0.121453,0.121125,-0.148119,12,0.0064492,10,-1.79409e-05,-3.82939,-1.09405,-0.0539283,0.310615,0.121125,
2,0,0,1,0,22491.5,0.119955,0.119648,-0.147622,12,0.00620538,10,-1.76627e-05,-3.83085,-6.82325,-0.0086469,0.0500109,0.119648,
2,0,0,1,0,22493,0.118456,0.118113,-0.147548,12,0.00596096,10,-1.74272e-05,-3.83107,-3.00359,-0.0196432,0.112901,0.118113,
2,0,0,1,0,22494.5,0.116958,0.11661,-0.148392,12,0.00571652,10,-1.7304e-05,-3.82859,2.39903,0.0245933,-0.141902,0.11661,
2,0,0,1,0,22496,0.11546,0.11511,-0.146794,12,0.00547303,10,-1.68974e-05,-3.83329,0.772661,0.0763594,-0.439513,0.11511,
2,0,0,1,0,22497.5,0.113962,0.113611,-0.145963,12,0.00523045,10,-1.6583e-05,-3.83576,0.743113,0.0793957,-0.453992,0.113611,
2,0,0,1,0,22499,0.112464,0.112156,-0.145557,12,0.00498861,10,-1.63251e-05,-3.83697,0.849938,0.0694168,-0.395424,0.112156,
2,0,0,1,0,22500.5,0.110965,0.11065,-0.145915,12,0.00474749,10,-1.61455e-05,-3.8359,0.776807,0.075952,-0.430944,0.11065,
2,0,0,1,0,22502,0.109467,0.109134,-0.14538,12,0.00450716,10,-1.58659e-05,-3.8375,0.565994,0.104241,-0.591894,0.109134,
2,0,0,1,0,22503.5,0.107969,0.107663,-0.144304,12,0.00426782,10,-1.55363e-05,-3.84072,0.857149,0.0688329,-0.388379,0.107663,
2,0,0,1,0,22505,0.106471,0.106164,-0.143456,12,0.00402929,10,-1.52298e-05,-3.84328,1.05629,0.055856,-0.315146,0.106164,
2,0,0,1,0,22506.5,0.104973,0.104645,-0.143512,12,0.0037916,10,-1.50179e-05,-3.84311,0.877971,0.0672004,-0.37633,0.104645,
2,0,0,1,0,22508,0.103474,0.10316,-0.142734,12,0.0035546,10,-1.47244e-05,-3.84547,0.538942,0.109474,-0.607838,0.10316,
2,0,0,1,0,22509.5,0.101976,0.101659,-0.142251,12,0.00331889,10,-1.44612e-05,-3.84694,0.679327,0.0868507,-0.47954,0.101659,
2,0,0,1,0,22511,0.100478,0.100171,-0.140915,12,0.00308493,10,-1.41157e-05,-3.85104,0.485429,0.121542,-0.669632,0.100171,
2,0,0,1,0,22512.5,0.0989798,0.0986943,-0.140628,12,0.00285194,10,-1.38792e-05,-3.85193,0.502912,0.117317,-0.638119,0.0986943,
2,0,0,1,0,22514,0.0974816,0.0971673,-0.139436,12,0.00262015,10,-1.35486e-05,-3.85562,0.455493,0.12953,-0.701167,0.0971673,
2,0,0,1,0,22515.5,0.0959834,0.0956201,-0.137231,12,0.00239052,10,-1.3122e-05,-3.86255,0.367163,0.160692,-0.865338,0.09562014,
2,0,0,1,0,22517,0.0944852,0.0941854,-0.136253,12,0.00216346,10,-1.28331e-05,-3.86565,0.395692,0.149106,-0.796938,0.0941854,
2,0,0,1,0,22518.5,0.0929871,0.0926713,-0.135329,12,0.00193766,10,-1.25411e-05,-3.86861,0.613904,0.0961062,-0.506435,0.0926713,
2,0,0,1,0,22520,0.0914889,0.0911496,-0.135033,12,0.0017132,10,-1.23082e-05,-3.86956,0.371162,0.15896,-0.831529,0.0911496,
2,0,0,1,0,22521.5,0.0899907,0.0896883,-0.13322,12,0.00149082,10,-1.19482e-05,-3.87543,0.382443,0.154271,-0.800722,0.0896883,
2,0,0,1,0,22523,0.0884925,0.0881306,-0.131104,12,0.0012708,10,-1.15543e-05,-3.88238,0.459279,0.128462,-0.662681,0.0881306,
2,0,0,1,0,22524.5,0.0869943,0.0867022,-0.130935,12,0.00105214,10,-1.13524e-05,-3.88294,0.399577,0.147656,-0.751415,0.08670219,
2,0,0,1,0,22526,0.0854961,0.085171,-0.130014,12,0.000834587,10,-1.10734e-05,-3.88601,0.425292,0.138728,-0.702438,0.085171,
2,0,0,1,0,22527.5,0.083998,0.0836706,-0.129062,12,0.000618898,10,-1.07987e-05,-3.8892,0.310897,0.189774,-0.954728,0.0836706,
2,0,0,1,0,22529,0.0824998,0.0821775,-0.127736,12,0.000404776,10,-1.0497e-05,-3.89369,0.439166,0.134346,-0.670582,0.0821775,
2,0,0,1,0,22530.5,0.0810016,0.0807153,-0.126748,12,0.000192442,10,-1.02305e-05,-3.89706,0.548022,0.10766,-0.533905,0.0807153,
2,0,0,1,0,22532,0.0795034,0.0792349,-0.125723,12,-1.87974e-05,10,-9.96161e-06,-3.90059,0.505756,0.116657,-0.57277,0.07923492,
2,0,0,1,0,22533.5,0.0780052,0.0776792,-0.125749,12,-0.000228889,10,-9.76808e-06,-3.9005,0.504296,0.116995,-0.570455,0.0776792,
2,0,0,1,0,22535,0.076507,0.0762021,-0.124552,12,-0.000437318,10,-9.49113e-06,-3.90465,0.538197,0.109625,-0.531641,0.07620208,
2,0,0,1,0,22536.5,0.0750088,0.0747175,-0.123831,12,-0.000644104,10,-9.25231e-06,-3.90717,0.613302,0.0962006,-0.462472,0.0747175,
2,0,0,1,0,22538,0.0735106,0.073216,-0.123073,12,-0.000850387,10,-9.0109e-06,-3.90984,0.96137,0.0613708,-0.293662,0.073216,
2,0,0,1,0,22539.5,0.0720124,0.0716667,-0.121145,12,-0.00105537,10,-8.68209e-06,-3.91669,0.541931,0.10887,-0.518643,0.0716667,
2,0,0,1,0,22541,0.0705142,0.0701694,-0.121008,12,-0.00125931,10,-8.49103e-06,-3.91719,0.538366,0.109591,-0.519035,0.0701694,
2,0,0,1,0,22542.4,0.069016,0.0687283,-0.119821,12,-0.00146162,10,-8.23511e-06,-3.92147,0.62105,0.0950005,-0.44718,0.06872829,
2,0,0,1,0,22543.9,0.0675178,0.0671684,-0.11993,12,-0.00166334,10,-8.05551e-06,-3.92107,1.64936,0.0357715,-0.167159,0.0671684,
2,0,0,1,0,22545.4,0.0660196,0.065721,-0.120424,12,-0.00186412,10,-7.91439e-06,-3.91929,0.81286,0.0725832,-0.338216,0.065721,
2,0,0,1,0,22546.9,0.0645214,0.06423,-0.119094,12,-0.00206439,10,-7.6494e-06,-3.92411,0.81394,0.0724869,-0.335935,0.06423,
2,0,0,1,0,22548.4,0.0630233,0.0627063,-0.117563,12,-0.00226361,10,-7.37195e-06,-3.92973,0.749032,0.0787683,-0.362769,0.0627063,
2,0,0,1,0,22549.9,0.0615251,0.0611889,-0.117826,12,-0.00246167,10,-7.20963e-06,-3.92876,0.54136,0.108985,-0.501057,0.0611889,
2,0,0,1,0,22551.4,0.0600269,0.0597096,-0.117241,12,-0.00265886,10,-7.00044e-06,-3.93092,0.76792,0.076831,-0.351208,0.0597096,
2,0,0,1,0,22552.9,0.0585287,0.0582229,-0.116149,12,-0.00285523,10,-6.76253e-06,-3.93498,0.500285,0.117933,-0.534463,0.05822289,
2,0,0,1,0,22554.4,0.0570305,0.0566853,-0.116046,12,-0.00305096,10,-6.57813e-06,-3.93537,0.605869,0.0973807,-0.439606,0.0566853,
2,0,0,1,0,22555.9,0.0555323,0.0552166,-0.115001,12,-0.0032451,10,-6.34994e-06,-3.9393,0.730913,0.080721,-0.363864,0.0552166,
2,0,0,1,0,22557.4,0.0540342,0.0536982,-0.114628,12,-0.0034385,10,-6.15529e-06,-3.94071,0.460844,0.128026,-0.571779,0.0536982,
2,0,0,1,0,22558.9,0.052536,0.0522125,-0.114383,12,-0.00363131,10,-5.97224e-06,-3.94164,0.625337,0.0943492,-0.419028,0.0522125,
2,0,0,1,0,22560.4,0.0510378,0.0506782,-0.113739,12,-0.00382283,10,-5.76406e-06,-3.94409,0.95006,0.0621013,-0.274763,0.0506782,
2,0,0,1,0,22561.9,0.0495396,0.0492169,-0.113315,12,-0.00401347,10,-5.57699e-06,-3.94571,0.788366,0.0748383,-0.329616,0.0492169,
2,0,0,1,0,22563.4,0.0480414,0.0476666,-0.112282,12,-0.00420376,10,-5.35212e-06,-3.94969,2.92694,0.0201576,-0.0883424,0.0476666,
2,0,0,1,0,22564.9,0.0465432,0.046252,-0.11158,12,-0.00439324,10,-5.16078e-06,-3.95242,0.708631,0.0832591,-0.364607,0.046252,
2,0,0,1,0,22566.4,0.045045,0.0447505,-0.111405,12,-0.00458184,10,-4.98541e-06,-3.9531,0.490885,0.120191,-0.524665,0.0447505,
2,0,0,1,0,22567.9,0.0435468,0.0432362,-0.111036,12,-0.0047693,10,-4.80077e-06,-3.95454,0.789377,0.0747425,-0.324469,0.0432362,
2,0,0,1,0,22569.4,0.0420486,0.0417134,-0.110842,12,-0.00495629,10,-4.62359e-06,-3.9553,0.674111,0.0875227,-0.376592,0.0417134,
2,0,0,1,0,22570.9,0.0405504,0.040232,-0.110541,12,-0.00514273,10,-4.44729e-06,-3.95648,0.797802,0.0739532,-0.317506,0.040232,
2,0,0,1,0,22572.4,0.0390522,0.0386955,-0.109514,12,-0.00532798,10,-4.23768e-06,-3.96053,0.438995,0.134398,-0.573533,0.0386955,
2,0,0,1,0,22573.9,0.037554,0.0372575,-0.108566,12,-0.00551258,10,-4.0449e-06,-3.96431,0.669234,0.0881605,-0.373341,0.0372575,
2,0,0,1,0,22575.4,0.0360558,0.0357518,-0.108386,12,-0.00569604,10,-3.87501e-06,-3.96503,0.787046,0.0749639,-0.31749,0.03575179,
2,0,0,1,0,22576.9,0.0345576,0.0342439,-0.107087,12,-0.00587871,10,-3.66708e-06,-3.97026,0.764198,0.0772051,-0.324855,0.0342439,
2,0,0,1,0,22578.4,0.0330594,0.0327275,-0.106971,12,-0.00606071,10,-3.50089e-06,-3.97074,0.60928,0.0968355,-0.404116,0.0327275,
2,0,0,1,0,22579.9,0.0315613,0.0311868,-0.107074,12,-0.00624163,10,-3.3393e-06,-3.97032,0.519224,0.113631,-0.471851,0.0311868,
2,0,0,1,0,22581.4,0.0300631,0.0297309,-0.106363,12,-0.00642147,10,-3.16226e-06,-3.97321,1.49439,0.039481,-0.163446,0.0297309,
2,0,0,1,0,22582.9,0.0285649,0.0282494,-0.105485,12,-0.00660071,10,-2.9799e-06,-3.97681,0.585791,0.100718,-0.415602,0.0282494,
2,0,0,1,0,22584.4,0.0270667,0.0267129,-0.105011,12,-0.00677946,10,-2.80516e-06,-3.97876,1.26369,0.0466885,-0.191135,0.0267129,
2,0,0,1,0,22585.9,0.0255685,0.0252845,-0.104763,12,-0.00695753,10,-2.64889e-06,-3.97979,0.664234,0.0888241,-0.363409,0.0252845,
2,0,0,1,0,22587.4,0.0240703,0.0237438,-0.104562,12,-0.00713458,10,-2.48269e-06,-3.98063,1.70616,0.0345806,-0.14103,0.02374376,
2,0,0,1,0,22588.9,0.0225722,0.0222731,-0.103992,12,-0.00731139,10,-2.31622e-06,-3.983,-3.05881,-0.0192885,0.0782562,0.0222731,
2,0,0,1,0,22590.4,0.021074,0.0207302,-0.104037,12,-0.00748801,10,-2.1567e-06,-3.98281,-2.32214,-0.0254076,0.103513,0.0207302,
2,0,0,1,0,22591.9,0.0195758,0.0192658,-0.103825,12,-0.00766439,10,-2.00027e-06,-3.9837,2.43745,0.0242056,-0.0985853,0.0192658,
2,0,0,1,0,22593.4,0.0180776,0.0177324,-0.104182,12,-0.00784063,10,-1.84739e-06,-3.98221,-2.32292,-0.0253991,0.103342,0.0177324,
2,0,0,1,0,22594.9,0.0165794,0.0162764,-0.103736,12,-0.00801695,10,-1.68845e-06,-3.98407,-1.10671,-0.0533112,0.216128,0.0162764,
2,0,0,1,0,22596.4,0.0150812,0.014724,-0.104792,12,-0.00819365,10,-1.54296e-06,-3.97967,-2.06144,-0.0286208,0.116191,0.014724,
2,0,0,1,0,22597.9,0.013583,0.0132872,-0.104412,12,-0.00837054,10,-1.38734e-06,-3.98125,-1.99092,-0.0296346,0.120603,0.0132872,
2,0,0,1,0,22599.4,0.0120848,0.0117559,-0.104577,12,-0.00854747,10,-1.2294e-06,-3.98056,390.497,0.000151089,-0.000616855,0.0117559,
2,0,0,1,0,22600.9,0.0105866,0.0102247,-0.104381,12,-0.00872444,10,-1.06726e-06,-3.98138,-1.01974,-0.0578579,0.237308,0.0102247,
2,0,0,1,0,22602.4,0.00908843,0.0087687,-0.105388,12,-0.00890199,10,-9.24118e-07,-3.97721,-0.732875,-0.0805049,0.330662,0.0087687,
2,0,0,1,0,22603.9,0.00759024,0.00724809,-0.105338,12,-0.00908022,10,-7.63495e-07,-3.97742,-1.43856,-0.0410132,0.168969,0.00724809,
2,0,0,1,0,22605.4,0.00609203,0.00574226,-0.106102,12,-0.00925884,10,-6.09266e-07,-3.97428,-0.643762,-0.0916487,0.378088,0.00574226,
2,0,0,1,0,22606.9,0.00459384,0.00427683,-0.106351,12,-0.009438,10,-4.54846e-07,-3.97326,-0.598603,-0.0985628,0.409369,0.00427683,
2,0,0,1,0,22608.4,0.00309563,0.00282721,-0.107536,12,-0.00961814,10,-3.04028e-07,-3.96845,-0.440777,-0.133855,0.559941,0.00282721,
2,0,0,1,0,22609.9,0.00159744,0.0012557,-0.108163,12,-0.00980182,10,-1.3582e-07,-3.96592, , , ,0.0012557,
2,0,0,1,0,22611.3,0.000199235,-0.000197413,-0.108282,12,-0.00997202,10,2.13763e-08,-3.96544, , , ,-0.000197413,