File: Figure_codes/Fig_3-5/rawdata_trumpetplot_data/after 10th/20221101_1-115_003_TrumpetPlot_ParaChange_from10_every3_14_CV_C01_22.csv
mode,ox/red,error,control changes,counter inc.,time/s,control/V,Ewe/V,<I>/mA,cycle number,(Q-Qo)/C,I Range,P/W,log(|I|),Tafel slope mV/dec,alpha_eff,dI/d(E-IR),E-IR/V,
2,1,0,1,0,44542,2.44065e-05,-0.0002108,34.2222,23,0.0000000E+000,10,-7.21402e-06,-1.46569, , , ,-0.0002108,
2,1,0,1,0,44542,0.00332042,0.00293225,35.619,23,0.000108883,10,0.000104444,-1.44832, , , ,0.00293225,
2,1,0,1,0,44542,0.0073156,0.00695755,36.6946,23,0.000253671,10,0.000255305,-1.4354, , , ,0.00695755,
2,1,0,1,0,44542,0.0113108,0.0109616,37.6477,23,0.000402472,10,0.00041268,-1.42426,0.37456,0.157518,230.092,0.0109616,
2,1,0,1,0,44542,0.0153059,0.014953,38.5033,23,0.000554869,10,0.00057574,-1.4145,0.417159,0.141433,211.796,0.014953,
2,1,0,1,0,44542,0.0193011,0.0189264,39.2991,23,0.000710583,10,0.000743789,-1.40562,0.460416,0.128145,196.044,0.0189264,
2,1,0,1,0,44542,0.0233462,0.0230248,40.0976,23,0.000869508,10,0.00092324,-1.39688,0.494665,0.119273,186.072,0.0230248,
2,1,0,1,0,44542,0.0273414,0.0270162,40.7951,23,0.00103136,10,0.00110213,-1.38939,0.533909,0.110506,175.497,0.0270162,
2,1,0,1,0,44542,0.0313366,0.0309599,41.4817,23,0.001196,10,0.00128427,-1.38214,0.575169,0.102579,165.74,0.0309599,
2,1,0,1,0,44542,0.0353317,0.0349968,42.1194,23,0.00136326,10,0.00147405,-1.37552,0.611872,0.0964253,158.227,0.0349968,
2,1,0,1,0,44542,0.0393269,0.0389161,42.7314,23,0.00153303,10,0.00166294,-1.36925,0.651881,0.0905073,150.737,0.0389161,
2,1,0,1,0,44542,0.0433221,0.0429902,43.3226,23,0.00170522,10,0.00186245,-1.36329,0.682303,0.0864718,146.032,0.0429902,
2,1,0,1,0,44542,0.0473173,0.0469423,43.8908,23,0.00187971,10,0.00206034,-1.35763,0.71639,0.0823574,140.947,0.0469423,
2,1,0,1,0,44542,0.0513124,0.0509294,44.4461,23,0.00205645,10,0.00226362,-1.35217,0.746239,0.0790631,137.017,0.05092942,
2,1,0,1,0,44542,0.0553076,0.0549547,44.992,23,0.00223539,10,0.00247252,-1.34686,0.762245,0.0774029,135.847,0.0549547,
2,1,0,1,0,44542,0.0593028,0.0589302,45.5067,23,0.00241644,10,0.00268172,-1.34192,0.796315,0.0740913,131.548,0.0589302,
2,1,0,1,0,44542,0.0633479,0.0629672,46.0678,23,0.0025996,10,0.00290076,-1.3366,0.82554,0.0714684,128.331,0.0629672,
2,1,0,1,0,44542,0.0673431,0.0669819,46.5578,23,0.0027849,10,0.00311853,-1.33201,0.846969,0.0696601,126.442,0.06698186,
2,1,0,1,0,44542,0.0713382,0.0709393,47.0433,23,0.00297215,10,0.00333722,-1.3275,0.890603,0.0662473,121.597,0.0709393,
2,1,0,1,0,44542.1,0.0753334,0.0749137,47.5277,23,0.00316135,10,0.00356047,-1.32305,0.904801,0.0652077,120.918,0.0749137,
2,1,0,1,0,44542.1,0.0793286,0.0789337,48.0092,23,0.00335248,10,0.00378955,-1.31868,0.91572,0.0644301,120.702,0.0789337,
2,1,0,1,0,44542.1,0.0833238,0.0829208,48.4851,23,0.00354553,10,0.00402042,-1.31439,0.913849,0.0645621,122.196,0.0829208,
2,1,0,1,0,44542.1,0.0873189,0.0869355,48.9741,23,0.0037405,10,0.00425759,-1.31003,0.912962,0.0646248,123.555,0.0869355,
2,1,0,1,0,44542.1,0.0913141,0.0908887,49.4797,23,0.00393744,10,0.00449715,-1.30557,0.912826,0.0646344,124.804,0.0908887,
2,1,0,1,0,44542.1,0.0953093,0.0948992,49.9819,23,0.00413644,10,0.00474324,-1.30119,0.91138,0.064737,126.268,0.0948992,
2,1,0,1,0,44542.1,0.0993045,0.0989213,50.482,23,0.00433742,10,0.00499375,-1.29686,0.914979,0.0644823,127.068,0.0989213,
2,1,0,1,0,44542.1,0.103319,0.102938,50.9947,23,0.0045404,10,0.0052493,-1.29247,0.925196,0.0637702,126.905,0.102938,
2,1,0,1,0,44542.1,0.107345,0.106946,51.5202,23,0.00474554,10,0.0055099,-1.28802,0.928135,0.0635683,127.748,0.106946,
2,1,0,1,0,44542.1,0.11134,0.110919,52.0148,23,0.00495266,10,0.00576942,-1.28387,0.906723,0.0650695,132.16,0.110919,
2,1,0,1,0,44542.1,0.115335,0.114858,52.5179,23,0.00516172,10,0.00603211,-1.27969,0.899141,0.0656182,134.681,0.114858,
2,1,0,1,0,44542.1,0.11933,0.118905,53.1048,23,0.00537306,10,0.00631441,-1.27487,0.878578,0.067154,139.22,0.118905,
2,1,0,1,0,44542.1,0.123325,0.122968,53.678,23,0.00558667,10,0.00660068,-1.2702,0.862353,0.0684175,143.286,0.122968,
2,1,0,1,0,44542.1,0.127321,0.126921,54.2427,23,0.00580259,10,0.00688456,-1.26566,0.871271,0.0677171,143.361,0.126921,
2,1,0,1,0,44542.1,0.131316,0.130954,54.8243,23,0.00602078,10,0.00717946,-1.26103,0.863166,0.0683531,146.283,0.130954,
2,1,0,1,0,44542.1,0.135311,0.134938,55.4034,23,0.00624129,10,0.00747602,-1.25646,0.855868,0.0689358,149.12,0.134938,
2,1,0,1,0,44542.1,0.139306,0.138923,56.0119,23,0.00646418,10,0.00778134,-1.25172,0.828641,0.0712009,155.788,0.138923,
2,1,0,1,0,44542.1,0.143301,0.142929,56.6298,23,0.00668951,10,0.00809406,-1.24695,0.809304,0.0729021,161.279,0.142929,
2,1,0,1,0,44542.1,0.147346,0.146991,57.3225,23,0.00691751,10,0.00842587,-1.24167,0.800135,0.0737376,164.965,0.146991,
2,1,0,1,0,44542.1,0.151342,0.150961,57.9875,23,0.00714819,10,0.00875384,-1.23667,0.789184,0.0747608,169.154,0.150961,
2,1,0,1,0,44542.1,0.155337,0.15496,58.6574,23,0.00738153,10,0.00908952,-1.23168,0.792573,0.0744411,170.455,0.15496,
2,1,0,1,0,44542.1,0.159332,0.158966,59.3424,23,0.00761762,10,0.00943342,-1.22663,0.796868,0.0740399,171.487,0.158966,
2,1,0,1,0,44542.1,0.163327,0.16295,60.0429,23,0.00785645,10,0.00978397,-1.22154,0.799372,0.0738079,172.919,0.1629497,
2,1,0,1,0,44542.1,0.167322,0.166945,60.7287,23,0.00809805,10,0.0101384,-1.21661,0.814459,0.0724407,171.62,0.166945,
2,1,0,1,0,44542.1,0.171317,0.17097,61.4258,23,0.00834245,10,0.0105019,-1.21165,0.843475,0.0699487,167.538,0.17097,
2,1,0,1,0,44542.2,0.175313,0.174959,62.0872,23,0.00858955,10,0.0108627,-1.207,0.875161,0.0674162,163.189,0.174959,
2,1,0,1,0,44542.2,0.179308,0.178931,62.7203,23,0.00883926,10,0.0112226,-1.20259,0.908995,0.0649069,158.792,0.178931,
2,1,0,1,0,44542.2,0.183303,0.18294,63.3389,23,0.00909145,10,0.0115873,-1.19833,0.966653,0.0610353,150.746,0.18294,
2,1,0,1,0,44542.2,0.187348,0.186958,63.9647,23,0.00934607,10,0.0119587,-1.19406,1.03935,0.0567662,141.451,0.186958,
2,1,0,1,0,44542.2,0.191343,0.190955,64.4985,23,0.00960307,10,0.0123163,-1.19045,1.14751,0.0514156,129.161,0.190955,
2,1,0,1,0,44542.2,0.195338,0.194982,64.9908,23,0.00986209,10,0.0126721,-1.18715,1.326,0.0444949,112.631,0.194982,
2,1,0,1,0,44542.2,0.199334,0.198964,65.4086,23,0.0101229,10,0.013014,-1.18437,1.54357,0.0382231,97.3719,0.1989643,
2,1,0,1,0,44542.2,0.203329,0.202954,65.7663,23,0.0103853,10,0.0133475,-1.182,1.91618,0.0307904,78.8537,0.202954,
2,1,0,1,0,44542.2,0.207324,0.206958,66.0567,23,0.010649,10,0.0136709,-1.18008,2.49019,0.023693,60.93,0.206958,
2,1,0,1,0,44542.2,0.211319,0.211019,66.2554,23,0.0109137,10,0.0139811,-1.17878,3.84888,0.0153291,39.5339,0.211019,
2,1,0,1,0,44542.2,0.215314,0.214948,66.3824,23,0.011179,10,0.0142688,-1.17795,8.63568,0.00683212,17.6508,0.2149478,
2,1,0,1,0,44542.2,0.219309,0.21899,66.4002,23,0.0114446,10,0.014541,-1.17783,-48.1734,-0.00122474,-3.16566,0.21899,
2,1,0,1,0,44542.2,0.223305,0.222971,66.3394,23,0.0117101,10,0.0147918,-1.17823,-6.39782,-0.00922189,-23.8222,0.222971,
2,1,0,1,0,44542.2,0.227314,0.226981,66.2048,23,0.0119752,10,0.0150273,-1.17911,-3.34987,-0.0176126,-45.3909,0.2269813,
2,1,0,1,0,44542.2,0.231345,0.231012,65.9998,23,0.0122397,10,0.0152467,-1.18046,-2.25401,-0.0261756,-67.2163,0.2310119,
2,1,0,1,0,44542.2,0.23534,0.235005,65.6733,23,0.012503,10,0.0154336,-1.18261,-1.6691,-0.0353485,-90.3312,0.235005,
2,1,0,1,0,44542.2,0.239335,0.239028,65.2601,23,0.0127648,10,0.015599,-1.18535,-1.31991,-0.0447001,-113.548,0.2390275,
2,1,0,1,0,44542.2,0.24333,0.242988,64.7589,23,0.0130249,10,0.0157356,-1.1887,-1.10538,-0.0533754,-134.548,0.242988,
2,1,0,1,0,44542.2,0.247326,0.246982,64.1864,23,0.0132827,10,0.0158529,-1.19256,-0.949419,-0.0621433,-155.252,0.246982,
2,1,0,1,0,44542.2,0.251321,0.251007,63.5203,23,0.0135381,10,0.015944,-1.19709,-0.84189,-0.0700804,-173.291,0.2510069,
2,1,0,1,0,44542.2,0.255316,0.25497,62.7851,23,0.0137907,10,0.0160083,-1.20214,-0.75112,-0.0785493,-192.007,0.25497,
2,1,0,1,0,44542.2,0.259311,0.259014,61.9818,23,0.0140401,10,0.0160541,-1.20774,-0.680809,-0.0866616,-209.131,0.259014,
2,1,0,1,0,44542.2,0.263306,0.263018,61.1073,23,0.0142862,10,0.0160723,-1.21391,-0.639024,-0.0923284,-219.804,0.263018,
2,1,0,1,0,44542.2,0.267301,0.266988,60.1781,23,0.0145287,10,0.0160669,-1.22056,-0.589382,-0.100105,-234.727,0.266988,
2,1,0,1,0,44542.2,0.271347,0.271049,59.2509,23,0.0147675,10,0.0160599,-1.22731,-0.55453,-0.106396,-245.481,0.271049,
2,1,0,1,0,44542.3,0.275342,0.275034,58.2215,23,0.0150024,10,0.0160129,-1.23492,-0.527159,-0.111921,-253.857,0.275034,
2,1,0,1,0,44542.3,0.279337,0.27904,57.1743,23,0.0152331,10,0.0159539,-1.2428,-0.496728,-0.118777,-264.745,0.2790398,
2,1,0,1,0,44542.3,0.283332,0.283027,56.1066,23,0.0154596,10,0.0158797,-1.25099,-0.483863,-0.121935,-266.81,0.283027,
2,1,0,1,0,44542.3,0.287327,0.287007,55.026,23,0.0156817,10,0.0157928,-1.25943,-0.471456,-0.125144,-268.651,0.287007,
2,1,0,1,0,44542.3,0.291322,0.29098,53.9669,23,0.0158996,10,0.0157033,-1.26787,-0.466508,-0.126472,-266.482,0.29098,
2,1,0,1,0,44542.3,0.295318,0.294971,52.8943,23,0.0161132,10,0.0156023,-1.27659,-0.465726,-0.126684,-263.613,0.294971,
2,1,0,1,0,44542.3,0.299013,0.298712,51.9267,23,0.0163071,10,0.0155111,-1.28461,-0.171116,-0.344795,-690.212,0.298712,
2,1,0,0,0,44542.3,0.300012,0.299823,51.6475,23,0.0163589,10,0.0154851,-1.28695,0.00457343,12.9006,23727.9,0.299823,
2,1,0,1,0,44542.3,0.298714,0.298598,48.7089,23,0.016423,10,0.0145444,-1.31239,0.0531405,1.11026,1893.73,0.298598,
2,1,0,1,0,44542.3,0.294718,0.294504,41.7984,23,0.0166026,10,0.0123098,-1.37884,0.0630493,0.935776,1493.26,0.294504,
2,1,0,1,0,44542.3,0.290723,0.290513,36.4,23,0.0167582,10,0.0105747,-1.4389,0.0651626,0.905428,1312.88,0.290513,
2,1,0,1,0,44542.3,0.286728,0.28649,31.7385,23,0.0168939,10,0.00909277,-1.49841,0.0657206,0.897739,1120.66,0.28649,
2,1,0,1,0,44542.3,0.282733,0.282512,27.5894,23,0.017012,10,0.00779434,-1.55926,0.0637944,0.924846,998.104,0.282512,
2,1,0,1,0,44542.3,0.278738,0.278483,23.8446,23,0.0171144,10,0.00664033,-1.62261,0.060721,0.971657,902.772,0.278483,
2,1,0,1,0,44542.3,0.274742,0.274517,20.434,23,0.0172025,10,0.00560949,-1.68965,0.0570539,1.03411,819.121,0.274517,
2,1,0,1,0,44542.3,0.270747,0.27052,17.3214,23,0.0172777,10,0.00468581,-1.76142,0.0525313,1.12314,750.124,0.27052,
2,1,0,1,0,44542.3,0.266702,0.266432,14.418,23,0.0173407,10,0.0038414,-1.8411,0.0473165,1.24692,689.764,0.266432,
2,1,0,1,0,44542.3,0.262707,0.262408,11.7866,23,0.0173928,10,0.0030929,-1.92861,0.041344,1.42705,637.325,0.262408,
2,1,0,1,0,44542.3,0.258712,0.258441,9.34554,23,0.0174348,10,0.00241527,-2.0294,0.0345251,1.7089,591.761,0.258441,
2,1,0,1,0,44542.3,0.254717,0.254443,7.07466,23,0.0174674,10,0.00180009,-2.15029,0.0270463,2.18145,548.066,0.254443,
2,1,0,1,0,44542.3,0.250722,0.25047,4.97275,23,0.0174912,10,0.00124553,-2.3034,0.0177824,3.31788,511.225,0.25047,
2,1,0,1,0,44542.3,0.246726,0.246412,3.0196,23,0.0175069,10,0.000744066,-2.52005,0.0142221,4.14846,475.381,0.246412,
2,1,0,1,0,44542.3,0.242731,0.242473,1.18196,23,0.0175151,10,0.000286594,-2.9274,0.0433472,1.3611,442.16,0.242473,
2,0,0,1,0,44542.3,0.238736,0.238444,-0.530659,23,0.0175162,10,-0.000126533,-3.27518,-0.200192,-0.294717,416.789,0.238444,
2,0,0,1,0,44542.3,0.234741,0.234427,-2.12077,23,0.0175107,10,-0.000497168,-2.67351,-0.0252742,-2.3344,391.241,0.234427,
2,0,0,1,0,44542.3,0.230746,0.230464,-3.62757,23,0.0174991,10,-0.000836023,-2.44038,-0.0147944,-3.988,366.513,0.230464,
2,0,0,1,0,44542.3,0.226701,0.226469,-5.07935,23,0.0174815,10,-0.00115032,-2.29419,-0.0287245,-2.05399,345.418,0.226469,
2,0,0,1,0,44542.4,0.222705,0.222455,-6.39077,23,0.0174584,10,-0.00142166,-2.19445,-0.0415705,-1.41928,323.831,0.222455,
2,0,0,1,0,44542.4,0.21871,0.218427,-7.64764,23,0.0174302,10,-0.00167045,-2.11647,-0.0550115,-1.0725,303.116,0.218427,
2,0,0,1,0,44542.4,0.214715,0.214412,-8.82551,23,0.0173971,10,-0.0018923,-2.05426,-0.0679078,-0.868825,287.97,0.2144123,
2,0,0,1,0,44542.4,0.21072,0.210417,-9.9451,23,0.0173595,10,-0.00209261,-2.00239,-0.0814679,-0.724212,273.277,0.210417,
2,0,0,1,0,44542.4,0.206725,0.206408,-11.0119,23,0.0173175,10,-0.00227294,-1.95814,-0.0952846,-0.619198,260.302,0.206408,
2,0,0,1,0,44542.4,0.202729,0.202434,-12.0182,23,0.0172713,10,-0.00243289,-1.92016,-0.109751,-0.537579,247.908,0.202434,
2,0,0,1,0,44542.4,0.198734,0.198433,-12.9849,23,0.0172212,10,-0.00257664,-1.88656,-0.124311,-0.474616,237.271,0.198433,
2,0,0,1,0,44542.4,0.194739,0.194428,-13.9088,23,0.0171673,10,-0.00270427,-1.85671,-0.139205,-0.423835,227.587,0.194428,
2,0,0,1,0,44542.4,0.190744,0.190471,-14.7932,23,0.0171098,10,-0.00281768,-1.82994,-0.154111,-0.38284,219.237,0.190471,
2,0,0,1,0,44542.4,0.186735,0.18643,-15.6604,23,0.0170488,10,-0.00291957,-1.8052,-0.169179,-0.348744,211.567,0.18643,
2,0,0,1,0,44542.4,0.182704,0.182389,-16.5024,23,0.0169843,10,-0.00300985,-1.78245,-0.184737,-0.319373,204.189,0.182389,
2,0,0,1,0,44542.4,0.178709,0.178382,-17.3037,23,0.0169166,10,-0.00308666,-1.76186,-0.199722,-0.295411,198.302,0.178382,
2,0,0,1,0,44542.4,0.174713,0.17437,-18.0809,23,0.0168458,10,-0.00315277,-1.74278,-0.213843,-0.275903,193.894,0.17437,
2,0,0,1,0,44542.4,0.170718,0.170406,-18.838,23,0.0167719,10,-0.00321011,-1.72497,-0.226681,-0.260277,190.811,0.170406,
2,0,0,1,0,44542.4,0.166723,0.16641,-19.6007,23,0.0166949,10,-0.00326174,-1.70773,-0.237107,-0.248832,189.937,0.16641,
2,0,0,1,0,44542.4,0.162728,0.162428,-20.3478,23,0.016615,10,-0.00330506,-1.69148,-0.245724,-0.240107,190.458,0.162428,
2,0,0,1,0,44542.4,0.158733,0.158397,-21.1147,23,0.016532,10,-0.00334452,-1.67541,-0.252658,-0.233517,192.301,0.158397,
2,0,0,1,0,44542.4,0.154738,0.15439,-21.8884,23,0.0164459,10,-0.00337935,-1.65979,-0.256679,-0.229859,196.312,0.1543901,
2,0,0,1,0,44542.4,0.150742,0.15042,-22.6755,23,0.0163567,10,-0.00341085,-1.64444,-0.255238,-0.231157,204.932,0.15042,
2,0,0,1,0,44542.4,0.146747,0.146396,-23.4952,23,0.0162642,10,-0.00343959,-1.62902,-0.253637,-0.232616,213.825,0.1463957,
2,0,0,1,0,44542.4,0.142702,0.14238,-24.3972,23,0.0161684,10,-0.00347368,-1.61266,-0.251246,-0.234829,223.869,0.14238,
2,0,0,1,0,44542.4,0.138707,0.138431,-25.3009,23,0.0160689,10,-0.00350242,-1.59686,-0.245707,-0.240123,237.508,0.138431,
2,0,0,1,0,44542.4,0.134712,0.134376,-26.2673,23,0.0159657,10,-0.00352969,-1.58059,-0.242036,-0.243765,250.613,0.134376,
2,0,0,1,0,44542.4,0.130717,0.130426,-27.2881,23,0.0158585,10,-0.00355908,-1.56403,-0.236485,-0.249487,266.6,0.130426,
2,0,0,1,0,44542.4,0.126721,0.126448,-28.3899,23,0.015747,10,-0.00358985,-1.54684,-0.228839,-0.257823,286.662,0.126448,
2,0,0,1,0,44542.5,0.122726,0.12241,-29.5719,23,0.015631,10,-0.00361991,-1.52912,-0.223803,-0.263624,305.157,0.12241,
2,0,0,1,0,44542.5,0.118731,0.118447,-30.8336,23,0.0155101,10,-0.00365214,-1.51098,-0.221135,-0.266806,321.686,0.118447,
2,0,0,1,0,44542.5,0.114736,0.114441,-32.1659,23,0.0153839,10,-0.00368111,-1.4926,-0.219857,-0.268357,337.029,0.114441,
2,0,0,1,0,44542.5,0.110741,0.110435,-33.5411,23,0.0152524,10,-0.00370412,-1.47442,-0.220623,-0.267424,350.191,0.1104352,
2,0,0,1,0,44542.5,0.106745,0.106489,-34.9378,23,0.0151153,10,-0.0037205,-1.4567,-0.225923,-0.261151,356.029,0.106489,
2,0,0,1,0,44542.5,0.102703,0.102467,-36.4294,23,0.0149725,10,-0.00373282,-1.43855,-0.231798,-0.254532,361.071,0.102467,
2,0,0,1,0,44542.5,0.0987052,0.0984664,-37.8535,23,0.0148238,10,-0.00372729,-1.42189,-0.24196,-0.243842,359.313,0.0984664,
2,0,0,1,0,44542.5,0.09471,0.0944623,-39.3085,23,0.0146693,10,-0.00371317,-1.40551,-0.255197,-0.231194,353.672,0.09446229,
2,0,0,1,0,44542.5,0.0907148,0.090384,-40.7247,23,0.0145091,10,-0.00368086,-1.39014,-0.267594,-0.220483,349.212,0.090384,
2,0,0,1,0,44542.5,0.0867197,0.0864265,-42.1026,23,0.0143433,10,-0.00363878,-1.37569,-0.284703,-0.207234,339.431,0.0864265,
2,0,0,1,0,44542.5,0.0827245,0.0824638,-43.4418,23,0.014172,10,-0.00358237,-1.36209,-0.301333,-0.195796,330.925,0.0824638,
2,0,0,1,0,44542.5,0.0787293,0.0784406,-44.7467,23,0.0139955,10,-0.00350996,-1.34924,-0.32595,-0.18101,314.838,0.0784406,
2,0,0,1,0,44542.5,0.0747341,0.0744524,-45.9968,23,0.0138139,10,-0.00342457,-1.33727,-0.349934,-0.168603,301.328,0.0744524,
2,0,0,1,0,44542.5,0.070739,0.0704663,-47.1275,23,0.0136275,10,-0.0033209,-1.32673,-0.374401,-0.157585,289.161,0.0704663,
2,0,0,1,0,44542.5,0.0667438,0.0665736,-48.2299,23,0.0134367,10,-0.00321084,-1.31668,-0.402555,-0.146564,275.498,0.0665736,
2,0,0,1,0,44542.5,0.0627403,0.0624719,-49.3642,23,0.0132413,10,-0.00308388,-1.30659,-0.431188,-0.136831,262.735,0.0624719,
2,0,0,1,0,44542.5,0.0587035,0.0584721,-50.3993,23,0.0130416,10,-0.00294695,-1.29758,-0.468893,-0.125828,246.454,0.0584721,
2,0,0,1,0,44542.5,0.0547083,0.0544585,-51.3333,23,0.0128381,10,-0.00279553,-1.2896,-0.520695,-0.11331,226.193,0.0544585,
2,0,0,1,0,44542.5,0.0507132,0.0504766,-52.1971,23,0.0126309,10,-0.00263473,-1.28235,-0.58053,-0.101631,206.371,0.0504766,
2,0,0,1,0,44542.5,0.046718,0.0464927,-52.9786,23,0.0124205,10,-0.00246312,-1.2759,-0.632724,-0.0932476,192.336,0.0464927,
2,0,0,1,0,44542.5,0.0427228,0.0424949,-53.6966,23,0.012207,10,-0.00228183,-1.27005,-0.692665,-0.0851782,178.197,0.0424949,
2,0,0,1,0,44542.5,0.0387276,0.0385152,-54.3997,23,0.0119907,10,-0.00209522,-1.2644,-0.751536,-0.0785059,166.361,0.0385152,
2,0,0,1,0,44542.5,0.0347325,0.0345313,-55.0385,23,0.0117718,10,-0.00190055,-1.25933,-0.808145,-0.0730067,156.534,0.0345313,
2,0,0,1,0,44542.5,0.0307373,0.0304975,-55.6396,23,0.0115503,10,-0.00169687,-1.25462,-0.893173,-0.0660566,143.18,0.03049751,
2,0,0,1,0,44542.5,0.0267421,0.0264945,-56.2012,23,0.0113266,10,-0.00148902,-1.25025,-0.962111,-0.0613235,134.298,0.0264945,
2,0,0,1,0,44542.6,0.022747,0.022483,-56.6952,23,0.0111007,10,-0.00127468,-1.24645,-1.07122,-0.0550775,121.688,0.022483,
2,0,0,1,0,44542.6,0.0187018,0.018393,-57.2058,23,0.0108729,10,-0.00105219,-1.24256,-1.21523,-0.0485505,108.126,0.018393,
2,0,0,1,0,44542.6,0.0147067,0.0144175,-57.5964,23,0.0106432,10,-0.000830396,-1.23961,-1.37041,-0.0430527,96.5613,0.0144175,
2,0,0,1,0,44542.6,0.0107115,0.0104314,-57.938,23,0.0104121,10,-0.000604377,-1.23704,-1.61925,-0.0364366,82.2805,0.0104314,
2,0,0,1,0,44542.6,0.00671632,0.00636902,-58.2512,23,0.0101797,10,-0.000371003,-1.23469,-1.81591,-0.0324907,73.7792,0.00636902,
2,0,0,1,0,44542.6,0.00272115,0.00237765,-58.5236,23,0.00994609,10,-0.000139149,-1.23267,-2.1039,-0.0280431,63.9702,0.00237765,
2,0,0,1,0,44542.6,-0.00127403,-0.00159463,-58.7777,23,0.0097114,10,9.37288e-05,-1.23079,-2.56745,-0.02298,52.6177,-0.00159463,
2,0,0,1,0,44542.6,-0.0052692,-0.0056369,-58.9659,23,0.0094759,10,0.000332385,-1.2294,-3.25301,-0.0181371,41.6601,-0.0056369,
2,0,0,1,0,44542.6,-0.00926438,-0.00959964,-59.0915,23,0.00923976,10,0.000567257,-1.22848,-4.70975,-0.0125272,28.8492,-0.00959964,
2,0,0,1,0,44542.6,-0.0132596,-0.0136037,-59.1894,23,0.00900317,10,0.000805197,-1.22776,-6.30826,-0.00935282,21.5863,-0.0136037,
2,0,0,1,0,44542.6,-0.0172547,-0.0176227,-59.2401,23,0.0087663,10,0.00104397,-1.22738,-11.1893,-0.00527291,12.1803,-0.0176227,
2,0,0,1,0,44542.6,-0.0212915,-0.021666,-59.3119,23,0.00852923,10,0.00128505,-1.22686,-75.8805,-0.000777539,1.79653,-0.021666,
2,0,0,1,0,44542.6,-0.025295,-0.025686,-59.2874,23,0.008292,10,0.00152286,-1.22704,17.5201,0.00336756,-7.77746,-0.025686,
2,0,0,1,0,44542.6,-0.0292902,-0.029635,-59.2182,23,0.00805498,10,0.00175493,-1.22755,6.96518,0.00847071,-19.5559,-0.029635,
2,0,0,1,0,44542.6,-0.0332854,-0.0336603,-59.1154,23,0.00781831,10,0.00198984,-1.2283,4.98232,0.0118419,-27.2987,-0.0336603,
2,0,0,1,0,44542.6,-0.0372805,-0.0376516,-58.9993,23,0.00758209,10,0.00222142,-1.22915,4.08927,0.014428,-33.1944,-0.0376516,
2,0,0,1,0,44542.6,-0.0412757,-0.041677,-58.8509,23,0.0073464,10,0.00245272,-1.23025,3.45473,0.017078,-39.1922,-0.041677,
2,0,0,1,0,44542.6,-0.0452709,-0.0456747,-58.6857,23,0.00711133,10,0.00268045,-1.23147,3.01929,0.019541,-44.7216,-0.0456747,
2,0,0,1,0,44542.6,-0.0492661,-0.0495823,-58.4914,23,0.00687699,10,0.00290014,-1.23291,2.73251,0.0215919,-49.2598,-0.0495823,
2,0,0,1,0,44542.6,-0.0532612,-0.0536118,-58.2855,23,0.00664344,10,0.00312479,-1.23444,2.59721,0.0227167,-51.6628,-0.0536118,
2,0,0,1,0,44542.6,-0.0572564,-0.0576202,-58.0655,23,0.00641076,10,0.00334574,-1.23608,2.67929,0.0220208,-49.9209,-0.0576202,
2,0,0,1,0,44542.6,-0.0612544,-0.0616041,-57.8628,23,0.00617893,10,0.00356459,-1.2376,2.57116,0.0229469,-51.824,-0.0616041,
2,0,0,1,0,44542.6,-0.0652967,-0.06571,-57.6863,23,0.00594777,10,0.00379056,-1.23893,2.50854,0.0235196,-52.9081,-0.06571,
2,0,0,1,0,44542.6,-0.0692919,-0.0696622,-57.4537,23,0.00571751,10,0.00400235,-1.24068,2.47759,0.0238134,-53.3772,-0.0696622,
2,0,0,1,0,44542.6,-0.0732871,-0.0736461,-57.2176,23,0.0054882,10,0.00421385,-1.24247,2.39202,0.0246653,-55.1051,-0.0736461,
2,0,0,1,0,44542.7,-0.0772822,-0.0776269,-57.0075,23,0.00525977,10,0.00442532,-1.24407,2.46263,0.0239582,-53.3208,-0.0776269,
2,0,0,1,0,44542.7,-0.0812774,-0.0816638,-56.8071,23,0.00503217,10,0.00463909,-1.2456,2.64591,0.0222986,-49.4493,-0.0816638,
2,0,0,1,0,44542.7,-0.0852726,-0.0856329,-56.6022,23,0.00480537,10,0.00484701,-1.24717,2.76712,0.0213218,-47.1226,-0.0856329,
2,0,0,1,0,44542.7,-0.0892678,-0.0895967,-56.4289,23,0.00457931,10,0.00505584,-1.2485,2.90394,0.0203172,-44.7604,-0.0895967,
2,0,0,1,0,44542.7,-0.0932629,-0.0936475,-56.2526,23,0.00435398,10,0.00526792,-1.24986,3.3383,0.0176737,-38.8265,-0.0936475,
2,0,0,1,0,44542.7,-0.0972581,-0.0975731,-56.095,23,0.0041293,10,0.00547337,-1.25108,3.94105,0.0149706,-32.8145,-0.0975731,
2,0,0,1,0,44542.7,-0.101253,-0.101637,-55.9808,23,0.00390517,10,0.0056897,-1.25196,4.39867,0.0134131,-29.3238,-0.101637,
2,0,0,1,0,44542.7,-0.105298,-0.105674,-55.9013,23,0.00368141,10,0.00590729,-1.25258,5.19233,0.0113629,-24.7873,-0.105674,
2,0,0,1,0,44542.7,-0.109294,-0.109643,-55.7836,23,0.00345804,10,0.00611626,-1.25349,5.65917,0.0104256,-22.7034,-0.109643,
2,0,0,1,0,44542.7,-0.113289,-0.113669,-55.696,23,0.00323511,10,0.00633091,-1.25418,6.48343,0.00910012,-19.7972,-0.113669,
2,0,0,1,0,44542.7,-0.117284,-0.117616,-55.618,23,0.00301248,10,0.00654156,-1.25478,8.86324,0.00665671,-14.462,-0.117616,
2,0,0,1,0,44542.7,-0.121279,-0.121628,-55.5854,23,0.00279008,10,0.00676077,-1.25504,12.6401,0.00466769,-10.1312,-0.121628,
2,0,0,1,0,44542.7,-0.125274,-0.125612,-55.5526,23,0.00256781,10,0.0069781,-1.2553,24.5378,0.00240446,-5.21518,-0.125612,
2,0,0,1,0,44542.7,-0.129269,-0.129622,-55.5344,23,0.00234563,10,0.00719847,-1.25544,54.9303,0.00107409,-2.32927,-0.1296218,
2,0,0,1,0,44542.7,-0.133265,-0.133648,-55.5344,23,0.00212351,10,0.00742207,-1.25544,-48.8775,-0.0012071,2.61803,-0.133648,
2,0,0,1,0,44542.7,-0.13726,-0.137648,-55.5481,23,0.00190135,10,0.00764609,-1.25533,-13.5467,-0.00435529,9.45223,-0.137648,
2,0,0,1,0,44542.7,-0.141255,-0.141579,-55.5944,23,0.00167904,10,0.007871,-1.25497,-10.1329,-0.00582261,12.6425,-0.141579,
2,0,0,1,0,44542.7,-0.145286,-0.145629,-55.6857,23,0.00145654,10,0.00810943,-1.25426,-7.62709,-0.00773559,16.8103,-0.145629,
2,0,0,1,0,44542.7,-0.149295,-0.149677,-55.7371,23,0.00123365,10,0.00834257,-1.25386,-6.98424,-0.00844759,18.3771,-0.149677,
2,0,0,1,0,44542.7,-0.15329,-0.153629,-55.8168,23,0.00101054,10,0.0085751,-1.25324,-6.83415,-0.00863311,18.8125,-0.153629,
2,0,0,1,0,44542.7,-0.157286,-0.157632,-55.8894,23,0.00078713,10,0.00880999,-1.25267,-5.69704,-0.0103563,22.6002,-0.157632,
2,0,0,1,0,44542.7,-0.161281,-0.161633,-55.9868,23,0.000563354,10,0.00904934,-1.25191,-5.42578,-0.010874,23.768,-0.161633,
2,0,0,1,0,44542.7,-0.165276,-0.165631,-56.0976,23,0.000339167,10,0.00929151,-1.25106,-4.98893,-0.0118262,25.8904,-0.165631,
2,0,0,1,0,44542.7,-0.169271,-0.169629,-56.197,23,0.000114565,10,0.00953264,-1.25029,-4.73623,-0.0124572,27.3248,-0.169629,
2,0,0,1,0,44542.7,-0.173266,-0.173599,-56.3028,23,-0.000110451,10,0.00977411,-1.24947,-4.77509,-0.0123558,27.1551,-0.173599,
2,0,0,1,0,44542.8,-0.177261,-0.177622,-56.4237,23,-0.00033591,10,0.0100221,-1.24854,-4.43086,-0.0133157,29.3254,-0.177622,
2,0,0,1,0,44542.8,-0.181257,-0.181599,-56.5312,23,-0.00056184,10,0.010266,-1.24771,-4.03886,-0.0146081,32.246,-0.181599,
2,0,0,1,0,44542.8,-0.185252,-0.185594,-56.6652,23,-0.000788258,10,0.0105167,-1.24668,-4.15576,-0.0141972,31.4016,-0.185594,
2,0,0,1,0,44542.8,-0.189297,-0.189649,-56.8204,23,-0.0010153,10,0.0107759,-1.2455,-4.07838,-0.0144665,32.0614,-0.189649,
2,0,0,1,0,44542.8,-0.193292,-0.19361,-56.9257,23,-0.00124282,10,0.0110214,-1.24469,-4.23528,-0.0139306,30.9303,-0.19361,
2,0,0,1,0,44542.8,-0.197287,-0.197629,-57.0452,23,-0.00147078,10,0.0112738,-1.24378,28.0365,0.0021044,-4.66446,-0.1976289,
2,0,0,0,0,44542.8,-0.199984,-0.200265,-57.119,23,-0.0016249,10,0.0114389,-1.24322,0.0632554,0.932727,-1943.09,-0.200265,
2,0,0,0,1,44542.8,-0.199984,-0.200551,-56.7695,23,-0.00165901,10,0.0113852,-1.24588,-0.0402162,-1.46707,2881.86,-0.200551,
2,0,0,1,1,44542.8,-0.196688,-0.197182,-49.984,23,-0.00182161,10,0.00985597,-1.30117,-0.069199,-0.852614,1587.94,-0.197182,
2,0,0,1,1,44542.8,-0.192693,-0.193161,-44.1704,23,-0.00200893,10,0.00853201,-1.35487,-0.0748332,-0.78842,1390.17,-0.193161,
2,0,0,1,1,44542.8,-0.188698,-0.189117,-39.4166,23,-0.00217543,10,0.00745435,-1.40432,-0.0810405,-0.728031,1140.08,-0.189117,
2,0,0,1,1,44542.8,-0.184653,-0.185098,-35.2868,23,-0.00232431,10,0.00653152,-1.45239,-0.0834117,-0.707335,984.87,-0.185098,
2,0,0,1,1,44542.8,-0.180657,-0.181108,-31.6575,23,-0.00245773,10,0.00573342,-1.49952,-0.0835924,-0.705806,877.091,-0.181108,
2,0,0,1,1,44542.8,-0.176662,-0.177097,-28.3494,23,-0.00257735,10,0.00502059,-1.54746,-0.0817592,-0.721632,799.636,-0.177097,
2,0,0,1,1,44542.8,-0.172667,-0.173028,-25.3055,23,-0.00268428,10,0.00437858,-1.59678,-0.0787538,-0.74917,738.833,-0.173028,
2,0,0,1,1,44542.8,-0.168672,-0.169059,-22.4617,23,-0.00277948,10,0.00379736,-1.64856,-0.0744469,-0.792511,691.961,-0.1690594,
2,0,0,1,1,44542.8,-0.164677,-0.165066,-19.8053,23,-0.00286371,10,0.00326918,-1.70322,-0.0694556,-0.849463,651.673,-0.165066,
2,0,0,1,1,44542.8,-0.160681,-0.161131,-17.3011,23,-0.00293761,10,0.00278774,-1.76193,-0.0641708,-0.919422,613.575,-0.161131,
2,0,0,1,1,44542.8,-0.156686,-0.157091,-14.9193,23,-0.0030018,10,0.00234367,-1.82625,-0.0576545,-1.02334,585.372,-0.157091,
2,0,0,1,1,44542.8,-0.152691,-0.153097,-12.6676,23,-0.00305672,10,0.00193938,-1.8973,-0.0508453,-1.16038,557.419,-0.153097,
2,0,0,1,1,44542.8,-0.148696,-0.149151,-10.4893,23,-0.00310279,10,0.0015645,-1.97925,-0.043468,-1.35732,533.029,-0.149151,
2,0,0,1,1,44542.8,-0.14467,-0.145133,-8.38392,23,-0.00314034,10,0.00121679,-2.07655,-0.0355272,-1.6607,510.528,-0.145133,
2,0,0,1,1,44542.8,-0.140656,-0.141099,-6.39505,23,-0.00316964,10,0.000902332,-2.19416,-0.0268267,-2.1993,488.568,-0.141099,
2,0,0,1,1,44542.8,-0.136661,-0.137059,-4.47999,23,-0.0031912,10,0.000614026,-2.34872,-0.0162093,-3.63989,468.649,-0.137059,
2,0,0,1,1,44542.8,-0.132665,-0.133091,-2.64299,23,-0.00320525,10,0.00035176,-2.5779,-0.0184877,-3.1913,455.131,-0.133091,
2,0,0,1,1,44542.8,-0.12867,-0.12907,-0.855989,23,-0.00321204,10,0.000110483,-3.06753,-0.0648871,-0.909271,440.477,-0.12907,
2,1,0,1,1,44542.9,-0.124675,-0.125126,0.874724,23,-0.00321181,10,-0.00010945,-3.05813,0.0803216,0.734547,427.765,-0.125126,
2,1,0,1,1,44542.9,-0.12068,-0.121113,2.54402,23,-0.00320479,10,-0.000308115,-2.59448,0.0192387,3.06673,415.269,-0.121113,
2,1,0,1,1,44542.9,-0.116685,-0.117157,4.17333,23,-0.00319118,10,-0.000488933,-2.37952,0.0172721,3.41592,403.723,-0.117157,
2,1,0,1,1,44542.9,-0.112689,-0.113146,5.7568,23,-0.00317116,10,-0.00065136,-2.23982,0.0294691,2.0021,394.358,-0.113146,
2,1,0,1,1,44542.9,-0.108694,-0.10921,7.30024,23,-0.00314486,10,-0.000797259,-2.13666,0.0407232,1.44881,384.149,-0.10921,
2,1,0,1,1,44542.9,-0.104699,-0.105205,8.81756,23,-0.00311246,10,-0.00092765,-2.05465,0.051677,1.14171,374.666,-0.105205,
2,1,0,1,1,44542.9,-0.100654,-0.101122,10.3329,23,-0.00307395,10,-0.00104489,-1.98578,0.0627961,0.939548,364.754,-0.1011223,
2,1,0,1,1,44542.9,-0.0966588,-0.0970928,11.7715,23,-0.00302957,10,-0.00114293,-1.92917,0.0739069,0.798301,356.536,-0.0970928,
2,1,0,1,1,44542.9,-0.0926637,-0.0931215,13.1686,23,-0.00297954,10,-0.00122628,-1.88046,0.0854845,0.690184,347.938,-0.0931215,
2,1,0,1,1,44542.9,-0.0886685,-0.0891376,14.5461,23,-0.00292396,10,-0.00129661,-1.83725,0.0968019,0.609492,340.624,-0.0891376,
2,1,0,1,1,44542.9,-0.0846733,-0.0851208,15.9005,23,-0.00286292,10,-0.00135346,-1.79859,0.108552,0.543519,332.523,-0.0851208,
2,1,0,1,1,44542.9,-0.0806781,-0.0811199,17.2123,23,-0.00279658,10,-0.00139626,-1.76416,0.120868,0.488135,324.092,-0.0811199,
2,1,0,1,1,44542.9,-0.076683,-0.077137,18.4838,23,-0.00272504,10,-0.00142579,-1.73321,0.133388,0.442319,316.191,-0.077137,
2,1,0,1,1,44542.9,-0.0726878,-0.0731032,19.7427,23,-0.00264844,10,-0.00144326,-1.70459,0.146072,0.403911,308.635,-0.0731032,
2,1,0,1,1,44542.9,-0.0686926,-0.0690991,20.9664,23,-0.0025669,10,-0.00144876,-1.67848,0.157471,0.374672,304.593,-0.0690991,
2,1,0,1,1,44542.9,-0.0646974,-0.0651088,22.1538,23,-0.00248053,10,-0.00144241,-1.65455,0.171879,0.343266,295.118,-0.0651088,
2,1,0,1,1,44542.9,-0.0606523,-0.0611004,23.3684,23,-0.00238938,10,-0.00142782,-1.63137,0.18525,0.318489,288.348,-0.0611004,
2,1,0,1,1,44542.9,-0.0566571,-0.0570306,24.4861,23,-0.00229357,10,-0.00139645,-1.61108,0.199401,0.295887,281.091,-0.0570306,
2,1,0,1,1,44542.9,-0.052662,-0.0530869,25.5835,23,-0.00219331,10,-0.00135815,-1.59204,0.215854,0.273333,271.847,-0.0530869,
2,1,0,1,1,44542.9,-0.0486668,-0.0490425,26.6699,23,-0.0020887,10,-0.00130796,-1.57398,0.22869,0.257991,267.435,-0.0490425,
2,1,0,1,1,44542.9,-0.0446716,-0.0450798,27.7236,23,-0.00197979,10,-0.00124977,-1.55715,0.245137,0.240682,259.326,-0.0450798,
2,1,0,1,1,44542.9,-0.0406764,-0.0410842,28.7507,23,-0.00186674,10,-0.0011812,-1.54135,0.260575,0.226422,253.109,-0.0410842,
2,1,0,1,1,44542.9,-0.0366813,-0.0370695,29.7372,23,-0.00174967,10,-0.00110234,-1.5267,0.276816,0.213138,246.636,-0.0370695,
2,1,0,1,1,44542.9,-0.0326861,-0.0330728,30.712,23,-0.00162864,10,-0.00101573,-1.51269,0.294168,0.200566,239.728,-0.0330728,
2,1,0,1,1,44542.9,-0.0286909,-0.0291005,31.6647,23,-0.00150378,10,-0.000921459,-1.49942,0.30835,0.191341,235.851,-0.0291005,
2,1,0,1,1,44543,-0.0246957,-0.0251007,32.5824,23,-0.00137519,10,-0.00081784,-1.48702,0.327002,0.180427,228.921,-0.0251007,
2,1,0,1,1,44543,-0.0206756,-0.0210913,33.5057,23,-0.00124292,10,-0.000706678,-1.47488,0.348036,0.169523,220.996,-0.0210913,
2,1,0,1,1,44543,-0.0166554,-0.0170617,34.3773,23,-0.00110704,10,-0.000586536,-1.46373,0.36795,0.160348,214.498,-0.0170617,
2,1,0,1,1,44543,-0.0126603,-0.013081,35.2049,23,-0.000967777,10,-0.000460514,-1.4534,0.392088,0.150476,206.295,-0.013081,
2,1,0,1,1,44543,-0.0086651,-0.00903551,36.0283,23,-0.000825211,10,-0.000325534,-1.44336,0.413592,0.142652,199.992,-0.00903551,
2,1,0,1,1,44543,-0.00466992,-0.00511094,36.8024,23,-0.000679461,10,-0.000188095,-1.43412, , , ,-0.00511094,
2,1,0,1,1,44543,-0.000974387,-0.00137831,37.5138,23,-0.000541937,10,-5.17056e-05,-1.42581, , , ,-0.00137831,
2,1,0,0,1,44543,-0.000175352,-0.000554371,37.658,23,-0.000511886,10,-2.08765e-05,-1.42414, , , ,-0.000554371,