File: Figure_codes/Fig_3-5/rawdata_trumpetplot_data/after 10th/20221101_1-115_003_TrumpetPlot_ParaChange_from10_every3_10_CV_C01_22.csv
mode,ox/red,error,control changes,counter inc.,time/s,control/V,Ewe/V,<I>/mA,cycle number,(Q-Qo)/C,I Range,P/W,log(|I|),Tafel slope mV/dec,alpha_eff,dI/d(E-IR),E-IR/V,
2,1,0,0,0,44533.4,-2.44065e-05,-0.000478022,5.17395,23,0.0000000E+000,10,-2.47326e-06,-2.28618, , , ,-0.000478022,
2,1,0,1,0,44533.4,0.00179726,0.00145377,5.94425,23,4.9497e-05,10,8.64159e-06,-2.2259, , , ,0.00145377,
2,1,0,1,0,44533.4,0.00379485,0.00347305,6.53862,23,0.000112248,10,2.2709e-05,-2.18451,0.0589166,1.00142,251.503,0.00347305,
2,1,0,1,0,44533.4,0.00579244,0.0054629,6.95256,23,0.000179788,10,3.79811e-05,-2.15786,0.0818543,0.720793,194.753,0.0054629,
2,1,0,1,0,44533.4,0.00779002,0.00749889,7.32266,23,0.000251291,10,5.49118e-05,-2.13533,0.0976323,0.604308,171.915,0.00749889,
2,1,0,1,0,44533.4,0.00977853,0.00944391,7.63695,23,0.000325424,10,7.21227e-05,-2.11708,0.116771,0.505263,150.161,0.00944391,
2,1,0,1,0,44533.4,0.0117761,0.0114455,7.91529,23,0.000403261,10,9.05943e-05,-2.10153,0.141328,0.417468,128.566,0.0114455,
2,1,0,1,0,44533.5,0.0137737,0.013441,8.15084,23,0.000483598,10,0.000109555,-2.0888,0.1625,0.363076,115.383,0.01344097,
2,1,0,1,0,44533.5,0.0157713,0.0154287,8.37488,23,0.000566303,10,0.000129213,-2.07702,0.180434,0.326988,106.733,0.0154287,
2,1,0,1,0,44533.5,0.017778,0.0174658,8.58042,23,0.000651118,10,0.000149864,-2.06649,0.212145,0.278112,92.9222,0.0174658,
2,1,0,1,0,44533.5,0.0197755,0.0194691,8.75032,23,0.000737813,10,0.000170361,-2.05798,0.240909,0.244906,83.5828,0.01946909,
2,1,0,1,0,44533.5,0.0217731,0.0214264,8.91146,23,0.000826167,10,0.00019094,-2.05005,0.251014,0.235047,81.7445,0.0214264,
2,1,0,1,0,44533.5,0.0237707,0.0234314,9.07422,23,0.000916134,10,0.000212622,-2.04219,0.279789,0.210873,74.5703,0.0234314,
2,1,0,1,0,44533.5,0.0257774,0.0254625,9.21243,23,0.00100757,10,0.000234572,-2.03563,0.309169,0.190834,68.6173,0.02546251,
2,1,0,1,0,44533.5,0.027775,0.0275049,9.35373,23,0.00110046,10,0.000257273,-2.02902,0.315639,0.186922,68.1862,0.0275049,
2,1,0,1,0,44533.5,0.0297726,0.0294283,9.48284,23,0.00119465,10,0.000279064,-2.02306,0.335236,0.175995,65.1159,0.0294283,
2,1,0,1,0,44533.5,0.0317701,0.0314099,9.60801,23,0.00129016,10,0.000301787,-2.01737,0.347242,0.169911,63.7203,0.0314099,
2,1,0,1,0,44533.6,0.0337586,0.0334163,9.73696,23,0.00138592,10,0.000325373,-2.01158,0.352419,0.167414,63.6038,0.0334163,
2,1,0,1,0,44533.6,0.0357562,0.0354141,9.86269,23,0.00148395,10,0.000349278,-2.006,0.395405,0.149214,57.3654,0.0354141,
2,1,0,1,0,44533.6,0.0377538,0.0374047,9.96576,23,0.00158308,10,0.000372766,-2.00149,0.393295,0.150015,58.4233,0.0374047,
2,1,0,1,0,44533.6,0.0397514,0.0394129,10.0963,23,0.00168345,10,0.000397925,-1.99584,0.362857,0.162599,64.0523,0.0394129,
2,1,0,1,0,44533.6,0.0417399,0.0414195,10.2229,23,0.00178399,10,0.000423428,-1.99043,0.389408,0.151512,60.4123,0.04141951,
2,1,0,1,0,44533.6,0.0437375,0.0434176,10.3382,23,0.00188686,10,0.000448862,-1.98555,0.415988,0.141831,57.2076,0.0434176,
2,1,0,1,0,44533.6,0.0457351,0.0453593,10.4483,23,0.00199078,10,0.000473928,-1.98095,0.392553,0.150298,61.3561,0.04535931,
2,1,0,1,0,44533.6,0.0477327,0.0474086,10.5831,23,0.00209597,10,0.000501731,-1.97539,0.378751,0.155775,64.3106,0.0474086,
2,1,0,1,0,44533.6,0.0497393,0.0494223,10.7096,23,0.00220237,10,0.000529293,-1.97023,0.410909,0.143584,59.9707,0.0494223,
2,1,0,1,0,44533.6,0.0517369,0.0513918,10.822,23,0.00231004,10,0.000556161,-1.96569,0.415028,0.142159,60.0717,0.0513918,
2,1,0,1,0,44533.7,0.0537345,0.0533656,10.9465,23,0.00241889,10,0.000584165,-1.96073,0.39363,0.149887,64.0604,0.0533656,
2,1,0,1,0,44533.7,0.0557321,0.0554417,11.0814,23,0.00252907,10,0.000614374,-1.9554,0.409132,0.144208,62.3116,0.0554417,
2,1,0,1,0,44533.7,0.0577297,0.0574025,11.198,23,0.00264043,10,0.000642795,-1.95086,0.400008,0.147497,64.516,0.0574025,
2,1,0,1,0,44533.7,0.0597364,0.0593737,11.3351,23,0.0027532,10,0.000673008,-1.94557,0.402125,0.146721,64.8559,0.05937374,
2,1,0,1,0,44533.7,0.0617339,0.0613788,11.4559,23,0.00286718,10,0.000703149,-1.94097,0.419754,0.140558,62.8703,0.06137877,
2,1,0,1,0,44533.7,0.0637315,0.0633951,11.5879,23,0.00298247,10,0.000734618,-1.93599,0.416081,0.141799,64.1092,0.0633951,
2,1,0,1,0,44533.7,0.0657291,0.0654097,11.7143,23,0.00309897,10,0.00076623,-1.93128,0.391809,0.150584,68.9027,0.0654097,
2,1,0,1,0,44533.7,0.0677176,0.067375,11.8622,23,0.00321577,10,0.000799213,-1.92584,0.402013,0.146761,67.8659,0.067375,
2,1,0,1,0,44533.7,0.0697152,0.0693895,11.9844,23,0.003335,10,0.000831593,-1.92138,0.418336,0.141035,66.0139,0.0693895,
2,1,0,1,0,44533.7,0.0717128,0.0713682,12.1258,23,0.00345557,10,0.000865395,-1.91629,0.413607,0.142648,67.4646,0.0713682,
2,1,0,1,0,44533.8,0.0737104,0.0733788,12.2535,23,0.00357745,10,0.00089915,-1.91174,0.422167,0.139755,66.8627,0.0733788,
2,1,0,1,0,44533.8,0.0756989,0.0753654,12.393,23,0.00369949,10,0.000934007,-1.90682,0.441532,0.133626,64.569,0.0753654,
2,1,0,1,0,44533.8,0.0776965,0.0773531,12.5102,23,0.00382399,10,0.000967701,-1.90274,0.449022,0.131397,64.2032,0.0773531,
2,1,0,1,0,44533.8,0.0796941,0.0793382,12.6481,23,0.00394982,10,0.00100348,-1.89797,0.455825,0.129436,63.8356,0.0793382,
2,1,0,1,0,44533.8,0.0816917,0.0813415,12.7648,23,0.00407689,10,0.00103831,-1.89399,0.469013,0.125796,62.71,0.0813415,
2,1,0,1,0,44533.8,0.0836983,0.0833465,12.8995,23,0.00420524,10,0.00107513,-1.88943,0.488881,0.120684,60.6903,0.0833465,
2,1,0,1,0,44533.8,0.0856959,0.0853377,13.0073,23,0.00433477,10,0.00111001,-1.88581,0.485642,0.121489,61.7387,0.0853377,
2,1,0,1,0,44533.8,0.0876935,0.0873097,13.1441,23,0.00446561,10,0.00114761,-1.88127,0.476119,0.123919,63.5219,0.0873097,
2,1,0,1,0,44533.8,0.0896911,0.0893651,13.2631,23,0.00459761,10,0.00118526,-1.87735,0.496486,0.118835,61.5381,0.08936511,
2,1,0,1,0,44533.8,0.0916977,0.091378,13.3945,23,0.00473093,10,0.00122396,-1.87307,0.506252,0.116543,60.8814,0.091378,
2,1,0,1,0,44533.9,0.0936953,0.0933986,13.5087,23,0.00486545,10,0.00126169,-1.86939,0.554293,0.106442,56.1027,0.0933986,
2,1,0,1,0,44533.9,0.0956929,0.095342,13.6169,23,0.00500115,10,0.00129826,-1.86592,0.572685,0.103023,54.7493,0.095342,
2,1,0,1,0,44533.9,0.0976905,0.0973627,13.7257,23,0.0051379,10,0.00133637,-1.86246,0.508959,0.115923,62.1684,0.0973627,
2,1,0,1,0,44533.9,0.099679,0.0993654,13.867,23,0.00527447,10,0.0013779,-1.85802,0.540888,0.10908,58.9272,0.0993654,
2,1,0,1,0,44533.9,0.101677,0.10133,13.9595,23,0.00541359,10,0.00141451,-1.85513,0.578064,0.102065,55.6744,0.10133,
2,1,0,1,0,44533.9,0.103674,0.103328,14.0877,23,0.00555387,10,0.00145565,-1.85116,0.51349,0.1149,63.1609,0.103328,
2,1,0,1,0,44533.9,0.105672,0.105324,14.2118,23,0.00569538,10,0.00149684,-1.84735,0.492556,0.119783,66.48,0.105324,
2,1,0,1,0,44533.9,0.107656,0.107353,14.3552,23,0.00583678,10,0.00154108,-1.84299,0.499388,0.118145,66.1413,0.107353,
2,1,0,1,0,44533.9,0.109658,0.10936,14.4787,23,0.00598091,10,0.00158339,-1.83927,0.473263,0.124666,70.5236,0.10936,
2,1,0,1,0,44533.9,0.111655,0.111333,14.6359,23,0.00612651,10,0.00162946,-1.83458,0.438426,0.134572,76.8334,0.111333,
2,1,0,1,0,44534,0.113653,0.1133,14.7814,23,0.0062736,10,0.00167473,-1.83028,0.437568,0.134836,77.8293,0.1133,
2,1,0,1,0,44534,0.115651,0.115311,14.9455,23,0.00642227,10,0.00172338,-1.82549,0.399022,0.147862,86.2877,0.115311,
2,1,0,1,0,44534,0.117657,0.117293,15.126,23,0.00657269,10,0.00177418,-1.82028,0.382267,0.154342,91.1222,0.117293,
2,1,0,1,0,44534,0.119655,0.119328,15.3115,23,0.00672493,10,0.00182709,-1.81498,0.402114,0.146725,87.627,0.119328,
2,1,0,1,0,44534,0.121652,0.121344,15.481,23,0.00687891,10,0.00187853,-1.8102,0.368831,0.159965,96.7896,0.121344,
2,1,0,1,0,44534,0.12365,0.123319,15.6978,23,0.00703483,10,0.00193584,-1.80416,0.353201,0.167044,102.241,0.123319,
2,1,0,1,0,44534,0.125657,0.125316,15.8871,23,0.00719275,10,0.00199091,-1.79896,0.380699,0.154978,96.117,0.125316,
2,1,0,1,0,44534,0.127654,0.127366,16.0868,23,0.00735264,10,0.00204892,-1.79353,0.389002,0.15167,95.1646,0.127366,
2,1,0,1,0,44534,0.129652,0.129329,16.2689,23,0.00751445,10,0.00210404,-1.78864,0.376488,0.156711,99.5815,0.129329,
2,1,0,1,0,44534,0.131649,0.131307,16.4793,23,0.00767827,10,0.00216384,-1.78306,0.383462,0.153861,98.8699,0.1313069,
2,1,0,1,0,44534.1,0.133638,0.133318,16.6633,23,0.00784238,10,0.00222152,-1.77824,0.395816,0.149059,96.9798,0.133318,
2,1,0,1,0,44534.1,0.135636,0.135274,16.864,23,0.00801007,10,0.00228126,-1.77304,0.415263,0.142079,93.415,0.135274,
2,1,0,1,0,44534.1,0.137633,0.137266,17.0321,23,0.00817954,10,0.00233792,-1.76873,0.454073,0.129935,86.3891,0.137266,
2,1,0,1,0,44534.1,0.139631,0.139271,17.2092,23,0.00835081,10,0.00239674,-1.76424,0.476855,0.123727,83.0518,0.139271,
2,1,0,1,0,44534.1,0.141619,0.141313,17.3683,23,0.00852197,10,0.00245436,-1.76024,0.489142,0.120619,81.7776,0.141313,
2,1,0,1,0,44534.1,0.143617,0.143267,17.536,23,0.00869654,10,0.00251233,-1.75607,0.539142,0.109433,74.8101,0.143267,
2,1,0,1,0,44534.1,0.145614,0.145287,17.6656,23,0.00887258,10,0.00256659,-1.75287,0.597232,0.0987891,68.1331,0.145287,
2,1,0,1,0,44534.1,0.147612,0.147267,17.8086,23,0.00904998,10,0.00262263,-1.74937,0.643348,0.0917078,63.6805,0.147267,
2,1,0,1,0,44534.1,0.149619,0.149282,17.92,23,0.00922861,10,0.00267513,-1.74666,0.727917,0.0810532,56.693,0.149282,
2,1,0,1,0,44534.1,0.151616,0.15129,18.0366,23,0.00940843,10,0.00272876,-1.74384,0.975108,0.0605061,42.5188,0.15129,
2,1,0,1,0,44534.2,0.153614,0.153337,18.0924,23,0.00958908,10,0.00277423,-1.7425,1.33137,0.0443151,31.3014,0.153337,
2,1,0,1,0,44534.2,0.155611,0.15526,18.1609,23,0.0097704,10,0.00281966,-1.74086,1.70083,0.034689,24.5603,0.15526,
2,1,0,1,0,44534.2,0.157618,0.157358,18.1911,23,0.00995215,10,0.00286251,-1.74014,8.06849,0.00731239,5.18574,0.1573576,
2,1,0,1,0,44534.2,0.159616,0.159293,18.1818,23,0.0101341,10,0.00289624,-1.74036,-2.50957,-0.02351,-16.6609,0.159293,
2,1,0,1,0,44534.2,0.161613,0.161253,18.1262,23,0.0103156,10,0.00292291,-1.74169,-1.24139,-0.0475274,-33.5997,0.161253,
2,1,0,1,0,44534.2,0.163611,0.163296,18.0474,23,0.0104965,10,0.00294705,-1.74359,-0.749795,-0.0786881,-55.3225,0.163296,
2,1,0,1,0,44534.2,0.165618,0.165274,17.9038,23,0.0106762,10,0.00295903,-1.74705,-0.509906,-0.115707,-80.7695,0.165274,
2,1,0,1,0,44534.2,0.167597,0.16727,17.7263,23,0.0108526,10,0.00296509,-1.75138,-0.390887,-0.150939,-104.234,0.16727,
2,1,0,1,0,44534.2,0.169595,0.169268,17.4875,23,0.0110286,10,0.00296007,-1.75727,-0.306858,-0.192271,-131.039,0.169268,
2,1,0,1,0,44534.2,0.171592,0.171268,17.2024,23,0.0112021,10,0.00294623,-1.76441,-0.255673,-0.230763,-154.705,0.171268,
2,1,0,1,0,44534.3,0.173572,0.173244,16.8723,23,0.0113708,10,0.00292303,-1.77283,-0.225996,-0.261067,-171.763,0.173244,
2,1,0,1,0,44534.3,0.175578,0.175248,16.5189,23,0.0115378,10,0.0028949,-1.78202,-0.19932,-0.296006,-190.463,0.175248,
2,1,0,1,0,44534.3,0.177576,0.177257,16.108,23,0.0117008,10,0.00285526,-1.79296,-0.179214,-0.329215,-206.885,0.177257,
2,1,0,1,0,44534.3,0.179573,0.179241,15.6927,23,0.0118598,10,0.00281278,-1.8043,-0.166403,-0.354562,-216.888,0.179241,
2,1,0,1,0,44534.3,0.181571,0.181223,15.2479,23,0.0120144,10,0.00276326,-1.81679,-0.160065,-0.368601,-219.37,0.181223,
2,1,0,1,0,44534.3,0.183578,0.183243,14.8149,23,0.0121647,10,0.00271472,-1.8293,-0.154878,-0.380946,-219.998,0.1832426,
2,1,0,1,0,44534.3,0.185575,0.185275,14.3563,23,0.0123105,10,0.00265987,-1.84296,-0.149245,-0.395322,-221.652,0.185275,
2,1,0,1,0,44534.3,0.187573,0.187246,13.9276,23,0.0124519,10,0.00260788,-1.85612,-0.148926,-0.396171,-215.269,0.187246,
2,1,0,1,0,44534.3,0.18957,0.189259,13.4987,23,0.012589,10,0.00255475,-1.86971,-0.154386,-0.38216,-201.573,0.189259,
2,1,0,1,0,44534.3,0.191577,0.191297,13.1111,23,0.012722,10,0.0025081,-1.88236,-0.154393,-0.382141,-195.416,0.191297,
2,1,0,1,0,44534.4,0.193575,0.193269,12.7152,23,0.012851,10,0.00245745,-1.89568,-0.153204,-0.385107,-191.34,0.193269,
2,1,0,1,0,44534.4,0.195572,0.195231,12.3582,23,0.0129763,10,0.00241271,-1.90804,-0.159273,-0.370432,-178.67,0.195231,
2,1,0,1,0,44534.4,0.19757,0.19722,12.0093,23,0.0130981,10,0.00236847,-1.92048,-0.175559,-0.336069,-157.877,0.19722,
2,1,0,1,0,44534.4,0.199558,0.199262,11.7218,23,0.0132155,10,0.00233572,-1.931,-0.182673,-0.322981,-147.605,0.199262,
2,1,0,1,0,44534.4,0.201556,0.20124,11.4159,23,0.0133311,10,0.00229733,-1.94249,-0.182994,-0.322415,-143.88,0.20124,
2,1,0,1,0,44534.4,0.203553,0.203222,11.1521,23,0.0134439,10,0.00226635,-1.95264,-0.194861,-0.302781,-131.783,0.203222,
2,1,0,1,0,44534.4,0.205551,0.205208,10.893,23,0.0135541,10,0.00223533,-1.96285,-0.218937,-0.269484,-114.844,0.205208,
2,1,0,1,0,44534.4,0.20754,0.20724,10.6907,23,0.0136609,10,0.00221553,-1.971,-0.227993,-0.258779,-107.821,0.20724,
2,1,0,1,0,44534.4,0.209537,0.209206,10.4619,23,0.0137665,10,0.0021887,-1.98039,-0.226539,-0.260441,-106.492,0.2092057,
2,1,0,1,0,44534.4,0.211535,0.211223,10.2665,23,0.0138702,10,0.00216852,-1.98858,-0.248931,-0.237014,-94.9945,0.2112229,
2,1,0,1,0,44534.5,0.213532,0.213226,10.08,23,0.0139718,10,0.00214932,-1.99654,-0.267359,-0.220677,-86.9209,0.213226,
2,1,0,1,0,44534.5,0.215539,0.215202,9.92065,23,0.0140718,10,0.00213494,-2.00346,-0.275613,-0.214068,-82.8207,0.215202,
2,1,0,1,0,44534.5,0.217537,0.217227,9.74868,23,0.0141701,10,0.00211767,-2.01105,-0.28823,-0.204697,-78.01,0.217227,
2,1,0,1,0,44534.5,0.219534,0.21917,9.61108,23,0.0142669,10,0.00210646,-2.01723,-0.311599,-0.189346,-70.9936,0.21917,
2,1,0,1,0,44534.5,0.221532,0.221192,9.46719,23,0.0143622,10,0.00209406,-2.02378,-0.325783,-0.181102,-66.9809,0.221192,
2,1,0,1,0,44534.5,0.223534,0.223159,9.34387,23,0.0144563,10,0.00208517,-2.02947,-0.362528,-0.162746,-59.365,0.223159,
2,1,0,1,0,44534.5,0.225536,0.225235,9.22717,23,0.0145491,10,0.00207828,-2.03493,-0.390829,-0.150961,-54.4008,0.225235,
2,1,0,1,0,44534.5,0.227534,0.227194,9.1244,23,0.0146409,10,0.00207301,-2.0398,-0.370461,-0.159261,-56.6463,0.227194,
2,1,0,1,0,44534.5,0.229531,0.229222,9.0013,23,0.0147315,10,0.0020633,-2.04569,-0.399789,-0.147578,-51.9455,0.229222,
2,1,0,1,0,44534.5,0.231529,0.231232,8.91461,23,0.014821,10,0.00206135,-2.0499,-0.465245,-0.126815,-44.1156,0.231232,
2,1,0,1,0,44534.6,0.233517,0.23318,8.82669,23,0.0149089,10,0.00205821,-2.0542,-0.469656,-0.125624,-43.2843,0.23318,
2,1,0,1,0,44534.6,0.235515,0.235191,8.74328,23,0.0149967,10,0.00205634,-2.05833,-0.472481,-0.124873,-42.5948,0.235191,
2,1,0,1,0,44534.6,0.237512,0.237224,8.65443,23,0.0150836,10,0.00205304,-2.06276,-0.504483,-0.116951,-39.5435,0.237224,
2,1,0,1,0,44534.6,0.23951,0.239201,8.58468,23,0.0151698,10,0.00205347,-2.06628,-0.542889,-0.108678,-36.3993,0.239201,
2,1,0,1,0,44534.6,0.241499,0.241193,8.50999,23,0.0152544,10,0.00205255,-2.07007,-0.565221,-0.104384,-34.6899,0.241193,
2,1,0,1,0,44534.6,0.243496,0.243185,8.4465,23,0.0153391,10,0.00205406,-2.07332,-0.580211,-0.101687,-33.5077,0.2431846,
2,1,0,1,0,44534.6,0.245494,0.245159,8.37707,23,0.0154232,10,0.00205372,-2.07691,-0.606448,-0.0972878,-31.8275,0.245159,
2,1,0,1,0,44534.6,0.247491,0.247189,8.31907,23,0.0155066,10,0.00205638,-2.07993,-0.643444,-0.0916941,-29.7624,0.2471886,
2,1,0,1,0,44534.6,0.249498,0.249191,8.25708,23,0.0155895,10,0.00205759,-2.08317,-0.670973,-0.087932,-28.3545,0.249191,
2,1,0,1,0,44534.6,0.251496,0.251169,8.2062,23,0.0156719,10,0.00206114,-2.08586,-0.695631,-0.0848151,-27.1511,0.251169,
2,1,0,1,0,44534.7,0.253493,0.253197,8.14832,23,0.0157536,10,0.00206313,-2.08893,-0.680583,-0.0866904,-27.5767,0.253197,
2,1,0,1,0,44534.7,0.255491,0.255167,8.09595,23,0.0158348,10,0.00206582,-2.09173,-0.770553,-0.0765684,-24.2037,0.2551671,
2,1,0,1,0,44534.7,0.257497,0.257206,8.05128,23,0.0159156,10,0.00207084,-2.09413,-0.87473,-0.0674494,-21.1977,0.257206,
2,1,0,1,0,44534.7,0.259495,0.25923,8.00982,23,0.0159959,10,0.00207639,-2.09638,-0.754847,-0.0781615,-24.4118,0.25923,
2,1,0,1,0,44534.7,0.261493,0.261169,7.95453,23,0.0160757,10,0.00207748,-2.09939,-0.822975,-0.0716911,-22.2861,0.261169,
2,1,0,1,0,44534.7,0.26349,0.263213,7.92105,23,0.0161551,10,0.00208493,-2.10122,-1.09318,-0.0539709,-16.6841,0.263213,
2,1,0,1,0,44534.7,0.265479,0.265187,7.8875,23,0.0162333,10,0.00209166,-2.10306,-0.966676,-0.0610339,-18.7796,0.2651872,
2,1,0,1,0,44534.7,0.267476,0.267144,7.84723,23,0.016312,10,0.00209634,-2.10528,-0.822771,-0.0717089,-21.9524,0.267144,
2,1,0,1,0,44534.7,0.269474,0.269129,7.80097,23,0.0163902,10,0.00209947,-2.10785,-1.00169,-0.0589007,-17.9562,0.269129,
2,1,0,1,0,44534.7,0.271471,0.271124,7.77577,23,0.016468,10,0.0021082,-2.10926,-1.26055,-0.046805,-14.1975,0.271124,
2,1,0,1,0,44534.8,0.27346,0.273143,7.74398,23,0.0165448,10,0.00211521,-2.11104,-0.979525,-0.0602333,-18.192,0.273143,
2,1,0,1,0,44534.8,0.275458,0.275168,7.7022,23,0.016622,10,0.0021194,-2.11339,-0.868654,-0.0679211,-20.4189,0.275168,
2,1,0,1,0,44534.8,0.277455,0.277144,7.66229,23,0.0166988,10,0.00212355,-2.11564,-1.07107,-0.0550849,-16.4873,0.277144,
2,1,0,1,0,44534.8,0.279453,0.279161,7.63637,23,0.0167753,10,0.00213178,-2.11711,-1.17346,-0.0502789,-14.9766,0.279161,
2,1,0,1,0,44534.8,0.281455,0.281125,7.60266,23,0.0168514,10,0.0021373,-2.11903,-1.16772,-0.0505258,-14.9993,0.281125,
2,1,0,1,0,44534.8,0.283457,0.283119,7.577,23,0.0169274,10,0.00214519,-2.1205,-1.13182,-0.0521285,-15.404,0.283119,
2,1,0,1,0,44534.8,0.285455,0.285139,7.54084,23,0.0170029,10,0.00215018,-2.12258,-1.11802,-0.0527717,-15.5401,0.285139,
2,1,0,1,0,44534.8,0.287452,0.287167,7.5141,23,0.0170782,10,0.0021578,-2.12412,-1.10152,-0.0535622,-15.6973,0.287167,
2,1,0,1,0,44534.8,0.28945,0.289143,7.47797,23,0.0171531,10,0.00216221,-2.12622,-1.24816,-0.0472694,-13.8109,0.289143,
2,1,0,1,0,44534.8,0.291456,0.291163,7.4589,23,0.0172279,10,0.00217176,-2.12732,-1.16457,-0.0506626,-14.7268,0.291163,
2,1,0,1,0,44534.9,0.293454,0.293164,7.41876,23,0.0173023,10,0.00217491,-2.12967,-1.12463,-0.0524617,-15.2092,0.2931639,
2,1,0,1,0,44534.9,0.295452,0.295157,7.39816,23,0.0173764,10,0.00218362,-2.13088,-1.42601,-0.0413743,-11.9401,0.295157,
2,1,0,1,0,44534.9,0.297449,0.297209,7.37047,23,0.0174502,10,0.00219057,-2.1325,-1.50135,-0.0392979,-11.3119,0.297209,
2,1,0,1,0,44534.9,0.299438,0.299122,7.35331,23,0.0175232,10,0.00219954,-2.13352,-0.0636364,-0.927142,-256.115,0.299122,
2,1,0,1,0,44534.9,0.299746,0.29946,6.79385,23,0.0175541,10,0.00203449,-2.16788,0.00754236,7.82249,1755.32,0.29946,
2,1,0,1,0,44534.9,0.29774,0.297439,4.3982,23,0.0176085,10,0.0013082,-2.35672,0.0107406,5.49319,977.366,0.297439,
2,1,0,1,0,44534.9,0.295742,0.295453,2.87794,23,0.0176443,10,0.000850298,-2.54092,0.00995311,5.92779,662.995,0.295453,
2,1,0,1,0,44534.9,0.293745,0.293428,1.73897,23,0.0176669,10,0.000510262,-2.75971,0.00771662,7.64583,498.331,0.293428,
2,1,0,1,0,44534.9,0.291747,0.291403,0.859265,23,0.0176797,10,0.000250392,-3.06587,0.00361885,16.3035,401.409,0.291403,
2,1,0,1,0,44534.9,0.289745,0.289438,0.137311,23,0.0176844,10,3.9743e-05,-3.86229,0.0137554,4.28924,329.017,0.289438,
2,0,0,1,0,44534.9,0.287743,0.287445,-0.442981,23,0.0176827,10,-0.000127333,-3.35361,-0.00487809,-12.0949,262.394,0.287445,
2,0,0,1,0,44535,0.285745,0.285407,-0.92015,23,0.0176758,10,-0.000262618,-3.03614,-0.00848596,-6.95266,218.465,0.285407,
2,0,0,1,0,44535,0.283748,0.283406,-1.3253,23,0.0176644,10,-0.000375598,-2.87769,-0.0152784,-3.86166,189.933,0.2834059,
2,0,0,1,0,44535,0.28175,0.281431,-1.67537,23,0.0176493,10,-0.0004715,-2.77589,-0.0227867,-2.58923,164.52,0.281431,
2,0,0,1,0,44535,0.279761,0.279464,-1.97387,23,0.0176311,10,-0.000551626,-2.70468,-0.0318932,-1.84992,140.182,0.279464,
2,0,0,1,0,44535,0.277764,0.27744,-2.2348,23,0.01761,10,-0.000620025,-2.65076,-0.0412066,-1.43181,123.669,0.27744,
2,0,0,1,0,44535,0.275766,0.275443,-2.47105,23,0.0175865,10,-0.000680635,-2.60712,-0.0517868,-1.13929,108.65,0.275443,
2,0,0,1,0,44535,0.273769,0.273481,-2.66504,23,0.0175607,10,-0.000728837,-2.5743,-0.063797,-0.924809,95.9194,0.273481,
2,0,0,1,0,44535,0.27178,0.271458,-2.85333,23,0.0175334,10,-0.000774558,-2.54465,-0.0729025,-0.8093,89.7683,0.271458,
2,0,0,1,0,44535,0.269783,0.269449,-3.02698,23,0.0175039,10,-0.000815615,-2.51899,-0.0841333,-0.701268,82.4682,0.269449,
2,0,0,1,0,44535,0.267785,0.267508,-3.17909,23,0.0174729,10,-0.000850432,-2.4977,-0.101347,-0.582159,71.976,0.267508,
2,0,0,1,0,44535.1,0.265787,0.265471,-3.31329,23,0.0174404,10,-0.000879582,-2.47974,-0.115719,-0.509854,65.8873,0.2654708,
2,0,0,1,0,44535.1,0.263781,0.263441,-3.44702,23,0.0174066,10,-0.000908088,-2.46256,-0.12549,-0.470156,63.0689,0.263441,
2,0,0,1,0,44535.1,0.261783,0.261492,-3.56424,23,0.0173715,10,-0.000932019,-2.44803,-0.145038,-0.406791,56.4823,0.261492,
2,0,0,1,0,44535.1,0.259786,0.259478,-3.67087,23,0.0173354,10,-0.000952511,-2.43523,-0.157736,-0.374042,53.5788,0.259478,
2,0,0,1,0,44535.1,0.257788,0.257491,-3.77858,23,0.0172981,10,-0.000972951,-2.42267,-0.166473,-0.354411,52.2081,0.257491,
2,0,0,1,0,44535.1,0.255781,0.255469,-3.88018,23,0.0172598,10,-0.000991267,-2.41115,-0.190323,-0.31,46.8344,0.255469,
2,0,0,1,0,44535.1,0.253784,0.253506,-3.96521,23,0.0172205,10,-0.00100521,-2.40173,-0.207832,-0.283883,43.9543,0.253506,
2,0,0,1,0,44535.1,0.251786,0.251475,-4.05576,23,0.0171804,10,-0.00101992,-2.39193,-0.216279,-0.272796,43.1375,0.251475,
2,0,0,1,0,44535.1,0.249789,0.249461,-4.13973,23,0.0171394,10,-0.0010327,-2.38303,-0.225539,-0.261596,42.2609,0.249461,
2,0,0,1,0,44535.1,0.2478,0.247486,-4.22431,23,0.0170981,10,-0.00104546,-2.37424,-0.239651,-0.246191,40.5444,0.247486,
2,0,0,1,0,44535.2,0.245802,0.245484,-4.30095,23,0.0170554,10,-0.00105582,-2.36644,-0.267366,-0.220672,37.0125,0.245484,
2,0,0,1,0,44535.2,0.243805,0.243497,-4.37196,23,0.0170121,10,-0.00106456,-2.35932,-0.297128,-0.198568,33.8506,0.243497,
2,0,0,1,0,44535.2,0.241807,0.241496,-4.43597,23,0.016968,10,-0.00107127,-2.35301,-0.290122,-0.203363,35.2605,0.241496,
2,0,0,1,0,44535.2,0.239819,0.23946,-4.51431,23,0.0169238,10,-0.001081,-2.34541,-0.291992,-0.202061,35.541,0.23946,
2,0,0,1,0,44535.2,0.237821,0.237479,-4.57872,23,0.0168783,10,-0.00108735,-2.33926,-0.339349,-0.173862,31.0456,0.237479,
2,0,0,1,0,44535.2,0.235824,0.235505,-4.63711,23,0.0168322,10,-0.00109206,-2.33375,-0.358817,-0.164429,29.7614,0.235505,
2,0,0,1,0,44535.2,0.233826,0.233493,-4.69737,23,0.0167856,10,-0.0010968,-2.32815,-0.34785,-0.169613,31.1033,0.233493,
2,0,0,1,0,44535.2,0.231824,0.231523,-4.76094,23,0.0167383,10,-0.00110227,-2.32231,-0.351896,-0.167663,31.1406,0.231523,
2,0,0,1,0,44535.2,0.229822,0.22951,-4.82138,23,0.0166903,10,-0.00110656,-2.31683,-0.400853,-0.147186,27.6658,0.22951,
2,0,0,1,0,44535.2,0.227824,0.227506,-4.87208,23,0.0166419,10,-0.00110843,-2.31229,-0.407396,-0.144822,27.5593,0.2275061,
2,0,0,1,0,44535.3,0.225827,0.225527,-4.93115,23,0.0165928,10,-0.00111211,-2.30705,-0.395099,-0.14933,28.7281,0.225527,
2,0,0,1,0,44535.3,0.223829,0.223498,-4.98723,23,0.0165432,10,-0.00111463,-2.30214,-0.405412,-0.145531,28.3266,0.223498,
2,0,0,1,0,44535.3,0.221822,0.22154,-5.04411,23,0.016493,10,-0.00111747,-2.29722,-0.434366,-0.13583,26.7168,0.22154,
2,0,0,1,0,44535.3,0.219825,0.219539,-5.093,23,0.0164424,10,-0.00111811,-2.29303,-0.432299,-0.13648,27.1555,0.2195389,
2,0,0,1,0,44535.3,0.217827,0.217534,-5.15288,23,0.0163911,10,-0.00112093,-2.28795,-0.492462,-0.119806,24.0399,0.217534,
2,0,0,1,0,44535.3,0.21583,0.215492,-5.1903,23,0.0163394,10,-0.00111846,-2.28481,-0.47062,-0.125367,25.4607,0.2154915,
2,0,0,1,0,44535.3,0.213841,0.213518,-5.25514,23,0.0162876,10,-0.00112207,-2.27942,-0.421609,-0.13994,28.6554,0.213518,
2,0,0,1,0,44535.3,0.211843,0.211528,-5.30387,23,0.0162349,10,-0.00112192,-2.27541,-0.515048,-0.114552,23.7061,0.211528,
2,0,0,1,0,44535.3,0.209846,0.209498,-5.35042,23,0.0161816,10,-0.0011209,-2.27161,-0.527047,-0.111945,23.3764,0.209498,
2,0,0,1,0,44535.3,0.207848,0.207509,-5.39783,23,0.0161279,10,-0.0011201,-2.26778,-0.42991,-0.137238,28.9657,0.207509,
2,0,0,1,0,44535.4,0.20586,0.2055,-5.46623,23,0.016074,10,-0.00112331,-2.26231,-0.455276,-0.129592,27.5792,0.2055,
2,0,0,1,0,44535.4,0.203862,0.203489,-5.50869,23,0.0160192,10,-0.00112096,-2.25895,-0.586344,-0.100623,21.6346,0.203489,
2,0,0,1,0,44535.4,0.201865,0.201521,-5.55231,23,0.0159639,10,-0.00111891,-2.25553,-0.549438,-0.107382,23.2792,0.201521,
2,0,0,1,0,44535.4,0.199867,0.199514,-5.60123,23,0.0159082,10,-0.00111752,-2.25172,-0.477578,-0.12354,27.028,0.199514,
2,0,0,1,0,44535.4,0.19786,0.197546,-5.65976,23,0.0158518,10,-0.00111806,-2.2472,-0.520685,-0.113312,24.9898,0.197546,
2,0,0,1,0,44535.4,0.195863,0.195522,-5.70099,23,0.015795,10,-0.00111467,-2.24405,-0.516754,-0.114174,25.4459,0.195522,
2,0,0,1,0,44535.4,0.193865,0.193534,-5.76184,23,0.0157377,10,-0.00111511,-2.23944,-0.505223,-0.11678,26.2184,0.193534,
2,0,0,1,0,44535.4,0.191868,0.191562,-5.8048,23,0.0156799,10,-0.00111198,-2.23621,-0.502351,-0.117448,26.6539,0.191562,
2,0,0,1,0,44535.4,0.189861,0.18953,-5.86857,23,0.0156215,10,-0.00111227,-2.23147,-0.493462,-0.119563,27.3442,0.18953,
2,0,0,1,0,44535.4,0.187863,0.187507,-5.91569,23,0.0155626,10,-0.00110923,-2.22799,-0.533449,-0.110601,25.5487,0.187507,
2,0,0,1,0,44535.5,0.185866,0.185573,-5.96967,23,0.0155032,10,-0.00110781,-2.22405,-0.550232,-0.107227,24.9626,0.185573,
2,0,0,1,0,44535.5,0.183868,0.183535,-6.01484,23,0.0154433,10,-0.00110393,-2.22078,-0.471597,-0.125107,29.4329,0.183535,
2,0,0,1,0,44535.5,0.18188,0.181582,-6.08714,23,0.0153834,10,-0.00110531,-2.21559,-0.438279,-0.134617,31.9341,0.181582,
2,0,0,1,0,44535.5,0.179882,0.179539,-6.14244,23,0.0153222,10,-0.00110281,-2.21166,-0.506476,-0.116491,27.9278,0.179539,
2,0,0,1,0,44535.5,0.177885,0.17757,-6.19918,23,0.0152605,10,-0.00110079,-2.20767,-0.499558,-0.118105,28.5738,0.17757,
2,0,0,1,0,44535.5,0.175887,0.175552,-6.25638,23,0.0151982,10,-0.00109832,-2.20368,-0.444397,-0.132764,32.4535,0.175552,
2,0,0,1,0,44535.5,0.173908,0.173593,-6.32824,23,0.0151359,10,-0.00109854,-2.19872,-0.429285,-0.137438,33.9176,0.173593,
2,0,0,1,0,44535.5,0.171901,0.171582,-6.39102,23,0.0150723,10,-0.00109658,-2.19443,-0.433607,-0.136068,33.9659,0.171582,
2,0,0,1,0,44535.5,0.169903,0.169575,-6.46471,23,0.0150081,10,-0.00109626,-2.18945,-0.405366,-0.145548,36.7176,0.169575,
2,0,0,1,0,44535.5,0.167906,0.167588,-6.53766,23,0.0149431,10,-0.00109564,-2.18458,-0.400251,-0.147407,37.6222,0.1675884,
2,0,0,1,0,44535.6,0.165908,0.165571,-6.61535,23,0.0148773,10,-0.00109531,-2.17945,-0.383066,-0.15402,39.7731,0.165571,
2,0,0,1,0,44535.6,0.163901,0.163593,-6.69656,23,0.0148107,10,-0.00109551,-2.17415,-0.358889,-0.164396,42.997,0.163593,
2,0,0,1,0,44535.6,0.161904,0.161539,-6.78874,23,0.0147433,10,-0.00109664,-2.16821,-0.353849,-0.166738,44.1493,0.1615386,
2,0,0,1,0,44535.6,0.159906,0.159586,-6.87345,23,0.0146749,10,-0.00109691,-2.16283,-0.329494,-0.179062,48.1004,0.159586,
2,0,0,1,0,44535.6,0.157909,0.1576,-6.97821,23,0.0146056,10,-0.00109976,-2.15626,-0.287548,-0.205183,55.9323,0.1576,
2,0,0,1,0,44535.6,0.155902,0.155582,-7.09745,23,0.0145352,10,-0.00110423,-2.1489,-0.26986,-0.218632,60.576,0.155582,
2,0,0,1,0,44535.6,0.153904,0.153574,-7.22207,23,0.0144636,10,-0.00110912,-2.14134,-0.270014,-0.218507,61.5605,0.153574,
2,0,0,1,0,44535.6,0.151907,0.151612,-7.3418,23,0.0143908,10,-0.00111311,-2.1342,-0.246146,-0.239695,68.8401,0.151612,
2,0,0,1,0,44535.6,0.149909,0.149571,-7.49764,23,0.0143165,10,-0.00112143,-2.12508,-0.216442,-0.27259,79.8086,0.149571,
2,0,0,1,0,44535.6,0.147921,0.14757,-7.66445,23,0.0142415,10,-0.00113104,-2.11552,-0.204197,-0.288937,86.4712,0.14757,
2,0,0,1,0,44535.7,0.145923,0.145592,-7.84173,23,0.0141639,10,-0.00114169,-2.10559,-0.197339,-0.298978,91.5481,0.145592,
2,0,0,1,0,44535.7,0.143926,0.143573,-8.03031,23,0.0140846,10,-0.00115294,-2.09527,-0.174402,-0.338299,106.29,0.143573,
2,0,0,1,0,44535.7,0.141928,0.141627,-8.26313,23,0.0140031,10,-0.00117028,-2.08286,-0.160364,-0.367914,118.641,0.141627,
2,0,0,1,0,44535.7,0.139939,0.139617,-8.4997,23,0.0139201,10,-0.0011867,-2.0706,-0.152929,-0.385801,128.232,0.139617,
2,0,0,1,0,44535.7,0.137942,0.137633,-8.77535,23,0.0138337,10,-0.00120777,-2.05674,-0.145427,-0.405701,138.957,0.137633,
2,0,0,1,0,44535.7,0.135944,0.135593,-9.05886,23,0.0137446,10,-0.00122832,-2.04293,-0.136689,-0.431636,152.907,0.135593,
2,0,0,1,0,44535.7,0.133947,0.133642,-9.38559,23,0.0136524,10,-0.00125431,-2.02754,-0.130625,-0.451675,165.437,0.133642,
2,0,0,1,0,44535.7,0.13194,0.131601,-9.71926,23,0.0135569,10,-0.00127906,-2.01237,-0.129758,-0.454693,172.704,0.131601,
2,0,0,1,0,44535.7,0.129942,0.129576,-10.0877,23,0.0134578,10,-0.00130713,-1.99621,-0.126847,-0.465129,182.938,0.129576,
2,0,0,1,0,44535.7,0.127945,0.127633,-10.4451,23,0.0133551,10,-0.00133314,-1.98109,-0.130632,-0.451649,184.122,0.127633,
2,0,0,1,0,44535.8,0.125947,0.125641,-10.8122,23,0.0132488,10,-0.00135846,-1.96609,-0.127373,-0.463205,195.735,0.125641,
2,0,0,1,0,44535.8,0.123941,0.123678,-11.2193,23,0.0131386,10,-0.00138758,-1.95003,-0.126422,-0.46669,204.248,0.123678,
2,0,0,1,0,44535.8,0.121943,0.121657,-11.6259,23,0.0130243,10,-0.00141438,-1.93457,-0.13706,-0.430468,195.036,0.1216574,
2,0,0,1,0,44535.8,0.119945,0.119632,-12.0085,23,0.0129061,10,-0.0014366,-1.92051,-0.143556,-0.410991,192.602,0.119632,
2,0,0,1,0,44535.8,0.117948,0.117648,-12.3981,23,0.012784,10,-0.00145861,-1.90664,-0.148359,-0.397685,192.277,0.117648,
2,0,0,1,0,44535.8,0.115946,0.115636,-12.7767,23,0.0126581,10,-0.00147745,-1.89358,-0.155489,-0.379447,189.115,0.1156362,
2,0,0,1,0,44535.8,0.113962,0.11367,-13.1505,23,0.0125296,10,-0.00149481,-1.88106,-0.166364,-0.354644,181.794,0.11367,
2,0,0,1,0,44535.8,0.111964,0.111661,-13.4994,23,0.0123963,10,-0.00150736,-1.86968,-0.175067,-0.337014,177.573,0.111661,
2,0,0,1,0,44535.8,0.109967,0.109688,-13.8576,23,0.0122594,10,-0.00152001,-1.85831,-0.188174,-0.31354,169.295,0.109688,
2,0,0,1,0,44535.8,0.107969,0.107661,-14.1765,23,0.0121192,10,-0.00152626,-1.84843,-0.2014,-0.292949,162.131,0.107661,
2,0,0,1,0,44535.9,0.10598,0.105666,-14.5097,23,0.0119771,10,-0.00153318,-1.83834,-0.214065,-0.275617,155.822,0.105666,
2,0,0,1,0,44535.9,0.103983,0.103655,-14.8007,23,0.0118305,10,-0.00153417,-1.82972,-0.230742,-0.255697,147.719,0.103655,
2,0,0,1,0,44535.9,0.101985,0.101669,-15.1,23,0.011681,10,-0.00153521,-1.82102,-0.248225,-0.237688,139.845,0.1016695,
2,0,0,1,0,44535.9,0.0999877,0.0996983,-15.3541,23,0.0115287,10,-0.00153078,-1.81378,-0.264401,-0.223146,133.814,0.09969829,
2,0,0,1,0,44535.9,0.0979811,0.0976768,-15.6343,23,0.0113736,10,-0.00152711,-1.80592,-0.285909,-0.206359,125.663,0.0976768,
2,0,0,1,0,44535.9,0.0959835,0.0957082,-15.8555,23,0.0112161,10,-0.0015175,-1.79982,-0.330413,-0.178565,110.475,0.0957082,
2,0,0,1,0,44535.9,0.0939859,0.093704,-16.0732,23,0.0110563,10,-0.00150612,-1.7939,-0.378663,-0.155811,97.6127,0.093704,
2,0,0,1,0,44535.9,0.0919883,0.0916547,-16.2512,23,0.0108947,10,-0.0014895,-1.78912,-0.41105,-0.143535,91.0718,0.0916547,
2,0,0,1,0,44535.9,0.0899816,0.0896332,-16.4439,23,0.0107311,10,-0.00147392,-1.784,-0.497962,-0.118483,75.8407,0.0896332,
2,0,0,1,0,44535.9,0.087984,0.0876794,-16.5527,23,0.0105661,10,-0.00145133,-1.78113,-0.623641,-0.0946058,61.1627,0.0876794,
2,0,0,1,0,44536,0.0859865,0.0856457,-16.6878,23,0.0103998,10,-0.00142924,-1.7776,-0.717762,-0.0821999,53.4447,0.0856457,
2,0,0,1,0,44536,0.0839889,0.0836615,-16.7674,23,0.0102326,10,-0.00140279,-1.77553,-1.00689,-0.0585965,38.3367,0.0836615,
2,0,0,1,0,44536,0.0820004,0.0816595,-16.8406,23,0.0100662,10,-0.00137519,-1.77364,-1.45771,-0.0404744,26.5695,0.0816595,
2,0,0,1,0,44536,0.0800028,0.0796609,-16.8737,23,0.00989759,10,-0.00134417,-1.77279,-2.27081,-0.0259819,17.1109,0.07966087,
2,0,0,1,0,44536,0.0780052,0.0776559,-16.9091,23,0.00972865,10,-0.00131309,-1.77188,-6.50607,-0.00906846,5.97603,0.0776559,
2,0,0,1,0,44536,0.0760076,0.0756828,-16.8975,23,0.00955963,10,-0.00127885,-1.77218,9.99134,0.00590511,-3.89506,0.0756828,
2,0,0,1,0,44536,0.0740191,0.0736857,-16.8936,23,0.00939241,10,-0.00124482,-1.77228,3.31718,0.0177862,-11.7128,0.07368575,
2,0,0,1,0,44536,0.0720215,0.0716521,-16.8503,23,0.0092237,10,-0.00120736,-1.77339,1.98638,0.0297023,-19.5378,0.0716521,
2,0,0,1,0,44536,0.0700239,0.0697112,-16.816,23,0.00905533,10,-0.00117226,-1.77428,1.4532,0.0406002,-26.6147,0.0697112,
2,0,0,1,0,44536,0.0680263,0.0676481,-16.7437,23,0.00888757,10,-0.00113268,-1.77615,1.69382,0.0348326,-22.7972,0.0676481,
2,0,0,1,0,44536.1,0.0660197,0.065676,-16.724,23,0.00872031,10,-0.00109837,-1.77666,1.29858,0.0454344,-29.5854,0.065676,
2,0,0,1,0,44536.1,0.0640221,0.0636909,-16.6266,23,0.0085536,10,-0.00105897,-1.7792,1.00677,0.058603,-38.0745,0.0636909,
2,0,0,1,0,44536.1,0.0620245,0.0616668,-16.5713,23,0.00838757,10,-0.0010219,-1.78064,1.13193,0.0521233,-33.6875,0.0616668,
2,0,0,1,0,44536.1,0.0600269,0.059772,-16.4946,23,0.00822224,10,-0.000985915,-1.78266,1.25652,0.0469551,-30.2572,0.059772,
2,0,0,1,0,44536.1,0.0580248,0.0577053,-16.4515,23,0.00805752,10,-0.000949338,-1.78379,1.12459,0.0524634,-33.633,0.0577053,
2,0,0,1,0,44536.1,0.0560227,0.0557307,-16.3587,23,0.00789349,10,-0.00091168,-1.78625,1.02672,0.0574648,-36.7316,0.0557307,
2,0,0,1,0,44536.1,0.0540251,0.0537369,-16.3057,23,0.00773012,10,-0.000876219,-1.78766,1.16129,0.0508055,-32.3061,0.0537369,
2,0,0,1,0,44536.1,0.0520275,0.0516902,-16.2282,23,0.00756746,10,-0.000838837,-1.78973,1.06171,0.0555706,-35.2085,0.0516902,
2,0,0,1,0,44536.1,0.0500299,0.0496973,-16.1635,23,0.00740544,10,-0.000803282,-1.79146,1.18298,0.0498739,-31.4651,0.0496973,
2,0,0,1,0,44536.1,0.0480414,0.0477175,-16.1031,23,0.00724572,10,-0.000768401,-1.79309,1.27695,0.0462037,-29.0412,0.0477175,
2,0,0,1,0,44536.2,0.0460438,0.0457077,-16.0476,23,0.007085,10,-0.000733501,-1.79459,1.06152,0.0555806,-34.7783,0.0457077,
2,0,0,1,0,44536.2,0.0440462,0.0437035,-15.9636,23,0.00692499,10,-0.000697664,-1.79687,1.00724,0.0585759,-36.5189,0.0437035,
2,0,0,1,0,44536.2,0.0420486,0.041724,-15.9021,23,0.00676566,10,-0.000663502,-1.79854,1.10044,0.0536147,-33.2645,0.041724,
2,0,0,1,0,44536.2,0.0400601,0.0397468,-15.8319,23,0.0066086,10,-0.000629268,-1.80047,1.09791,0.0537385,-33.2118,0.0397468,
2,0,0,1,0,44536.2,0.0380625,0.0377417,-15.7699,23,0.0064506,10,-0.000595183,-1.80217,0.914962,0.0644836,-39.6432,0.0377417,
2,0,0,1,0,44536.2,0.036065,0.0357584,-15.6738,23,0.00629342,10,-0.00056047,-1.80483,0.912373,0.0646665,-39.5992,0.0357584,
2,0,0,1,0,44536.2,0.0340674,0.0337507,-15.6119,23,0.00613698,10,-0.000526912,-1.80655,0.975561,0.060478,-36.8193,0.0337507,
2,0,0,1,0,44536.2,0.0320607,0.0317362,-15.5257,23,0.00598131,10,-0.000492727,-1.80895,0.862697,0.0683902,-41.4459,0.0317362,
2,0,0,1,0,44536.2,0.0300631,0.0297259,-15.445,23,0.00582644,10,-0.000459118,-1.81121,0.796542,0.0740701,-44.6204,0.0297259,
2,0,0,1,0,44536.2,0.0280655,0.0277087,-15.346,23,0.0056725,10,-0.000425219,-1.814,0.80336,0.0734416,-44.016,0.0277087,
2,0,0,1,0,44536.3,0.0260679,0.0257315,-15.2692,23,0.00551939,10,-0.000392899,-1.81618,0.754469,0.0782007,-46.5533,0.0257315,
2,0,0,1,0,44536.3,0.0240613,0.0237516,-15.1618,23,0.00536726,10,-0.000360117,-1.81925,0.708344,0.0832928,-49.3164,0.0237516,
2,0,0,1,0,44536.3,0.0220637,0.0217648,-15.0736,23,0.00521606,10,-0.000328073,-1.82178,0.66419,0.08883,-52.1975,0.0217648,
2,0,0,1,0,44536.3,0.0200661,0.0197294,-14.9519,23,0.00506595,10,-0.000294991,-1.82531,0.611675,0.0964564,-56.3149,0.0197294,
2,0,0,1,0,44536.3,0.0180685,0.0177374,-14.8468,23,0.00491691,10,-0.000263343,-1.82837,0.618682,0.0953641,-55.2329,0.0177374,
2,0,0,1,0,44536.3,0.01608,0.0157088,-14.7298,23,0.00477056,10,-0.000231388,-1.8318,0.608315,0.0969892,-55.7753,0.0157088,
2,0,0,1,0,44536.3,0.0140824,0.0137444,-14.6241,23,0.0046238,10,-0.000200999,-1.83493,0.535877,0.1101,-62.7563,0.0137444,
2,0,0,1,0,44536.3,0.0120848,0.011749,-14.4813,23,0.00447829,10,-0.000170141,-1.83919,0.512131,0.115205,-65.1644,0.011749,
2,0,0,1,0,44536.3,0.0100872,0.00975119,-14.3639,23,0.00433409,10,-0.000140065,-1.84273,0.529168,0.111496,-62.4717,0.00975119,
2,0,0,1,0,44536.3,0.00810328,0.00777898,-14.2333,23,0.0041926,10,-0.00011072,-1.8467,0.510573,0.115556,-64.2025,0.00777898,
2,0,0,1,0,44536.4,0.00610116,0.00578609,-14.1093,23,0.00405088,10,-8.16376e-05,-1.85049,0.480245,0.122854,-67.5957,0.00578609,
2,0,0,1,0,44536.4,0.00410357,0.00379754,-13.9641,23,0.00391055,10,-5.30293e-05,-1.85499,0.61105,0.0965551,-52.7629,0.00379754,
2,0,0,1,0,44536.4,0.00210598,0.00172917,-13.8952,23,0.00377144,10,-2.40272e-05,-1.85713,0.589035,0.100164,-54.154,0.00172917,
2,0,0,1,0,44536.4,0.00010174,-0.000281943,-13.7432,23,0.0036333,10,3.87481e-06,-1.86191,0.471359,0.12517,-67.2128,-0.000281943,
2,0,0,1,0,44536.4,-0.00189827,-0.00231041,-13.6237,23,0.00349645,10,3.14764e-05,-1.8657,0.488933,0.120671,-64.1169,-0.002310406,
2,0,0,1,0,44536.4,-0.00389586,-0.00427987,-13.4869,23,0.0033609,10,5.77221e-05,-1.87009,0.527673,0.111812,-58.9319,-0.004279871,
2,0,0,1,0,44536.4,-0.00589345,-0.00632308,-13.3873,23,0.00322649,10,8.46487e-05,-1.87331,0.536038,0.110067,-57.4438,-0.00632308,
2,0,0,1,0,44536.4,-0.00789103,-0.00824049,-13.2594,23,0.00309326,10,0.000109264,-1.87748,0.583247,0.101158,-52.4432,-0.00824049,
2,0,0,1,0,44536.4,-0.0098977,-0.0102542,-13.1811,23,0.00296101,10,0.000135162,-1.88005,0.672445,0.0877395,-45.0923,-0.0102542,
2,0,0,1,0,44536.4,-0.0118953,-0.0122514,-13.0785,23,0.00282973,10,0.00016023,-1.88344,0.637929,0.0924867,-47.2355,-0.0122514,
2,0,0,1,0,44536.5,-0.0138929,-0.0142469,-12.9925,23,0.00269932,10,0.000185103,-1.88631,0.664541,0.088783,-45.0066,-0.0142469,
2,0,0,1,0,44536.5,-0.0158905,-0.0162103,-12.9003,23,0.00256983,10,0.000209118,-1.8894,0.849317,0.0694676,-35.0339,-0.0162103,
2,0,0,1,0,44536.5,-0.017879,-0.018242,-12.8525,23,0.0024423,10,0.000234455,-1.89101,0.977513,0.0603573,-30.2424,-0.018242,
2,0,0,1,0,44536.5,-0.0198766,-0.0202764,-12.7774,23,0.00231418,10,0.000259078,-1.89356,0.923376,0.0638959,-31.8916,-0.0202764,
2,0,0,1,0,44536.5,-0.0218741,-0.0222153,-12.7258,23,0.0021867,10,0.000282708,-1.89531,1.05892,0.0557173,-27.6648,-0.0222153,
2,0,0,1,0,44536.5,-0.0238717,-0.0242346,-12.6679,23,0.00205977,10,0.000307,-1.8973,1.43385,0.041148,-20.3696,-0.0242346,
2,0,0,1,0,44536.5,-0.0258602,-0.0262763,-12.6431,23,0.00193446,10,0.000332214,-1.89815,1.47414,0.0400232,-19.725,-0.0262763,
2,0,0,1,0,44536.5,-0.0278578,-0.0282527,-12.5886,23,0.00180834,10,0.000355662,-1.90002,1.64983,0.0357613,-17.5969,-0.0282527,
2,0,0,1,0,44536.5,-0.0298554,-0.0302169,-12.5738,23,0.00168251,10,0.00037994,-1.90053,2.34676,0.0251411,-12.3278,-0.0302169,
2,0,0,1,0,44536.5,-0.031853,-0.032202,-12.5399,23,0.00155695,10,0.000403811,-1.90171,2.86287,0.0206087,-10.0968,-0.032202,
2,0,0,1,0,44536.6,-0.0338597,-0.0342097,-12.5334,23,0.00143158,10,0.000428765,-1.90193,4.71076,0.0125245,-6.12338,-0.0342097,
2,0,0,1,0,44536.6,-0.0358573,-0.0362338,-12.5152,23,0.00130636,10,0.000453474,-1.90256,9.47955,0.00622393,-3.04291,-0.0362338,
2,0,0,1,0,44536.6,-0.0378549,-0.0381859,-12.5213,23,0.00118112,10,0.000478139,-1.90235,8.89333,0.00663418,-3.23866,-0.0381859,
2,0,0,1,0,44536.6,-0.0398524,-0.0402291,-12.5023,23,0.00105595,10,0.000502956,-1.90301,-5.87385,-0.0100445,4.91234,-0.0402291,
2,0,0,1,0,44536.6,-0.0418591,-0.042235,-12.5412,23,0.00093073,10,0.000529679,-1.90166,-3.39824,-0.0173619,8.48279,-0.042235,
2,0,0,1,0,44536.6,-0.0438567,-0.0442253,-12.5362,23,0.00080537,10,0.000554417,-1.90183,-8.88617,-0.00663953,3.25137,-0.0442253,
2,0,0,1,0,44536.6,-0.0458543,-0.0462364,-12.5542,23,0.00067987,10,0.000580463,-1.90121,-3.82341,-0.0154313,7.55884,-0.0462364,
2,0,0,1,0,44536.6,-0.0478519,-0.0482354,-12.5665,23,0.000554276,10,0.00060615,-1.90079,-1.84137,-0.0320413,15.7378,-0.0482354,
2,0,0,1,0,44536.6,-0.0498585,-0.0502144,-12.6168,23,0.000428361,10,0.000633547,-1.89905,-1.75971,-0.0335282,16.486,-0.0502144,
2,0,0,1,0,44536.6,-0.051838,-0.0522039,-12.6319,23,0.000303414,10,0.000659436,-1.89853,-2.20749,-0.0267272,13.1879,-0.0522039,
2,0,0,1,0,44536.7,-0.0538355,-0.0542192,-12.6697,23,0.000176923,10,0.000686939,-1.89723,-1.73557,-0.0339945,16.8034,-0.0542192,
2,0,0,1,0,44536.7,-0.0558331,-0.0562106,-12.6993,23,5.00883e-05,10,0.000713833,-1.89622,-1.4492,-0.0407122,20.1938,-0.05621063,
2,0,0,1,0,44536.7,-0.0578126,-0.0581729,-12.7495,23,-7.58703e-05,10,0.000741676,-1.89451,-1.30322,-0.0452725,22.5172,-0.05817293,
2,0,0,1,0,44536.7,-0.0598192,-0.0602161,-12.7894,23,-0.000203576,10,0.000770131,-1.89315,-1.18939,-0.0496052,24.7776,-0.0602161,
2,0,0,1,0,44536.7,-0.0618168,-0.062157,-12.8482,23,-0.000331753,10,0.000798607,-1.89116,-1.15416,-0.0511192,25.616,-0.06215699,
2,0,0,1,0,44536.7,-0.0638144,-0.0641629,-12.8905,23,-0.00046045,10,0.000827095,-1.88973,-1.15432,-0.0511124,25.7317,-0.0641629,
2,0,0,1,0,44536.7,-0.065812,-0.0661618,-12.9513,23,-0.000589659,10,0.00085688,-1.88769,-1.0291,-0.0573319,28.9738,-0.0661618,
2,0,0,1,0,44536.7,-0.0678187,-0.068225,-13.0082,23,-0.000719487,10,0.000887487,-1.88578,-0.944216,-0.0624857,31.7384,-0.068225,
2,0,0,1,0,44536.7,-0.0698163,-0.070178,-13.0787,23,-0.000849942,10,0.00091784,-1.88343,-0.973897,-0.0605814,30.8981,-0.07017801,
2,0,0,1,0,44536.7,-0.0718138,-0.072137,-13.1291,23,-0.000981013,10,0.000947096,-1.88176,-0.923215,-0.0639071,32.7841,-0.07213705,
2,0,0,1,0,44536.8,-0.0738114,-0.0742072,-13.2108,23,-0.00111274,10,0.000980338,-1.87907,-0.784385,-0.0752182,38.7694,-0.0742072,
2,0,0,1,0,44536.8,-0.0758181,-0.0761601,-13.2851,23,-0.00124528,10,0.00101179,-1.87664,-0.817481,-0.0721729,37.423,-0.0761601,
2,0,0,1,0,44536.8,-0.0778157,-0.0782433,-13.3619,23,-0.00137858,10,0.00104548,-1.87413,-0.811568,-0.0726988,37.9082,-0.0782433,
2,0,0,1,0,44536.8,-0.0798133,-0.0801789,-13.4374,23,-0.0015126,10,0.0010774,-1.87168,-0.714635,-0.0825596,43.3279,-0.0801789,
2,0,0,1,0,44536.8,-0.0818109,-0.0821961,-13.5331,23,-0.00164748,10,0.00111237,-1.8686,-0.688241,-0.0857257,45.2613,-0.0821961,
2,0,0,1,0,44536.8,-0.0837994,-0.0842149,-13.6201,23,-0.00178191,10,0.00114702,-1.86582,-0.668976,-0.0881945,46.8996,-0.0842149,
2,0,0,1,0,44536.8,-0.085797,-0.0861586,-13.719,23,-0.00191857,10,0.00118201,-1.86268,-0.672599,-0.0877195,46.9424,-0.0861586,
2,0,0,1,0,44536.8,-0.0877945,-0.0881453,-13.8046,23,-0.00205618,10,0.00121681,-1.85998,-0.626367,-0.094194,50.8059,-0.0881453,
2,0,0,1,0,44536.8,-0.0897921,-0.0901694,-13.9228,23,-0.00219481,10,0.00125541,-1.85627,-0.614162,-0.0960658,52.145,-0.09016937,
2,0,0,1,0,44536.8,-0.0917806,-0.0921397,-14.0129,23,-0.00233305,10,0.00129114,-1.85347,-0.624975,-0.0944038,51.6711,-0.0921397,
2,0,0,1,0,44536.9,-0.0937782,-0.0941265,-14.1272,23,-0.00247376,10,0.00132975,-1.84994,-0.602286,-0.0979601,53.9827,-0.0941265,
2,0,0,1,0,44536.9,-0.0957758,-0.0961263,-14.2281,23,-0.00261556,10,0.0013677,-1.84685,-0.604847,-0.0975453,54.1927,-0.0961263,
2,0,0,1,0,44536.9,-0.0977734,-0.0981305,-14.3442,23,-0.00275843,10,0.0014076,-1.84332,-0.553268,-0.106639,59.7051,-0.0981305,
2,0,0,1,0,44536.9,-0.0997412,-0.100087,-14.4646,23,-0.00289956,10,0.00144772,-1.83969,0.103442,0.570367,-312.393,-0.100087,
2,0,0,1,1,44536.9,-0.0996711,-0.100102,-13.7284,23,-0.002942,10,0.00137424,-1.86238,-0.0160221,-3.68242,1804.05,-0.100102,
2,0,0,1,1,44536.9,-0.0976826,-0.0980659,-10.8179,23,-0.00306183,10,0.00106087,-1.96586,-0.0209121,-2.82133,1217.7,-0.09806595,
2,0,0,1,1,44536.9,-0.095685,-0.096022,-8.76057,23,-0.00315906,10,0.000841208,-2.05747,-0.0218113,-2.70502,930.983,-0.096022,
2,0,0,1,1,44536.9,-0.0936874,-0.0940536,-7.08252,23,-0.00323786,10,0.000666137,-2.14981,-0.0206866,-2.85209,787.054,-0.0940536,
2,0,0,1,1,44536.9,-0.0916898,-0.092024,-5.61394,23,-0.00330098,10,0.000516617,-2.25073,-0.0189068,-3.12058,683.603,-0.092024,
2,0,0,1,1,44536.9,-0.0897013,-0.0900748,-4.36257,23,-0.00335011,10,0.000392958,-2.36026,-0.016308,-3.61785,607.058,-0.0900748,
2,0,0,1,1,44536.9,-0.0877037,-0.0880611,-3.2082,23,-0.00338766,10,0.000282518,-2.49374,-0.0132137,-4.46507,548.073,-0.0880611,
2,0,0,1,1,44537,-0.0857062,-0.0860899,-2.17855,23,-0.00341437,10,0.000187551,-2.66183,-0.0095037,-6.20811,501.653,-0.0860899,
2,0,0,1,1,44537,-0.0837086,-0.0841378,-1.24006,23,-0.0034312,10,0.000104336,-2.90656,-0.00524731,-11.2438,449.525,-0.0841378,
2,0,0,1,1,44537,-0.0817019,-0.0820763,-0.374362,23,-0.00343909,10,3.07263e-05,-3.42671,-0.00843768,-6.99244,410.266,-0.0820763,
2,1,0,1,1,44537,-0.0797043,-0.0801086,0.412973,23,-0.0034387,10,-3.30827e-05,-3.38408,0.00832397,7.08796,376.614,-0.0801086,
2,1,0,1,1,44537,-0.0777067,-0.0780784,1.13131,23,-0.00343082,10,-8.83312e-05,-2.94642,0.00630975,9.3506,344.782,-0.0780784,
2,1,0,1,1,44537,-0.0757091,-0.0760621,1.80814,23,-0.00341598,10,-0.000137531,-2.74277,0.0119805,4.92465,326.641,-0.0760621,
2,1,0,1,1,44537,-0.0737025,-0.0740961,2.4321,23,-0.00339467,10,-0.000180209,-2.61402,0.0178349,3.30811,304.483,-0.0740961,
2,1,0,1,1,44537,-0.0717049,-0.0721136,3.01038,23,-0.00336732,10,-0.00021709,-2.52138,0.024465,2.41161,277.557,-0.0721136,
2,1,0,1,1,44537,-0.0697073,-0.0701242,3.53453,23,-0.00333455,10,-0.000247856,-2.45167,0.0310002,1.90321,260.195,-0.0701242,
2,1,0,1,1,44537,-0.0677097,-0.0681305,4.04678,23,-0.00329652,10,-0.000275709,-2.39289,0.0378599,1.55838,243.345,-0.0681305,
2,1,0,1,1,44537.1,-0.0657212,-0.0661273,4.50716,23,-0.00325414,10,-0.000298046,-2.3461,0.0459836,1.28307,224.207,-0.0661273,
2,1,0,1,1,44537.1,-0.0637236,-0.0641565,4.93777,23,-0.00320682,10,-0.00031679,-2.30647,0.0548082,1.07648,206.287,-0.0641565,
2,1,0,1,1,44537.1,-0.061726,-0.0621062,5.33665,23,-0.00315539,10,-0.000331439,-2.27273,0.0626812,0.941271,195.505,-0.0621062,
2,1,0,1,1,44537.1,-0.0597284,-0.0601259,5.72577,23,-0.00309996,10,-0.000344267,-2.24217,0.0714033,0.826293,183.624,-0.0601259,
2,1,0,1,1,44537.1,-0.0577399,-0.058127,6.06734,23,-0.00304159,10,-0.000352676,-2.217,0.0819365,0.72007,170.28,-0.05812696,
2,1,0,1,1,44537.1,-0.0557423,-0.0561332,6.40565,23,-0.00297913,10,-0.00035957,-2.19344,0.0927973,0.635794,158.28,-0.0561332,
2,1,0,1,1,44537.1,-0.0537447,-0.0541238,6.70096,23,-0.00291358,10,-0.000362681,-2.17386,0.106499,0.553994,144.635,-0.0541238,
2,1,0,1,1,44537.1,-0.0517472,-0.0521483,6.98201,23,-0.00284504,10,-0.0003641,-2.15602,0.117031,0.504142,137.161,-0.0521483,
2,1,0,1,1,44537.1,-0.049745,-0.0501294,7.24884,23,-0.00277387,10,-0.00036338,-2.13973,0.12809,0.460614,130.167,-0.0501294,
2,1,0,1,1,44537.1,-0.0477429,-0.04812,7.50636,23,-0.00270001,10,-0.000361206,-2.12457,0.147708,0.399436,116.606,-0.04812,
2,1,0,1,1,44537.2,-0.0457453,-0.0461202,7.71634,23,-0.00262384,10,-0.000355879,-2.11259,0.164974,0.357631,107.723,-0.0461202,
2,1,0,1,1,44537.2,-0.0437477,-0.0441524,7.93376,23,-0.0025455,10,-0.000350295,-2.10052,0.178624,0.330302,102.075,-0.0441524,
2,1,0,1,1,44537.2,-0.0417501,-0.042124,8.12425,23,-0.00246518,10,-0.000342226,-2.09022,0.197343,0.298972,94.8048,-0.042124,
2,1,0,1,1,44537.2,-0.0397435,-0.0400808,8.31977,23,-0.00238283,10,-0.000333463,-2.07989,0.223066,0.264496,85.6335,-0.0400808,
2,1,0,1,1,44537.2,-0.0377459,-0.0380879,8.46988,23,-0.00229887,10,-0.0003226,-2.07212,0.236908,0.249042,82.4257,-0.0380879,
2,1,0,1,1,44537.2,-0.0357483,-0.0361531,8.64351,23,-0.00221326,10,-0.00031249,-2.06331,0.264663,0.222925,74.9768,-0.0361531,
2,1,0,1,1,44537.2,-0.0337507,-0.0341151,8.76774,23,-0.00212617,10,-0.000299112,-2.05711,0.303049,0.194688,66.686,-0.0341151,
2,1,0,1,1,44537.2,-0.0317622,-0.0321375,8.9113,23,-0.00203856,10,-0.000286387,-2.05006,0.310198,0.190201,66.0444,-0.0321375,
2,1,0,1,1,44537.2,-0.0297646,-0.0301723,9.02814,23,-0.00194887,10,-0.0002724,-2.0444,0.359122,0.164289,57.874,-0.0301723,
2,1,0,1,1,44537.2,-0.027767,-0.0281459,9.14231,23,-0.00185798,10,-0.000257318,-2.03894,0.42676,0.138251,49.2483,-0.0281459,
2,1,0,1,1,44537.3,-0.0257694,-0.0261163,9.22789,23,-0.00176612,10,-0.000240998,-2.0349,0.437352,0.134903,48.6429,-0.0261163,
2,1,0,1,1,44537.3,-0.0237809,-0.024148,9.33678,23,-0.00167418,10,-0.000225465,-2.0298,0.483822,0.121946,44.3333,-0.024148,
2,1,0,1,1,44537.3,-0.0217833,-0.0221569,9.40343,23,-0.00158048,10,-0.000208351,-2.02671,0.584772,0.100894,37.055,-0.0221569,
2,1,0,1,1,44537.3,-0.0197858,-0.0201519,9.48485,23,-0.00148595,10,-0.000191137,-2.02297,0.625706,0.0942935,34.8621,-0.0201519,
2,1,0,1,1,44537.3,-0.0177882,-0.0181295,9.54383,23,-0.00139082,10,-0.000173025,-2.02028,0.622918,0.0947155,35.3182,-0.0181295,
2,1,0,1,1,44537.3,-0.0157815,-0.0161904,9.62477,23,-0.00129495,10,-0.000155828,-2.01661,0.764878,0.0771364,28.9049,-0.0161904,
2,1,0,1,1,44537.3,-0.0137839,-0.0141177,9.65979,23,-0.00119853,10,-0.000136374,-2.01503,1.02116,0.0577774,21.8016,-0.0141177,
2,1,0,1,1,44537.3,-0.0117863,-0.0121577,9.71268,23,-0.00110162,10,-0.000118084,-2.01266,1.01043,0.0583909,22.1122,-0.0121577,
2,1,0,1,1,44537.3,-0.00978874,-0.0101666,9.74716,23,-0.0010043,10,-9.90952e-05,-2.01112,1.00058,0.0589659,22.4548,-0.0101666,
2,1,0,1,1,44537.3,-0.00778207,-0.00814852,9.80271,23,-0.00090649,10,-7.98776e-05,-2.00865,1.24326,0.0474557,18.1198,-0.008148523,
2,1,0,1,1,44537.4,-0.00578449,-0.00613394,9.82023,23,-0.000808378,10,-6.02367e-05,-2.00788,1.5704,0.03757,14.4153,-0.00613394,
2,1,0,1,1,44537.4,-0.0037869,-0.00415146,9.86033,23,-0.000709942,10,-4.09348e-05,-2.00611,1.692,0.03487,13.4,-0.00415146,
2,1,0,1,1,44537.4,-0.00178931,-0.0021846,9.87315,23,-0.000611265,10,-2.15689e-05,-2.00554,5.23669,0.0112667,4.33922,-0.0021846,
2,1,0,1,1,44537.4,-2.55332e-05,-0.000363498,9.87677,23,-0.000525248,10,-3.59019e-06,-2.00539, , , ,-0.000363498,