File: Figure_codes/Fig_3-5/rawdata_trumpetplot_data/after 10th/20221101_1-115_003_TrumpetPlot_ParaChange_from10_every3_12_CV_C01_1.csv
mode,ox/red,error,control changes,counter inc.,time/s,control/V,Ewe/V,<I>/mA,cycle number,(Q-Qo)/C,I Range,P/W,log(|I|),Tafel slope mV/dec,alpha_eff,dI/d(E-IR),E-IR/V,
2,1,0,1,0,3166.65,2.44065e-05,-0.000344411,19.7696,2,0.0000000E+000,10,-6.80887e-06,-1.704, , , ,-0.000344411,
2,1,0,1,0,3166.66,0.00200257,0.00160886,20.8389,2,6.3349e-05,10,3.35268e-05,-1.68113, , , ,0.00160886,
2,1,0,1,0,3166.66,0.004408,0.00404991,21.8698,2,0.000148979,10,8.85709e-05,-1.66015, , , ,0.004049914,
2,1,0,1,0,3166.66,0.0068051,0.006474,22.6844,2,0.000238193,10,0.000146859,-1.64427,0.157432,0.374764,327.414,0.006474,
2,1,0,1,0,3166.67,0.00920221,0.00883659,23.3806,2,0.000330427,10,0.000206605,-1.63114,0.189888,0.31071,281.285,0.00883659,
2,1,0,1,0,3166.67,0.0115993,0.0112872,24.0077,2,0.000425302,10,0.000270979,-1.61965,0.218691,0.269787,251.32,0.0112872,
2,1,0,1,0,3166.68,0.0140075,0.013672,24.5764,2,0.000522539,10,0.000336009,-1.60948,0.249384,0.236583,225.749,0.013672,
2,1,0,1,0,3166.68,0.0164046,0.0160664,25.0951,2,0.00062194,10,0.000403189,-1.60041,0.279213,0.211308,206.03,0.0160664,
2,1,0,1,0,3166.68,0.0188017,0.0184534,25.5516,2,0.000723297,10,0.000471514,-1.59258,0.316563,0.186377,185.15,0.0184534,
2,1,0,1,0,3166.69,0.0212099,0.0208849,25.9851,2,0.000826412,10,0.000542697,-1.58528,0.356126,0.165672,167.395,0.0208849,
2,1,0,1,0,3166.69,0.023607,0.0232708,26.3536,2,0.000931136,10,0.00061327,-1.57916,0.386868,0.152507,156.503,0.0232708,
2,1,0,1,0,3166.7,0.0260041,0.0256621,26.7014,2,0.00103729,10,0.000685213,-1.57347,0.420935,0.140164,145.932,0.0256621,
2,1,0,1,0,3166.7,0.0284012,0.0280427,27.0523,2,0.00114481,10,0.00075862,-1.5678,0.451771,0.130597,137.667,0.02804267,
2,1,0,1,0,3166.7,0.0308067,0.0304625,27.3828,2,0.00125374,10,0.000834149,-1.56252,0.478709,0.123248,131.454,0.0304625,
2,1,0,1,0,3166.71,0.0332038,0.0328919,27.6781,2,0.00136388,10,0.000910385,-1.55786,0.512116,0.115208,124.298,0.0328919,
2,1,0,1,0,3166.71,0.0356009,0.0352916,27.9672,2,0.0014752,10,0.000987009,-1.55335,0.531613,0.110983,121.104,0.0352916,
2,1,0,1,0,3166.72,0.0380091,0.0376478,28.2462,2,0.00158767,10,0.00106341,-1.54904,0.538623,0.109539,120.782,0.0376478,
2,1,0,1,0,3166.72,0.0404062,0.0400645,28.5456,2,0.00170128,10,0.00114367,-1.54446,0.545563,0.108145,120.448,0.0400645,
2,1,0,1,0,3166.72,0.0428033,0.0424833,28.8366,2,0.00181606,10,0.00122507,-1.54006,0.550232,0.107228,120.61,0.0424833,
2,1,0,1,0,3166.73,0.0452032,0.0448406,29.1174,2,0.00193199,10,0.00130564,-1.53585,0.563574,0.104689,118.945,0.0448406,
2,1,0,1,0,3166.73,0.0476058,0.0472456,29.4038,2,0.00204907,10,0.0013892,-1.5316,0.558046,0.105726,121.357,0.0472456,
2,1,0,1,0,3166.74,0.0500029,0.0496622,29.6872,2,0.00216729,10,0.00147434,-1.52743,0.540697,0.109118,126.567,0.0496622,
2,1,0,1,0,3166.74,0.0524,0.0520216,29.9941,2,0.00228667,10,0.00156034,-1.52296,0.53464,0.110355,129.288,0.0520216,
2,1,0,1,0,3166.74,0.0548082,0.0544394,30.3323,2,0.00240735,10,0.00165127,-1.51809,0.523007,0.112809,133.495,0.0544394,
2,1,0,1,0,3166.75,0.0572053,0.0568369,30.6439,2,0.00252934,10,0.0017417,-1.51366,0.516003,0.11434,136.778,0.0568369,
2,1,0,1,0,3166.75,0.0596024,0.0592398,30.9658,2,0.00265258,10,0.00183441,-1.50912,0.510494,0.115574,139.82,0.0592398,
2,1,0,1,0,3166.76,0.0620051,0.0617042,31.3185,2,0.00277718,10,0.00193248,-1.5042,0.491139,0.120129,146.946,0.0617042,
2,1,0,1,0,3166.76,0.0644077,0.0640424,31.675,2,0.0029032,10,0.00202854,-1.49928,0.481286,0.122588,151.619,0.0640424,
2,1,0,1,0,3166.76,0.0668048,0.0664304,32.0536,2,0.00303068,10,0.00212934,-1.49412,0.466574,0.126454,158.256,0.0664304,
2,1,0,1,0,3166.77,0.0692019,0.0688842,32.4281,2,0.00315969,10,0.00223378,-1.48908,0.460302,0.128177,162.314,0.0688842,
2,1,0,1,0,3166.77,0.0716074,0.0712458,32.8285,2,0.00329024,10,0.00233889,-1.48375,0.454239,0.129888,166.516,0.0712458,
2,1,0,1,0,3166.78,0.0740045,0.0736401,33.2328,2,0.00342239,10,0.00244727,-1.47843,0.435774,0.135391,175.749,0.0736401,
2,1,0,1,0,3166.78,0.0764016,0.0760642,33.6578,2,0.00355622,10,0.00256015,-1.47291,0.431042,0.136878,179.942,0.0760642,
2,1,0,1,0,3166.78,0.0788042,0.078447,34.1087,2,0.00369179,10,0.00267573,-1.46713,0.4309,0.136923,182.227,0.078447,
2,1,0,1,0,3166.79,0.0812069,0.0808488,34.5565,2,0.00382919,10,0.00279385,-1.46147,0.428387,0.137726,185.63,0.0808488,
2,1,0,1,0,3166.79,0.083604,0.083257,34.9853,2,0.0039683,10,0.00291277,-1.45611,0.429544,0.137355,187.622,0.083257,
2,1,0,1,0,3166.8,0.0860011,0.0856047,35.4288,2,0.00410917,10,0.00303287,-1.45064,0.433194,0.136198,188.416,0.0856047,
2,1,0,1,0,3166.8,0.0884065,0.0880362,35.9079,2,0.00425191,10,0.00316119,-1.44481,0.428584,0.137662,192.845,0.0880362,
2,1,0,1,0,3166.8,0.0908036,0.0903871,36.3536,2,0.00439647,10,0.0032859,-1.43945,0.424915,0.138851,197.055,0.0903871,
2,1,0,1,0,3166.81,0.0932007,0.0927678,36.8194,2,0.00454287,10,0.00341565,-1.43392,0.425723,0.138588,199.349,0.09276776,
2,1,0,1,0,3166.81,0.0956034,0.0951823,37.3161,2,0.0046912,10,0.00355183,-1.4281,0.416911,0.141517,206.236,0.0951823,
2,1,0,1,0,3166.82,0.098006,0.0976456,37.8235,2,0.00484154,10,0.0036933,-1.42224,0.414689,0.142275,210.032,0.0976456,
2,1,0,1,0,3166.82,0.100403,0.100053,38.347,2,0.00499394,10,0.00383673,-1.41627,0.419044,0.140797,210.62,0.100053,
2,1,0,1,0,3166.82,0.1028,0.102442,38.8513,2,0.00514838,10,0.00398,-1.41059,0.423956,0.139165,210.883,0.102442,
2,1,0,1,0,3166.83,0.105208,0.1049,39.3628,2,0.00530488,10,0.00412915,-1.40491,0.434283,0.135856,208.567,0.1049,
2,1,0,1,0,3166.83,0.107606,0.107256,39.8502,2,0.00546336,10,0.00427418,-1.39957,0.435574,0.135453,210.697,0.1072561,
2,1,0,1,0,3166.84,0.110003,0.109629,40.3444,2,0.0056238,10,0.00442293,-1.39422,0.438679,0.134495,211.888,0.109629,
2,1,0,1,0,3166.84,0.112408,0.11207,40.88,2,0.00578628,10,0.00458143,-1.38849,0.438965,0.134407,214.396,0.11207,
2,1,0,1,0,3166.84,0.114805,0.114468,41.3902,2,0.00595089,10,0.00473785,-1.3831,0.438616,0.134514,217.245,0.114468,
2,1,0,1,0,3166.85,0.117202,0.116873,41.912,2,0.00611755,10,0.00489838,-1.37766,0.442692,0.133276,218.026,0.116873,
2,1,0,1,0,3166.85,0.119599,0.119269,42.4387,2,0.0062863,10,0.00506163,-1.37224,0.437978,0.13471,223.191,0.119269,
2,1,0,1,0,3166.86,0.122008,0.121666,42.972,2,0.00645718,10,0.00522823,-1.36681,0.435094,0.135603,227.539,0.121666,
2,1,0,1,0,3166.86,0.124405,0.124077,43.5349,2,0.00663023,10,0.00540169,-1.36116,0.427925,0.137875,234.353,0.124077,
2,1,0,1,0,3166.86,0.126802,0.126478,44.0975,2,0.00680554,10,0.00557737,-1.35559,0.424147,0.139103,239.486,0.126478,
2,1,0,1,0,3166.87,0.129207,0.128865,44.6874,2,0.00698315,10,0.00575865,-1.34981,0.421713,0.139906,244.029,0.128865,
2,1,0,1,0,3166.87,0.131604,0.13129,45.2769,2,0.00716314,10,0.00594442,-1.34412,0.411341,0.143433,253.579,0.13129,
2,1,0,1,0,3166.88,0.134001,0.133655,45.8721,2,0.0073455,10,0.00613103,-1.33845,0.404338,0.145917,261.56,0.133655,
2,1,0,1,0,3166.88,0.136399,0.136049,46.5246,2,0.00753035,10,0.00632964,-1.33232,0.396379,0.148848,270.455,0.1360493,
2,1,0,1,0,3166.88,0.138807,0.138458,47.1964,2,0.00771787,10,0.0065347,-1.32609,0.391493,0.150705,277.586,0.138458,
2,1,0,1,0,3166.89,0.141204,0.140849,47.8621,2,0.00790805,10,0.00674131,-1.32001,0.389059,0.151648,283.313,0.140849,
2,1,0,1,0,3166.89,0.143601,0.143284,48.5451,2,0.00810091,10,0.00695576,-1.31385,0.390339,0.151151,286.446,0.143284,
2,1,0,1,0,3166.9,0.146009,0.14564,49.2417,2,0.00829656,10,0.00717154,-1.30767,0.387395,0.152299,292.75,0.14564,
2,1,0,1,0,3166.9,0.148406,0.148062,49.9475,2,0.00849502,10,0.0073953,-1.30149,0.388302,0.151944,296.215,0.148062,
2,1,0,1,0,3166.9,0.150803,0.150444,50.6712,2,0.00869633,10,0.00762319,-1.29524,0.393693,0.149863,296.276,0.150444,
2,1,0,1,0,3166.91,0.153206,0.152881,51.3878,2,0.00890052,10,0.00785623,-1.28914,0.3983,0.148129,296.901,0.152881,
2,1,0,1,0,3166.91,0.155606,0.155283,52.0987,2,0.00910757,10,0.00809005,-1.28317,0.409941,0.143923,292.44,0.155283,
2,1,0,1,0,3166.92,0.158003,0.157651,52.7945,2,0.00931744,10,0.0083231,-1.27741,0.414941,0.142189,292.887,0.157651,
2,1,0,1,0,3166.92,0.1604,0.16006,53.4832,2,0.00953007,10,0.00856053,-1.27178,0.428264,0.137766,287.462,0.16006,
2,1,0,1,0,3166.92,0.162808,0.162475,54.1976,2,0.00974551,10,0.00880574,-1.26602,0.445615,0.132401,279.7,0.162475,
2,1,0,1,0,3166.93,0.165205,0.164876,54.8565,2,0.00996369,10,0.00904455,-1.26077,0.462336,0.127613,272.863,0.164876,
2,1,0,1,0,3166.93,0.167602,0.167279,55.4876,2,0.0101844,10,0.00928194,-1.2558,0.491619,0.120012,259.651,0.167279,
2,1,0,1,0,3166.94,0.170008,0.169701,56.1139,2,0.0104077,10,0.00952261,-1.25093,0.513063,0.114996,251.541,0.169701,
2,1,0,1,0,3166.94,0.172405,0.172096,56.6957,2,0.0106334,10,0.00975709,-1.24645,0.546737,0.107913,238.455,0.1720957,
2,1,0,1,0,3166.94,0.174802,0.174422,57.2577,2,0.0108614,10,0.00998701,-1.24217,0.602545,0.0979181,218.43,0.174422,
2,1,0,1,0,3166.95,0.177199,0.176841,57.7677,2,0.0110915,10,0.0102157,-1.23832,0.668429,0.0882667,198.568,0.176841,
2,1,0,1,0,3166.95,0.179607,0.17933,58.2171,2,0.0113235,10,0.0104401,-1.23495,0.779724,0.0756678,171.519,0.1793298,
2,1,0,1,0,3166.96,0.182005,0.181691,58.6011,2,0.0115572,10,0.0106473,-1.23209,0.942545,0.0625965,142.803,0.181691,
2,1,0,1,0,3166.96,0.184402,0.184072,58.9128,2,0.0117923,10,0.0108442,-1.22979,1.22989,0.0479719,109.974,0.184072,
2,1,0,1,0,3166.96,0.18681,0.186509,59.1482,2,0.0120285,10,0.0110317,-1.22806,2.05014,0.0287785,66.1728,0.186509,
2,1,0,1,0,3166.97,0.189207,0.188881,59.2675,2,0.0122654,10,0.0111945,-1.22718,7.7548,0.00760819,17.5175,0.188881,
2,1,0,1,0,3166.97,0.191604,0.191287,59.2361,2,0.0125024,10,0.0113311,-1.22741,-3.72061,-0.0158576,-36.4963,0.191287,
2,1,0,1,0,3166.98,0.194001,0.193663,59.0808,2,0.0127391,10,0.0114418,-1.22855,-1.34472,-0.0438751,-100.656,0.193663,
2,1,0,1,0,3166.98,0.196407,0.196149,58.7964,2,0.0129749,10,0.0115329,-1.23065,-0.811109,-0.0727399,-165.887,0.1961489,
2,1,0,1,0,3166.98,0.198804,0.198465,58.3028,2,0.0132091,10,0.0115711,-1.23431,-0.565959,-0.104248,-235.698,0.198465,
2,1,0,1,0,3166.99,0.201201,0.200896,57.642,2,0.013441,10,0.0115801,-1.23926,-0.410827,-0.143613,-320.901,0.200896,
2,1,0,1,0,3166.99,0.203609,0.20334,56.8001,2,0.0136698,10,0.0115497,-1.24565,-0.331507,-0.177975,-391.722,0.20334,
2,1,0,1,0,3167,0.206006,0.20567,55.741,2,0.0138948,10,0.0114643,-1.25383,-0.272637,-0.216405,-467.6,0.2056703,
2,1,0,1,0,3167,0.208403,0.208088,54.5332,2,0.0141153,10,0.0113477,-1.26334,-0.231723,-0.254614,-538.352,0.208088,
2,1,0,1,0,3167,0.210803,0.210502,53.1506,2,0.0143306,10,0.0111883,-1.27449,-0.205276,-0.287418,-592.517,0.210502,
2,1,0,1,0,3167.01,0.213206,0.21293,51.6372,2,0.01454,10,0.0109951,-1.28704,-0.181712,-0.32469,-650.532,0.21293,
2,1,0,1,0,3167.01,0.215603,0.215344,50.0089,2,0.0147432,10,0.0107691,-1.30095,-0.166987,-0.353322,-686.171,0.215344,
2,1,0,1,0,3167.02,0.218,0.217717,48.2695,2,0.0149396,10,0.0105091,-1.31633,-0.153173,-0.385185,-723.06,0.217717,
2,1,0,1,0,3167.02,0.220408,0.220164,46.5206,2,0.015129,10,0.0102422,-1.33235,-0.145338,-0.405949,-734.95,0.220164,
2,1,0,1,0,3167.02,0.222805,0.222486,44.7273,2,0.0153113,10,0.00995121,-1.34943,-0.140349,-0.420379,-732.645,0.222486,
2,1,0,1,0,3167.03,0.225202,0.22495,42.9496,2,0.0154865,10,0.00966149,-1.36704,-0.135729,-0.434689,-728.504,0.22495,
2,1,0,1,0,3167.03,0.227605,0.227326,41.2292,2,0.0156547,10,0.00937248,-1.38479,-0.135354,-0.435893,-701.882,0.227326,
2,1,0,1,0,3167.04,0.230008,0.229728,39.5533,2,0.0158161,10,0.00908649,-1.40282,-0.13513,-0.436616,-675.317,0.229728,
2,1,0,1,0,3167.04,0.232405,0.232106,37.9752,2,0.0159709,10,0.00881428,-1.4205,-0.137232,-0.42993,-639.111,0.232106,
2,1,0,1,0,3167.04,0.234802,0.234515,36.4896,2,0.0161197,10,0.00855737,-1.43783,-0.141828,-0.415996,-594.68,0.234515,
2,1,0,1,0,3167.05,0.237207,0.236893,35.1149,2,0.0162627,10,0.00831847,-1.45451,-0.146834,-0.401813,-552.959,0.236893,
2,1,0,1,0,3167.05,0.239604,0.239313,33.8533,2,0.0164005,10,0.00810152,-1.4704,-0.15422,-0.382571,-507.636,0.239313,
2,1,0,1,0,3167.06,0.242002,0.241681,32.6809,2,0.0165334,10,0.00789835,-1.48571,-0.164489,-0.358686,-459.858,0.241681,
2,1,0,1,0,3167.06,0.244404,0.244096,31.626,2,0.0166619,10,0.00771979,-1.49996,-0.173893,-0.339288,-420.862,0.244096,
2,1,0,1,0,3167.06,0.246807,0.246524,30.6862,2,0.0167864,10,0.00756486,-1.51306,-0.186637,-0.316122,-380.157,0.246524,
2,1,0,1,0,3167.07,0.249204,0.248942,29.8006,2,0.0169073,10,0.00741862,-1.52578,-0.20086,-0.293736,-343.264,0.248942,
2,1,0,1,0,3167.07,0.251601,0.251313,29.019,2,0.0170248,10,0.00729286,-1.53732,-0.213003,-0.276991,-315.2,0.251313,
2,1,0,1,0,3167.08,0.254006,0.25372,28.3224,2,0.0171394,10,0.00718596,-1.54787,-0.234115,-0.252013,-279.664,0.25372,
2,1,0,1,0,3167.08,0.256404,0.256057,27.6813,2,0.0172514,10,0.00708799,-1.55781,-0.254221,-0.232082,-251.721,0.256057,
2,1,0,1,0,3167.08,0.258801,0.258558,27.1114,2,0.0173609,10,0.00700987,-1.56685,-0.275388,-0.214243,-227.554,0.258558,
2,1,0,1,0,3167.09,0.261203,0.260925,26.5996,2,0.0174683,10,0.00694049,-1.57513,-0.301007,-0.196009,-204.136,0.260925,
2,1,0,1,0,3167.09,0.263606,0.263321,26.1376,2,0.0175737,10,0.0068826,-1.58273,-0.322131,-0.183156,-187.342,0.263321,
2,1,0,1,0,3167.1,0.266003,0.265691,25.7145,2,0.0176773,10,0.00683213,-1.58982,-0.354449,-0.166456,-167.521,0.265691,
2,1,0,1,0,3167.1,0.2684,0.268083,25.327,2,0.0177794,10,0.00678974,-1.59642,-0.382828,-0.154116,-152.758,0.268083,
2,1,0,1,0,3167.1,0.270808,0.270522,24.9919,2,0.01788,10,0.00676085,-1.6022,-0.411752,-0.14329,-140.001,0.270522,
2,1,0,1,0,3167.11,0.273205,0.272919,24.6715,2,0.0179793,10,0.00673332,-1.6078,-0.449885,-0.131145,-126.498,0.272919,
2,1,0,1,0,3167.11,0.275603,0.275309,24.368,2,0.0180773,10,0.00670874,-1.61318,-0.477007,-0.123688,-117.894,0.275309,
2,1,0,1,0,3167.12,0.278008,0.277673,24.1139,2,0.0181742,10,0.00669577,-1.61773,-0.506595,-0.116464,-109.734,0.277673,
2,1,0,1,0,3167.12,0.280405,0.280099,23.8628,2,0.0182702,10,0.00668395,-1.62228,-0.546182,-0.108023,-100.688,0.280099,
2,1,0,1,0,3167.12,0.282802,0.282488,23.6214,2,0.0183651,10,0.00667278,-1.62669,-0.579726,-0.101772,-93.9713,0.282488,
2,1,0,1,0,3167.13,0.285199,0.284869,23.4055,2,0.0184592,10,0.00666749,-1.63068,-0.621433,-0.0949419,-86.8627,0.284869,
2,1,0,1,0,3167.13,0.287608,0.287286,23.2106,2,0.0185524,10,0.00666806,-1.63431,-0.664594,-0.0887761,-80.4951,0.287286,
2,1,0,1,0,3167.14,0.290005,0.28971,23.028,2,0.0186449,10,0.00667143,-1.63774,-0.704175,-0.083786,-75.3437,0.28971,
2,1,0,1,0,3167.14,0.292402,0.292081,22.8493,2,0.0187366,10,0.00667384,-1.64113,-0.73571,-0.0801947,-71.5609,0.292081,
2,1,0,1,0,3167.14,0.294807,0.294479,22.6814,2,0.0188276,10,0.0066792,-1.64433,-0.763256,-0.0773005,-68.4905,0.294479,
2,1,0,1,0,3167.15,0.297204,0.296902,22.5224,2,0.018918,10,0.00668695,-1.64739,-0.764333,-0.0771915,-68.0536,0.296902,
2,1,0,1,0,3167.15,0.299421,0.299153,22.3812,2,0.0190011,10,0.00669541,-1.65012,-0.0923287,-0.639021,-534.134,0.299153,
2,1,0,0,0,3167.15,0.300012,0.29967,22.3328,2,0.0190234,10,0.00669248,-1.65106,0.00121364,48.6142,34560.3,0.29967,
2,1,0,1,0,3167.15,0.299243,0.299122,20.2017,2,0.0190502,10,0.00604276,-1.69461,0.0143269,4.11812,2483.99,0.2991218,
2,1,0,1,0,3167.16,0.296846,0.29667,14.4968,2,0.0191186,10,0.00430077,-1.83873,0.014966,3.94228,1989.43,0.29667,
2,1,0,1,0,3167.16,0.294449,0.294222,10.1315,2,0.0191671,10,0.00298092,-1.99432,0.0133393,4.42302,1689.07,0.294222,
2,1,0,1,0,3167.17,0.292041,0.291777,6.63081,2,0.0192001,10,0.00193472,-2.17843,0.00958272,6.15691,1348.6,0.291777,
2,1,0,1,0,3167.17,0.289644,0.289392,3.76655,2,0.0192204,10,0.00109001,-2.42406,0.00775801,7.60505,1106.17,0.289392,
2,1,0,1,0,3167.17,0.287247,0.286964,1.4074,2,0.0192304,10,0.000403874,-2.85158,0.0202644,2.91151,922.764,0.286964,
2,0,0,1,0,3167.18,0.284841,0.284544,-0.573167,2,0.0192318,10,-0.000163091,-3.24172,0.614514,0.0960109,768.512,0.284544,
2,0,0,1,0,3167.18,0.282444,0.282178,-2.22759,2,0.019226,10,-0.000628577,-2.65216,-0.0178885,-3.29821,651.064,0.282178,
2,0,0,1,0,3167.19,0.280047,0.279763,-3.63308,2,0.019214,10,-0.0010164,-2.43972,-0.00946332,-6.2346,555.179,0.279763,
2,0,0,1,0,3167.19,0.27765,0.277373,-4.8372,2,0.0191969,10,-0.00134171,-2.31541,-0.0198248,-2.97607,475.1,0.277373,
2,0,0,1,0,3167.19,0.275242,0.27497,-5.88866,2,0.0191753,10,-0.00161921,-2.22998,-0.0301617,-1.95613,409.269,0.27497,
2,0,0,1,0,3167.2,0.272845,0.272593,-6.78144,2,0.0191498,10,-0.00184857,-2.16868,-0.0413459,-1.42698,356.444,0.272593,
2,0,0,1,0,3167.2,0.270448,0.270155,-7.56549,2,0.019121,10,-0.00204385,-2.12116,-0.0539093,-1.09443,310.856,0.270155,
2,0,0,1,0,3167.21,0.268039,0.267745,-8.26884,2,0.0190893,10,-0.00221394,-2.08256,-0.0676132,-0.872611,273.392,0.267745,
2,0,0,1,0,3167.21,0.265642,0.265379,-8.8702,2,0.0190549,10,-0.00235396,-2.05207,-0.0823399,-0.716542,242.657,0.265379,
2,0,0,1,0,3167.21,0.263245,0.262947,-9.41843,2,0.0190183,10,-0.00247655,-2.02602,-0.0990151,-0.595869,215.451,0.262947,
2,0,0,1,0,3167.22,0.260843,0.260562,-9.89315,2,0.0189796,10,-0.00257778,-2.00467,-0.116001,-0.508614,194.105,0.260562,
2,0,0,1,0,3167.22,0.258443,0.258143,-10.3376,2,0.018939,10,-0.00266858,-1.98558,-0.133566,-0.441729,176.589,0.258143,
2,0,0,1,0,3167.23,0.256046,0.255708,-10.7474,2,0.0188968,10,-0.00274819,-1.9687,-0.150376,-0.392351,163.244,0.255708,
2,0,0,1,0,3167.23,0.253649,0.253339,-11.1151,2,0.018853,10,-0.0028159,-1.95408,-0.169713,-0.347646,149.818,0.253339,
2,0,0,1,0,3167.23,0.25124,0.250917,-11.4677,2,0.0188078,10,-0.00287744,-1.94052,-0.190291,-0.310051,137.833,0.250917,
2,0,0,1,0,3167.24,0.248843,0.248526,-11.7785,2,0.0187613,10,-0.00292727,-1.92891,-0.209146,-0.282099,129.05,0.248526,
2,0,0,1,0,3167.24,0.246446,0.246188,-12.0594,2,0.0187136,10,-0.0029689,-1.91867,-0.232355,-0.253922,119.22,0.246188,
2,0,0,1,0,3167.25,0.244041,0.24377,-12.35,2,0.0186648,10,-0.00301056,-1.90833,-0.249835,-0.236156,113.483,0.24377,
2,0,0,1,0,3167.25,0.241644,0.241322,-12.6116,2,0.0186148,10,-0.00304346,-1.89923,-0.270984,-0.217725,106.806,0.241322,
2,0,0,1,0,3167.25,0.239247,0.238963,-12.8637,2,0.0185638,10,-0.00307396,-1.89063,-0.291944,-0.202093,101.216,0.238963,
2,0,0,1,0,3167.26,0.236849,0.236502,-13.0941,2,0.0185118,10,-0.00309677,-1.88293,-0.310239,-0.190176,97.0197,0.2365016,
2,0,0,1,0,3167.26,0.234441,0.2341,-13.3288,2,0.0184589,10,-0.00312027,-1.87521,-0.328872,-0.179401,93.1669,0.2341,
2,0,0,1,0,3167.27,0.232044,0.231718,-13.5434,2,0.0184052,10,-0.00313825,-1.86827,-0.338107,-0.174501,92.1438,0.231718,
2,0,0,1,0,3167.27,0.229647,0.229344,-13.7599,2,0.0183506,10,-0.00315575,-1.86138,-0.35611,-0.165679,88.9021,0.229344,
2,0,0,1,0,3167.27,0.227239,0.22693,-13.976,2,0.0182951,10,-0.00317158,-1.85462,-0.377128,-0.156445,85.1493,0.22693,
2,0,0,1,0,3167.28,0.224842,0.224541,-14.1786,2,0.0182387,10,-0.00318367,-1.84837,-0.397412,-0.148461,81.9724,0.224541,
2,0,0,1,0,3167.28,0.222445,0.222165,-14.3568,2,0.0181816,10,-0.00318958,-1.84294,-0.401374,-0.146995,82.4138,0.222165,
2,0,0,1,0,3167.29,0.220047,0.219789,-14.5432,2,0.0181238,10,-0.00319642,-1.83734,-0.41642,-0.141684,80.5211,0.219789,
2,0,0,1,0,3167.29,0.217642,0.21738,-14.763,2,0.0180651,10,-0.00320919,-1.83082,-0.420286,-0.140381,80.7723,0.21738,
2,0,0,1,0,3167.29,0.215245,0.214929,-14.9526,2,0.0180057,10,-0.00321374,-1.82528,-0.419774,-0.140552,81.9244,0.214929,
2,0,0,1,0,3167.3,0.212848,0.212513,-15.1364,2,0.0179455,10,-0.00321669,-1.81998,-0.45148,-0.130681,77.1756,0.2125131,
2,0,0,1,0,3167.3,0.21044,0.210131,-15.3343,2,0.0178845,10,-0.00322223,-1.81434,-0.440729,-0.133869,80.1104,0.210131,
2,0,0,1,0,3167.31,0.208042,0.207734,-15.5075,2,0.0178229,10,-0.00322144,-1.80946,-0.444071,-0.132862,80.4668,0.207734,
2,0,0,1,0,3167.31,0.205645,0.205335,-15.7211,2,0.0177604,10,-0.0032281,-1.80352,-0.449935,-0.13113,80.4348,0.205335,
2,0,0,1,0,3167.31,0.203246,0.202934,-15.9072,2,0.0176971,10,-0.00322812,-1.79841,-0.446237,-0.132217,82.0386,0.202934,
2,0,0,1,0,3167.32,0.200843,0.200531,-16.1066,2,0.017633,10,-0.00322986,-1.793,-0.469184,-0.12575,79.0005,0.2005305,
2,0,0,1,0,3167.32,0.198446,0.198112,-16.2969,2,0.0175682,10,-0.00322861,-1.7879,-0.447559,-0.131826,83.9,0.198112,
2,0,0,1,0,3167.33,0.196049,0.195732,-16.4798,2,0.0175026,10,-0.00322562,-1.78305,-0.447297,-0.131903,84.9904,0.195732,
2,0,0,1,0,3167.33,0.19364,0.193304,-16.7152,2,0.0174362,10,-0.00323111,-1.77689,-0.441346,-0.133682,87.1805,0.193304,
2,0,0,1,0,3167.33,0.191243,0.190956,-16.9203,2,0.0173689,10,-0.00323104,-1.77159,-0.424876,-0.138864,91.6694,0.190956,
2,0,0,1,0,3167.34,0.188846,0.18855,-17.1305,2,0.0173008,10,-0.00322995,-1.76623,-0.431807,-0.136635,91.4481,0.18855,
2,0,0,1,0,3167.34,0.186444,0.186155,-17.3577,2,0.0172319,10,-0.00323122,-1.76051,-0.413003,-0.142856,96.9086,0.186155,
2,0,0,1,0,3167.35,0.184041,0.183726,-17.591,2,0.0171619,10,-0.00323194,-1.75471,-0.39804,-0.148226,101.919,0.183726,
2,0,0,1,0,3167.35,0.181644,0.181342,-17.852,2,0.017091,10,-0.00323732,-1.74831,-0.386843,-0.152517,106.336,0.181342,
2,0,0,1,0,3167.35,0.179247,0.178885,-18.1155,2,0.0170191,10,-0.0032406,-1.74195,-0.371415,-0.158852,112.369,0.178885,
2,0,0,1,0,3167.36,0.176841,0.176524,-18.3818,2,0.016946,10,-0.00324483,-1.73561,-0.360335,-0.163737,117.656,0.176524,
2,0,0,1,0,3167.36,0.174444,0.174117,-18.6709,2,0.0168719,10,-0.00325091,-1.72884,-0.342063,-0.172483,125.955,0.174117,
2,0,0,1,0,3167.37,0.172047,0.17172,-18.9841,2,0.0167965,10,-0.00325995,-1.72161,-0.319049,-0.184925,137.352,0.17172,
2,0,0,1,0,3167.37,0.169644,0.169322,-19.3201,2,0.0167199,10,-0.00327131,-1.71399,-0.306751,-0.192339,145.309,0.169322,
2,0,0,1,0,3167.37,0.167242,0.166951,-19.6967,2,0.0166419,10,-0.00328838,-1.70561,-0.291556,-0.202363,155.724,0.166951,
2,0,0,1,0,3167.38,0.164845,0.164542,-20.0621,2,0.0165623,10,-0.00330107,-1.69762,-0.277485,-0.212624,166.855,0.164542,
2,0,0,1,0,3167.38,0.162448,0.162175,-20.4706,2,0.0164812,10,-0.00331981,-1.68887,-0.267789,-0.220323,176.555,0.162175,
2,0,0,1,0,3167.39,0.160042,0.159754,-20.9166,2,0.0163984,10,-0.0033415,-1.67951,-0.250327,-0.235692,192.943,0.159754,
2,0,0,1,0,3167.39,0.157645,0.157342,-21.3931,2,0.0163137,10,-0.00336605,-1.66973,-0.236611,-0.249355,208.86,0.157342,
2,0,0,1,0,3167.39,0.155248,0.154929,-21.917,2,0.0162271,10,-0.00339557,-1.65922,-0.225285,-0.261891,224.624,0.154929,
2,0,0,1,0,3167.4,0.152845,0.152528,-22.4853,2,0.0161382,10,-0.00342965,-1.6481,-0.213108,-0.276855,243.509,0.152528,
2,0,0,1,0,3167.4,0.150443,0.150154,-23.0729,2,0.0160471,10,-0.00346449,-1.6369,-0.203577,-0.289817,261.811,0.150154,
2,0,0,1,0,3167.41,0.148046,0.147782,-23.7212,2,0.0159534,10,-0.00350556,-1.62486,-0.194154,-0.303883,282.424,0.147782,
2,0,0,1,0,3167.41,0.145648,0.145358,-24.4228,2,0.0158571,10,-0.00355004,-1.6122,-0.184732,-0.319381,305.472,0.145358,
2,0,0,1,0,3167.41,0.14324,0.142938,-25.1939,2,0.0157578,10,-0.00360116,-1.5987,-0.179802,-0.328139,323.366,0.142938,
2,0,0,1,0,3167.42,0.140843,0.140571,-26.0002,2,0.0156553,10,-0.00365488,-1.58502,-0.172211,-0.342602,348.406,0.140571,
2,0,0,1,0,3167.42,0.138446,0.138123,-26.8444,2,0.0155496,10,-0.00370784,-1.57115,-0.166866,-0.353577,371.584,0.138123,
2,0,0,1,0,3167.43,0.136041,0.135769,-27.7634,2,0.0154403,10,-0.00376942,-1.55653,-0.162385,-0.363334,394.828,0.135769,
2,0,0,1,0,3167.43,0.133644,0.133393,-28.7405,2,0.0153272,10,-0.00383379,-1.5415,-0.157756,-0.373995,420.419,0.133393,
2,0,0,1,0,3167.43,0.131246,0.131013,-29.7738,2,0.0152101,10,-0.00390077,-1.52617,-0.157073,-0.375622,437.024,0.131013,
2,0,0,1,0,3167.44,0.128849,0.12858,-30.8567,2,0.0150887,10,-0.00396755,-1.51065,-0.157169,-0.375393,452.284,0.1285798,
2,0,0,1,0,3167.44,0.126441,0.126169,-31.9588,2,0.014963,10,-0.00403223,-1.49541,-0.15754,-0.374508,467.389,0.1261695,
2,0,0,1,0,3167.45,0.124044,0.123741,-33.1059,2,0.0148327,10,-0.00409656,-1.48009,-0.158053,-0.373292,482.421,0.123741,
2,0,0,1,0,3167.45,0.121647,0.121353,-34.2889,2,0.0146978,10,-0.00416107,-1.46485,-0.160867,-0.366763,490.449,0.121353,
2,0,0,1,0,3167.45,0.119241,0.118998,-35.4792,2,0.0145582,10,-0.00422195,-1.45003,-0.16372,-0.360372,498.393,0.118998,
2,0,0,1,0,3167.46,0.116844,0.116546,-36.6785,2,0.0144137,10,-0.00427474,-1.43559,-0.169264,-0.348568,498.09,0.116546,
2,0,0,1,0,3167.46,0.114447,0.114172,-37.8751,2,0.0142645,10,-0.00432428,-1.42165,-0.176995,-0.333343,491.526,0.114172,
2,0,0,1,0,3167.47,0.11205,0.111807,-39.0436,2,0.0141105,10,-0.00436536,-1.40845,-0.184121,-0.320441,487.285,0.111807,
2,0,0,1,0,3167.47,0.109642,0.109427,-40.1837,2,0.0139519,10,-0.00439717,-1.39595,-0.188879,-0.312369,489.637,0.109427,
2,0,0,1,0,3167.47,0.107245,0.106972,-41.3439,2,0.0137887,10,-0.00442264,-1.38359,-0.197245,-0.299121,482.183,0.1069719,
2,0,0,1,0,3167.48,0.104848,0.104636,-42.5444,2,0.0136209,10,-0.00445167,-1.37116,-0.20685,-0.285231,472.157,0.104636,
2,0,0,1,0,3167.48,0.10244,0.10225,-43.652,2,0.0134483,10,-0.00446341,-1.36,-0.214946,-0.274487,466.326,0.10225,
2,0,0,1,0,3167.49,0.100042,0.0998004,-44.7288,2,0.0132715,10,-0.00446395,-1.34941,-0.232401,-0.253872,442.337,0.0998004,
2,0,0,1,0,3167.49,0.0976454,0.0974272,-45.7949,2,0.0130903,10,-0.00446167,-1.33918,-0.246105,-0.239735,427.377,0.0974272,
2,0,0,1,0,3167.49,0.0952427,0.094983,-46.8142,2,0.012905,10,-0.00444655,-1.32962,-0.260477,-0.226508,412.605,0.094983,
2,0,0,1,0,3167.5,0.0928428,0.0926204,-47.7674,2,0.0127157,10,-0.00442424,-1.32087,-0.281608,-0.209511,389.528,0.0926204,
2,0,0,1,0,3167.5,0.0904457,0.0902302,-48.6775,2,0.0125227,10,-0.00439218,-1.31267,-0.29931,-0.19712,373.761,0.0902302,
2,0,0,1,0,3167.51,0.0880486,0.0878305,-49.5331,2,0.0123261,10,-0.00435051,-1.3051,-0.318655,-0.185153,357.424,0.0878305,
2,0,0,1,0,3167.51,0.0856404,0.0853916,-50.3991,2,0.0121262,10,-0.00430366,-1.29758,-0.342429,-0.172299,338.163,0.0853916,
2,0,0,1,0,3167.51,0.0832433,0.0830163,-51.2002,2,0.0119229,10,-0.00425045,-1.29073,-0.367438,-0.160571,320.003,0.0830163,
2,0,0,1,0,3167.52,0.0808462,0.0805901,-51.9375,2,0.0117165,10,-0.00418564,-1.28452,-0.405145,-0.145627,294.402,0.0805901,
2,0,0,1,0,3167.52,0.0784408,0.0781596,-52.6278,2,0.0115073,10,-0.00411337,-1.27878,-0.452094,-0.130504,267.268,0.0781596,
2,0,0,1,0,3167.53,0.0760437,0.0757822,-53.2281,2,0.0112955,10,-0.00403374,-1.27386,-0.506898,-0.116394,241.152,0.0757822,
2,0,0,1,0,3167.53,0.0736466,0.073391,-53.7727,2,0.0110815,10,-0.00394643,-1.26944,-0.581597,-0.101445,212.375,0.073391,
2,0,0,1,0,3167.53,0.0712495,0.0709785,-54.2553,2,0.0108654,10,-0.00385096,-1.26556,-0.678173,-0.0869984,183.711,0.07097853,
2,0,0,1,0,3167.54,0.0688413,0.0685407,-54.6706,2,0.0106474,10,-0.00374716,-1.26225,-0.806702,-0.0731373,155.609,0.0685407,
2,0,0,1,0,3167.54,0.0664442,0.0661526,-54.9972,2,0.010428,10,-0.00363821,-1.25966,-1.00566,-0.058668,125.603,0.0661526,
2,0,0,1,0,3167.55,0.0640471,0.0637815,-55.268,2,0.0102075,10,-0.00352508,-1.25753,-1.31676,-0.0448069,96.407,0.0637815,
2,0,0,1,0,3167.55,0.0616389,0.0613564,-55.4639,2,0.00998599,10,-0.00340306,-1.25599,-1.89914,-0.0310668,67.0709,0.0613564,
2,0,0,1,0,3167.55,0.0592417,0.0589514,-55.5951,2,0.00976383,10,-0.00327741,-1.25496,-3.59861,-0.0163952,35.4726,0.0589514,
2,0,0,1,0,3167.56,0.0568446,0.0565369,-55.6421,2,0.00954132,10,-0.00314583,-1.2546,-14.5002,-0.00406891,8.81424,0.0565369,
2,0,0,1,0,3167.56,0.0544475,0.054152,-55.6096,2,0.00931882,10,-0.00301137,-1.25485,6.23503,0.00946266,-20.4948,0.054152,
2,0,0,1,0,3167.57,0.0520421,0.0516993,-55.549,2,0.00909647,10,-0.00287184,-1.25532,2.94396,0.0200411,-43.357,0.0516993,
2,0,0,1,0,3167.57,0.049645,0.0493431,-55.3982,2,0.00887456,10,-0.00273351,-1.2565,2.05226,0.0287487,-62.0575,0.0493431,
2,0,0,1,0,3167.57,0.0472479,0.0469412,-55.2261,2,0.00865332,10,-0.00259238,-1.25786,1.49313,0.0395144,-85.0348,0.0469412,
2,0,0,1,0,3167.58,0.0448397,0.0445458,-55.0135,2,0.00843286,10,-0.00245062,-1.25953,1.27395,0.0463127,-99.2643,0.0445458,
2,0,0,1,0,3167.58,0.0424426,0.0421365,-54.7358,2,0.0082134,10,-0.00230638,-1.26173,1.12612,0.0523921,-111.813,0.0421365,
2,0,0,1,0,3167.59,0.0400455,0.0397347,-54.4444,2,0.00799507,10,-0.00216333,-1.26405,1.01158,0.0583246,-123.865,0.0397347,
2,0,0,1,0,3167.59,0.0376456,0.0372862,-54.1465,2,0.00777791,10,-0.00201892,-1.26643,0.957686,0.0616068,-130.096,0.0372862,
2,0,0,1,0,3167.59,0.035243,0.0349438,-53.8241,2,0.007562,10,-0.00188082,-1.26902,0.89881,0.0656423,-137.777,0.0349438,
2,0,0,1,0,3167.6,0.0328459,0.0325409,-53.4875,2,0.0073474,10,-0.00174053,-1.27175,0.865367,0.0681791,-142.253,0.0325409,
2,0,0,1,0,3167.6,0.0304488,0.0301465,-53.1234,2,0.00713419,10,-0.00160148,-1.27471,0.842545,0.0700259,-145.177,0.0301465,
2,0,0,1,0,3167.61,0.0280406,0.0277033,-52.7833,2,0.00692244,10,-0.00146227,-1.2775,0.814257,0.0724587,-149.218,0.0277033,
2,0,0,1,0,3167.61,0.0256435,0.0253132,-52.426,2,0.00671205,10,-0.00132707,-1.28045,0.804826,0.0733077,-149.915,0.0253132,
2,0,0,1,0,3167.61,0.0232463,0.0229358,-52.0542,2,0.00650313,10,-0.0011939,-1.28354,0.76873,0.07675,-155.863,0.0229358,
2,0,0,1,0,3167.62,0.0208437,0.0205403,-51.6832,2,0.0062957,10,-0.00106159,-1.28665,0.741949,0.0795203,-160.299,0.0205403,
2,0,0,1,0,3167.62,0.018441,0.0181533,-51.2948,2,0.00608977,10,-0.000931172,-1.28993,0.728602,0.080977,-162.023,0.0181533,
2,0,0,1,0,3167.63,0.0160439,0.015707,-50.8861,2,0.00588546,10,-0.000799266,-1.2934,0.698036,0.0845228,-167.815,0.015707,
2,0,0,1,0,3167.63,0.0136468,0.0132861,-50.4908,2,0.00568275,10,-0.000670823,-1.29679,0.670769,0.0879587,-173.195,0.0132861,
2,0,0,1,0,3167.63,0.0112414,0.0109426,-50.0726,2,0.00548165,10,-0.000547922,-1.3004,0.633393,0.0931492,-181.805,0.0109426,
2,0,0,1,0,3167.64,0.00884431,0.00849302,-49.6217,2,0.00528231,10,-0.000421438,-1.30433,0.591323,0.0997762,-193.001,0.00849302,
2,0,0,1,0,3167.64,0.0064472,0.00613255,-49.1454,2,0.00508482,10,-0.000301387,-1.30852,0.586216,0.100645,-193.001,0.00613255,
2,0,0,1,0,3167.65,0.00404455,0.00374452,-48.6492,2,0.0048893,10,-0.000182168,-1.31292,0.549333,0.107403,-203.841,0.00374452,
2,0,0,1,0,3167.65,0.0016419,0.00129922,-48.2114,2,0.00469569,10,-6.26372e-05,-1.31685,0.515303,0.114496,-214.939,0.00129922,
2,0,0,1,0,3167.65,-0.000755207,-0.00116517,-47.653,2,0.004504,10,5.55236e-05,-1.32191,0.490906,0.120186,-223.083,-0.00116517,
2,0,0,1,0,3167.66,-0.00315231,-0.00350761,-47.0734,2,0.0043146,10,0.000165115,-1.32722,0.439129,0.134357,-246.545,-0.00350761,
2,0,0,1,0,3167.66,-0.00555774,-0.00594018,-46.4887,2,0.00412752,10,0.000276151,-1.33265,0.420439,0.140329,-254.264,-0.00594018,
2,0,0,1,0,3167.67,-0.00795485,-0.00829428,-45.8462,2,0.00394291,10,0.000380261,-1.3387,0.409295,0.14415,-257.791,-0.00829428,
2,0,0,1,0,3167.67,-0.010352,-0.0107237,-45.2226,2,0.00376083,10,0.000484952,-1.34464,0.392142,0.150456,-265.444,-0.0107237,
2,0,0,1,0,3167.67,-0.0127546,-0.0131181,-44.5959,2,0.00358126,10,0.000585012,-1.35071,0.388252,0.151963,-264.274,-0.0131181,
2,0,0,1,0,3167.68,-0.0151573,-0.0155114,-43.9481,2,0.00340423,10,0.000681697,-1.35706,0.381065,0.154829,-265.459,-0.0155114,
2,0,0,1,0,3167.68,-0.0175544,-0.0179302,-43.2997,2,0.00322981,10,0.000776372,-1.36352,0.379989,0.155268,-262.515,-0.0179302,
2,0,0,1,0,3167.69,-0.0199515,-0.0203543,-42.6661,2,0.00305793,10,0.000868438,-1.36992,0.386345,0.152713,-254.564,-0.02035429,
2,0,0,1,0,3167.69,-0.0223597,-0.0227296,-42.0727,2,0.00288852,10,0.000956296,-1.376,0.393404,0.149973,-246.448,-0.0227296,
2,0,0,1,0,3167.69,-0.0247568,-0.0251261,-41.5005,2,0.00272144,10,0.00104275,-1.38195,0.4116,0.143343,-232.374,-0.02512612,
2,0,0,1,0,3167.7,-0.0271539,-0.0275248,-40.9351,2,0.00255662,10,0.00112673,-1.3879,0.428158,0.1378,-220.513,-0.0275248,
2,0,0,1,0,3167.7,-0.0295593,-0.0299754,-40.4304,2,0.00239397,10,0.00121192,-1.39329,0.447257,0.131915,-208.476,-0.0299754,
2,0,0,1,0,3167.71,-0.0319564,-0.0323432,-39.9528,2,0.00223325,10,0.0012922,-1.39845,0.486517,0.12127,-189.423,-0.03234325,
2,0,0,1,0,3167.71,-0.0343535,-0.0346974,-39.5052,2,0.00207439,10,0.00137072,-1.40335,0.524383,0.112513,-173.869,-0.0346974,
2,0,0,1,0,3167.71,-0.0367506,-0.037079,-39.1253,2,0.00191718,10,0.00145073,-1.40754,0.573009,0.102965,-157.495,-0.037079,
2,0,0,1,0,3167.72,-0.0391588,-0.0395031,-38.7738,2,0.00176141,10,0.00153169,-1.41146,0.637169,0.0925971,-140.312,-0.03950312,
2,0,0,1,0,3167.72,-0.0415559,-0.0419251,-38.4437,2,0.00160703,10,0.00161176,-1.41517,0.707092,0.0834404,-125.426,-0.0419251,
2,0,0,1,0,3167.73,-0.043953,-0.0443068,-38.1569,2,0.00145387,10,0.00169061,-1.41843,0.795882,0.0741316,-110.635,-0.0443068,
2,0,0,1,0,3167.73,-0.0463585,-0.046733,-37.9145,2,0.00130176,10,0.00177186,-1.4212,0.917286,0.0643202,-95.3498,-0.046733,
2,0,0,1,0,3167.73,-0.0487556,-0.0490987,-37.7122,2,0.00115053,10,0.00185162,-1.42352,1.06698,0.0552962,-81.4966,-0.0490987,
2,0,0,1,0,3167.74,-0.0511527,-0.0515144,-37.5294,2,0.00100005,10,0.0019333,-1.42563,1.27829,0.0461556,-67.7085,-0.05151435,
2,0,0,1,0,3167.74,-0.0535498,-0.0539087,-37.3743,2,0.000850271,10,0.0020148,-1.42743,1.53975,0.038318,-55.9919,-0.0539087,
2,0,0,1,0,3167.75,-0.055958,-0.0563318,-37.2645,2,0.000701006,10,0.00209918,-1.4287,1.95094,0.0302418,-44.044,-0.05633178,
2,0,0,1,0,3167.75,-0.0583551,-0.0587283,-37.173,2,0.00055216,10,0.00218311,-1.42977,2.87498,0.0205219,-29.8183,-0.0587283,
2,0,0,1,0,3167.75,-0.0607522,-0.0611079,-37.1068,2,0.000403631,10,0.00226752,-1.43055,3.78282,0.0155968,-22.6165,-0.0611079,
2,0,0,1,0,3167.76,-0.0631604,-0.0635288,-37.0875,2,0.00025526,10,0.00235612,-1.43077,6.64883,0.00887374,-12.8521,-0.0635288,
2,0,0,1,0,3167.76,-0.0655575,-0.0659433,-37.0472,2,0.000106993,10,0.00244301,-1.43125,29.6309,0.00199117,-2.88246,-0.0659433,
2,0,0,1,0,3167.77,-0.0679546,-0.0683568,-37.0493,2,-4.1194e-05,10,0.00253257,-1.43122,-29.2574,-0.00201658,2.91992,-0.06835679,
2,0,0,1,0,3167.77,-0.0703573,-0.0707056,-37.0792,2,-0.000189438,10,0.0026217,-1.43087,-5.97819,-0.0098692,14.2956,-0.0707056,
2,0,0,1,0,3167.77,-0.0727571,-0.0731127,-37.1155,2,-0.000337831,10,0.00271361,-1.43045,-4.142,-0.0142443,20.6509,-0.0731127,
2,0,0,1,0,3167.78,-0.0751542,-0.0755188,-37.184,2,-0.000486438,10,0.00280809,-1.42964,-3.15794,-0.0186831,27.1308,-0.0755188,
2,0,0,1,0,3167.78,-0.0775514,-0.0779047,-37.2464,2,-0.000635298,10,0.00290167,-1.42892,-2.45302,-0.024052,34.9965,-0.0779047,
2,0,0,1,0,3167.79,-0.0799595,-0.0802991,-37.3395,2,-0.000784478,10,0.00299832,-1.42783,-2.17406,-0.0271382,39.5825,-0.0802991,
2,0,0,1,0,3167.79,-0.0823567,-0.0826956,-37.4508,2,-0.000934069,10,0.00309702,-1.42654,-1.75098,-0.0336953,49.2898,-0.0826956,
2,0,0,1,0,3167.79,-0.0847538,-0.0850858,-37.5627,2,-0.0010841,10,0.00319605,-1.42524,-1.5964,-0.0369582,54.2332,-0.0850858,
2,0,0,1,0,3167.8,-0.0871592,-0.0874865,-37.7187,2,-0.00123465,10,0.00329988,-1.42344,-1.51652,-0.0389049,57.2792,-0.0874865,
2,0,0,1,0,3167.8,-0.0895563,-0.0899393,-37.8623,2,-0.00138583,10,0.0034053,-1.42179,-1.37042,-0.0430525,63.6253,-0.0899393,
2,0,0,1,0,3167.81,-0.0919534,-0.0922902,-38.0004,2,-0.00153756,10,0.00350706,-1.42021,-1.28211,-0.0460179,68.3275,-0.09229017,
2,0,0,1,0,3167.81,-0.0943505,-0.0946952,-38.1741,2,-0.00168993,10,0.00361491,-1.41823,-1.19912,-0.0492026,73.3754,-0.0946952,
2,0,0,1,0,3167.81,-0.0967587,-0.0970822,-38.3744,2,-0.00184305,10,0.00372547,-1.41596,-1.13245,-0.0520992,77.8965,-0.0970822,
2,0,0,1,0,3167.82,-0.0991558,-0.0994988,-38.5637,2,-0.00199694,10,0.00383704,-1.41382,-1.98894,-0.0296641,44.3423,-0.0994988,
2,0,0,1,0,3167.82,-0.0999548,-0.100286,-38.6232,2,-0.0020471,10,0.00387335,-1.41315,0.0202262,2.917,-4049.48,-0.100286,
2,0,0,1,1,3167.82,-0.0999548,-0.100476,-38.4305,2,-0.00207018,10,0.00386136,-1.41532,-0.023412,-2.52007,3213.69,-0.1004765,
2,0,0,1,1,3167.82,-0.0979573,-0.098432,-32.908,2,-0.00217879,10,0.0032392,-1.4827,-0.0288806,-2.0429,2387.75,-0.098432,
2,0,0,1,1,3167.83,-0.0955546,-0.0960313,-27.4201,2,-0.00229864,10,0.00263319,-1.56193,-0.0291896,-2.02127,2149.94,-0.0960313,
2,0,0,1,1,3167.83,-0.0931519,-0.0936093,-22.6819,2,-0.0023982,10,0.00212324,-1.64432,-0.0276211,-2.13605,1884.99,-0.0936093,
2,0,0,1,1,3167.83,-0.0907548,-0.0912011,-18.489,2,-0.00247999,10,0.00168622,-1.73309,-0.0249008,-2.3694,1680.44,-0.0912011,
2,0,0,1,1,3167.84,-0.0883577,-0.0887866,-14.7264,2,-0.00254596,10,0.0013075,-1.8319,-0.0216374,-2.72676,1511.81,-0.0887866,
2,0,0,1,1,3167.84,-0.0859523,-0.0864282,-11.2828,2,-0.00259756,10,0.000975154,-1.94758,-0.0177302,-3.32765,1371.22,-0.0864282,
2,0,0,1,1,3167.85,-0.0835552,-0.0840052,-8.16233,2,-0.00263605,10,0.000685679,-2.08819,-0.0129258,-4.56451,1257.11,-0.0840052,
2,0,0,1,1,3167.85,-0.0811581,-0.0815854,-5.30365,2,-0.00266264,10,0.000432701,-2.27542,-0.00575823,-10.2462,1143.88,-0.0815854,
2,0,0,1,1,3167.85,-0.0787554,-0.0791931,-2.66624,2,-0.00267827,10,0.000211148,-2.5741,-0.0158018,-3.73375,1057.33,-0.0791931,
2,0,0,1,1,3167.86,-0.0763528,-0.0767722,-0.237413,2,-0.00268377,10,1.82267e-05,-3.6245,-0.0857743,-0.687852,980.038,-0.0767722,
2,1,0,1,1,3167.86,-0.0739557,-0.0743852,2.00919,2,-0.00267994,10,-0.000149454,-2.69698,0.0271308,2.17465,905.38,-0.0743852,
2,1,0,1,1,3167.87,-0.0715586,-0.0719908,4.09937,2,-0.00266747,10,-0.000295117,-2.38728,0.00628175,9.39228,844.304,-0.07199081,
2,1,0,1,1,3167.87,-0.0691532,-0.0696017,6.01761,2,-0.00264702,10,-0.000418836,-2.22058,0.0141979,4.15555,780.245,-0.0696017,
2,1,0,1,1,3167.87,-0.0667561,-0.0672423,7.80871,2,-0.00261914,10,-0.000525075,-2.10742,0.0221514,2.66348,728.156,-0.0672423,
2,1,0,1,1,3167.88,-0.0643589,-0.0648278,9.46635,2,-0.00258439,10,-0.000613682,-2.02382,0.0299767,1.96819,681.744,-0.0648278,
2,1,0,1,1,3167.88,-0.0619563,-0.062462,11.0378,2,-0.0025432,10,-0.000689445,-1.95712,0.0384757,1.53343,631.396,-0.062462,
2,1,0,1,1,3167.89,-0.0595536,-0.0600634,12.5203,2,-0.00249588,10,-0.000752013,-1.90238,0.0472307,1.24919,589.105,-0.0600634,
2,1,0,1,1,3167.89,-0.0571565,-0.0576435,13.8693,2,-0.00244296,10,-0.000799478,-1.85794,0.0565683,1.04299,550.17,-0.0576435,
2,1,0,1,1,3167.89,-0.0547594,-0.0551897,15.1442,2,-0.0023848,10,-0.000835802,-1.81975,0.0670543,0.879885,509.833,-0.0551897,
2,1,0,1,1,3167.9,-0.0523512,-0.052824,16.3404,2,-0.00232167,10,-0.000863165,-1.78674,0.0779722,0.75668,474.289,-0.05282395,
2,1,0,1,1,3167.9,-0.0499541,-0.050403,17.4455,2,-0.00225398,10,-0.000879305,-1.75832,0.0894552,0.659548,442.55,-0.05040304,
2,1,0,1,1,3167.91,-0.047557,-0.0479397,18.4717,2,-0.00218201,10,-0.00088553,-1.73349,0.102965,0.573012,408.078,-0.0479397,
2,1,0,1,1,3167.91,-0.0451544,-0.0455305,19.4189,2,-0.00210612,10,-0.00088415,-1.71178,0.116166,0.507894,381.055,-0.0455305,
2,1,0,1,1,3167.91,-0.0427545,-0.0431244,20.2986,2,-0.00202658,10,-0.000875364,-1.69253,0.131104,0.450024,353.414,-0.0431244,
2,1,0,1,1,3167.92,-0.0403574,-0.0407597,21.1201,2,-0.00194365,10,-0.000860849,-1.6753,0.146259,0.403395,329.985,-0.0407597,
2,1,0,1,1,3167.92,-0.0379603,-0.0383271,21.869,2,-0.00185757,10,-0.000838175,-1.66017,0.163981,0.359798,305.125,-0.0383271,
2,1,0,1,1,3167.93,-0.0355521,-0.0359465,22.5814,2,-0.00176856,10,-0.000811724,-1.64625,0.184526,0.319737,279.996,-0.0359465,
2,1,0,1,1,3167.93,-0.033155,-0.0335277,23.2268,2,-0.00167687,10,-0.00077874,-1.63401,0.202936,0.290732,262.143,-0.0335277,
2,1,0,1,1,3167.93,-0.0307579,-0.0311503,23.8107,2,-0.00158273,10,-0.00074171,-1.62323,0.227594,0.259233,239.893,-0.0311503,
2,1,0,1,1,3167.94,-0.0283524,-0.0287326,24.3841,2,-0.00148629,10,-0.000700618,-1.61289,0.253629,0.232623,220.344,-0.0287326,
2,1,0,1,1,3167.94,-0.0259553,-0.0263689,24.879,2,-0.00138767,10,-0.000656033,-1.60417,0.280796,0.210117,203.167,-0.02636892,
2,1,0,1,1,3167.95,-0.0235582,-0.0239109,25.3458,2,-0.00128716,10,-0.00060604,-1.59609,0.313647,0.18811,185.46,-0.0239109,
2,1,0,1,1,3167.95,-0.0211611,-0.0215229,25.7667,2,-0.00118487,10,-0.000554572,-1.58894,0.345788,0.170625,171.107,-0.0215229,
2,1,0,1,1,3167.95,-0.0187529,-0.0191475,26.1618,2,-0.00108095,10,-0.000500934,-1.58233,0.384181,0.153573,156.383,-0.0191475,
2,1,0,1,1,3167.96,-0.0163558,-0.0167182,26.5303,2,-0.000975527,10,-0.000443538,-1.57626,0.422639,0.139599,144.111,-0.0167182,
2,1,0,1,1,3167.96,-0.0139587,-0.0142718,26.8532,2,-0.000868721,10,-0.000383243,-1.571,0.471588,0.125109,130.776,-0.0142718,
2,1,0,1,1,3167.97,-0.0115505,-0.0119336,27.1486,2,-0.000760685,10,-0.00032398,-1.56625,0.544627,0.108331,114.473,-0.0119336,
2,1,0,1,1,3167.97,-0.0091534,-0.00955617,27.4161,2,-0.000651531,10,-0.000261993,-1.56199,0.598945,0.0985066,105.152,-0.009556165,
2,1,0,1,1,3167.97,-0.00675629,-0.00711617,27.6295,2,-0.000541406,10,-0.000196616,-1.55863,0.676234,0.0872479,93.9746,-0.00711617,
2,1,0,1,1,3167.98,-0.00435919,-0.00472495,27.857,2,-0.000430418,10,-0.000131623,-1.55507,0.852488,0.0692092,74.9725,-0.00472495,
2,1,0,1,1,3167.98,-0.00195376,-0.00229768,28.0541,2,-0.000318548,10,-6.44594e-05,-1.552, , , ,-0.00229768,
2,1,0,0,1,3167.99,-7.54729e-05,-0.00042076,28.101,2,-0.000231396,10,-1.18238e-05,-1.55128, , , ,-0.00042076,