File: Figure_codes/Fig_3-5/rawdata_trumpetplot_data/after 10th/20221101_1-115_003_TrumpetPlot_ParaChange_from10_every3_11_CV_C01_20.csv
mode,ox/red,error,control changes,counter inc.,time/s,control/V,Ewe/V,<I>/mA,cycle number,(Q-Qo)/C,I Range,P/W,log(|I|),Tafel slope mV/dec,alpha_eff,dI/d(E-IR),E-IR/V,
2,1,0,1,0,40597.1,2.44065e-05,-0.000325324,9.49896,21,0.0000000E+000,10,-3.09024e-06,-2.02232, , , ,-0.000325324,
2,1,0,1,0,40597.1,0.00214129,0.00175519,10.5144,21,5.15379e-05,10,1.84549e-05,-1.97821, , , ,0.001755194,
2,1,0,1,0,40597.1,0.0045495,0.004227,11.3225,21,0.000117271,10,4.78604e-05,-1.94606,0.0849404,0.694605,301.87,0.004227,
2,1,0,1,0,40597.1,0.0069466,0.0065599,11.9454,21,0.000187187,10,7.83603e-05,-1.9228,0.108428,0.544141,251.949,0.0065599,
2,1,0,1,0,40597.2,0.0093437,0.00897974,12.5112,21,0.000260644,10,0.000112348,-1.9027,0.128656,0.458589,222.784,0.00897974,
2,1,0,1,0,40597.2,0.0117408,0.0113858,13.0226,21,0.000337316,10,0.000148273,-1.8853,0.148807,0.396487,200.607,0.0113858,
2,1,0,1,0,40597.2,0.0141462,0.0137982,13.4785,21,0.000416886,10,0.00018598,-1.87036,0.16874,0.34965,183.366,0.01379823,
2,1,0,1,0,40597.2,0.0165433,0.0161651,13.9044,21,0.000499093,10,0.000224765,-1.85685,0.189182,0.31187,168.832,0.0161651,
2,1,0,1,0,40597.2,0.0189404,0.018569,14.2961,21,0.000583744,10,0.000265463,-1.84478,0.207476,0.28437,158.367,0.018569,
2,1,0,1,0,40597.2,0.0213486,0.0210281,14.678,21,0.0006707,10,0.00030865,-1.83333,0.228041,0.258725,147.838,0.0210281,
2,1,0,1,0,40597.2,0.0237457,0.0234246,15.0138,21,0.0007598,10,0.000351692,-1.82351,0.247644,0.238245,139.375,0.0234246,
2,1,0,1,0,40597.2,0.0261429,0.0257776,15.3313,21,0.000850873,10,0.000395205,-1.81442,0.2643,0.223231,133.524,0.0257776,
2,1,0,1,0,40597.2,0.02854,0.0281593,15.6494,21,0.000943863,10,0.000440677,-1.8055,0.285438,0.2067,126.036,0.0281593,
2,1,0,1,0,40597.2,0.0309482,0.0305866,15.9385,21,0.0010387,10,0.000487504,-1.79755,0.301399,0.195754,121.686,0.0305866,
2,1,0,1,0,40597.2,0.0333453,0.0329725,16.2168,21,0.00113519,10,0.000534707,-1.79004,0.3213,0.183629,116.202,0.0329725,
2,1,0,1,0,40597.2,0.0357424,0.0354273,16.4997,21,0.00123339,10,0.00058454,-1.78252,0.341365,0.172836,111.185,0.0354273,
2,1,0,1,0,40597.2,0.0381478,0.0377836,16.7535,21,0.0013332,10,0.000633006,-1.7759,0.358704,0.164481,107.531,0.0377836,
2,1,0,1,0,40597.2,0.0405449,0.0402119,17.0147,21,0.00143454,10,0.000684194,-1.76918,0.377267,0.156388,103.82,0.0402119,
2,1,0,1,0,40597.2,0.042942,0.0426148,17.2702,21,0.00153742,10,0.000735968,-1.7627,0.377835,0.156153,105.215,0.0426148,
2,1,0,1,0,40597.2,0.0453391,0.0450071,17.511,21,0.00164178,10,0.000788118,-1.75669,0.397249,0.148521,101.479,0.0450071,
2,1,0,1,0,40597.2,0.0477473,0.0473983,17.7553,21,0.00174763,10,0.000841568,-1.75067,0.405703,0.145427,100.734,0.0473983,
2,1,0,1,0,40597.3,0.0501444,0.0498149,17.997,21,0.00185491,10,0.00089652,-1.7448,0.410593,0.143695,100.913,0.0498149,
2,1,0,1,0,40597.3,0.0525415,0.0521998,18.2314,21,0.00196362,10,0.000951673,-1.73918,0.423253,0.139396,99.1984,0.0521998,
2,1,0,1,0,40597.3,0.0549469,0.0545804,18.4816,21,0.0020738,10,0.00100874,-1.73326,0.431294,0.136798,98.6,0.0545804,
2,1,0,1,0,40597.3,0.057344,0.0569769,18.7021,21,0.00218538,10,0.00106559,-1.72811,0.437295,0.13492,98.5303,0.0569769,
2,1,0,1,0,40597.3,0.0597411,0.0594265,18.9513,21,0.00229837,10,0.00112621,-1.72236,0.437981,0.134709,99.6235,0.0594265,
2,1,0,1,0,40597.3,0.0621438,0.0617912,19.1872,21,0.00241282,10,0.0011856,-1.71699,0.450279,0.13103,98.0969,0.0617912,
2,1,0,1,0,40597.3,0.0645465,0.0641877,19.4229,21,0.00252869,10,0.00124671,-1.71169,0.44359,0.133006,100.861,0.0641877,
2,1,0,1,0,40597.3,0.0669435,0.0665778,19.6737,21,0.00264598,10,0.00130983,-1.70611,0.45325,0.130171,99.8843,0.0665778,
2,1,0,1,0,40597.3,0.0693407,0.0690486,19.9083,21,0.00276476,10,0.00137464,-1.70097,0.458373,0.128716,100.005,0.0690486,
2,1,0,1,0,40597.3,0.0717489,0.0713772,20.1524,21,0.00288496,10,0.00143842,-1.69567,0.454572,0.129793,102.087,0.07137724,
2,1,0,1,0,40597.3,0.074146,0.0737981,20.3985,21,0.00300662,10,0.00150537,-1.6904,0.464922,0.126903,101.013,0.0737981,
2,1,0,1,0,40597.3,0.0765431,0.0761682,20.6399,21,0.00312976,10,0.0015721,-1.68529,0.45641,0.12927,104.147,0.0761682,
2,1,0,1,0,40597.3,0.0789485,0.0786018,20.8882,21,0.00325434,10,0.00164185,-1.6801,0.468721,0.125874,102.603,0.0786018,
2,1,0,1,0,40597.3,0.0813456,0.0809697,21.1327,21,0.00338045,10,0.00171111,-1.67505,0.46396,0.127166,104.876,0.0809697,
2,1,0,1,0,40597.3,0.0837427,0.0833991,21.3849,21,0.00350803,10,0.00178348,-1.66989,0.468664,0.12589,105.096,0.0833991,
2,1,0,1,0,40597.3,0.0861398,0.0857235,21.6358,21,0.00363715,10,0.0018547,-1.66483,0.473059,0.12472,105.299,0.0857235,
2,1,0,1,0,40597.3,0.088548,0.0882048,21.8971,21,0.00376779,10,0.00193143,-1.65961,0.480863,0.122696,104.825,0.0882048,
2,1,0,1,0,40597.4,0.0909451,0.0906024,22.1432,21,0.00389992,10,0.00200623,-1.65476,0.498127,0.118444,102.343,0.0906024,
2,1,0,1,0,40597.4,0.0933422,0.0929915,22.3946,21,0.00403356,10,0.00208251,-1.64986,0.501649,0.117612,102.755,0.0929915,
2,1,0,1,0,40597.4,0.0957476,0.0953477,22.6358,21,0.00416866,10,0.00215827,-1.6452,0.509535,0.115792,102.302,0.0953477,
2,1,0,1,0,40597.4,0.0981447,0.097792,22.885,21,0.00430522,10,0.00223797,-1.64045,0.518013,0.113897,101.646,0.09779197,
2,1,0,1,0,40597.4,0.100542,0.100158,23.114,21,0.00444326,10,0.00231504,-1.63613,0.516711,0.114184,103.034,0.100158,
2,1,0,1,0,40597.4,0.102939,0.102563,23.3608,21,0.00458268,10,0.00239595,-1.63151,0.509967,0.115694,105.555,0.102563,
2,1,0,1,0,40597.4,0.105347,0.104994,23.6217,21,0.00472367,10,0.00248014,-1.62669,0.499767,0.118055,108.801,0.104994,
2,1,0,1,0,40597.4,0.107744,0.107389,23.8803,21,0.00486622,10,0.00256447,-1.62196,0.524436,0.112502,104.814,0.107389,
2,1,0,1,0,40597.4,0.110141,0.109809,24.1299,21,0.0050103,10,0.00264967,-1.61744,0.527035,0.111947,105.419,0.1098085,
2,1,0,1,0,40597.4,0.11255,0.112217,24.3878,21,0.00515584,10,0.00273672,-1.61283,0.53653,0.109966,104.655,0.112217,
2,1,0,1,0,40597.4,0.114947,0.114569,24.637,21,0.00530293,10,0.00282263,-1.60841,0.523841,0.11263,108.299,0.114569,
2,1,0,1,0,40597.4,0.117344,0.116957,24.904,21,0.00545156,10,0.00291269,-1.60373,0.529404,0.111446,108.305,0.1169567,
2,1,0,1,0,40597.4,0.119744,0.119396,25.1588,21,0.00560175,10,0.00300385,-1.59931,0.514837,0.114599,112.557,0.119396,
2,1,0,1,0,40597.4,0.122146,0.12185,25.4323,21,0.00575356,10,0.00309894,-1.59461,0.505123,0.116803,115.985,0.12185,
2,1,0,1,0,40597.4,0.124543,0.124187,25.7153,21,0.00590705,10,0.0031935,-1.58981,0.502984,0.1173,117.707,0.124187,
2,1,0,1,0,40597.4,0.126941,0.12659,25.9959,21,0.00606224,10,0.00329083,-1.5851,0.487844,0.12094,122.784,0.12659,
2,1,0,1,0,40597.5,0.129349,0.129004,26.2968,21,0.00621913,10,0.00339239,-1.5801,0.474669,0.124297,127.619,0.129004,
2,1,0,1,0,40597.5,0.131746,0.131409,26.6132,21,0.0063779,10,0.00349722,-1.5749,0.479023,0.123167,127.876,0.131409,
2,1,0,1,0,40597.5,0.134143,0.133834,26.9113,21,0.00653852,10,0.00360164,-1.57007,0.470311,0.125449,131.812,0.133834,
2,1,0,1,0,40597.5,0.13654,0.136157,27.2277,21,0.00670097,10,0.00370726,-1.56499,0.472519,0.124863,132.756,0.136157,
2,1,0,1,0,40597.5,0.138945,0.138596,27.5581,21,0.00686539,10,0.00381946,-1.55975,0.474853,0.124249,133.607,0.1385964,
2,1,0,1,0,40597.5,0.141343,0.140995,27.8849,21,0.00703176,10,0.00393163,-1.55463,0.477247,0.123626,134.533,0.140995,
2,1,0,1,0,40597.5,0.14374,0.143405,28.2034,21,0.00720004,10,0.00404452,-1.5497,0.479796,0.122969,135.371,0.143405,
2,1,0,1,0,40597.5,0.146148,0.145796,28.532,21,0.0073703,10,0.00415984,-1.54467,0.488067,0.120885,134.577,0.145796,
2,1,0,1,0,40597.5,0.148545,0.148202,28.8475,21,0.0075425,10,0.00427525,-1.53989,0.508103,0.116118,130.705,0.148202,
2,1,0,1,0,40597.5,0.150942,0.150587,29.1585,21,0.00771656,10,0.0043909,-1.53523,0.518328,0.113828,129.525,0.150587,
2,1,0,1,0,40597.5,0.153345,0.152985,29.4603,21,0.00789245,10,0.00450698,-1.53076,0.532589,0.11078,127.362,0.152985,
2,1,0,1,0,40597.5,0.155747,0.155412,29.7673,21,0.00807019,10,0.00462621,-1.52626,0.559638,0.105425,122.384,0.155412,
2,1,0,1,0,40597.5,0.158144,0.157846,30.0495,21,0.00824968,10,0.00474319,-1.52216,0.607454,0.0971268,113.846,0.157846,
2,1,0,1,0,40597.5,0.160542,0.160158,30.3117,21,0.00843079,10,0.00485464,-1.51839,0.635302,0.0928691,109.863,0.160158,
2,1,0,1,0,40597.5,0.162947,0.162652,30.583,21,0.00861352,10,0.00497438,-1.51452,0.683718,0.0862929,102.896,0.1626517,
2,1,0,1,0,40597.5,0.165344,0.165004,30.8177,21,0.00879777,10,0.00508503,-1.5112,0.761787,0.0774495,93.0744,0.1650037,
2,1,0,1,0,40597.5,0.167741,0.167403,31.0223,21,0.00898332,10,0.00519325,-1.50833,0.850096,0.0694039,84.0066,0.1674034,
2,1,0,1,0,40597.6,0.170149,0.169772,31.2266,21,0.00917007,10,0.00530141,-1.50548,0.98903,0.0596544,72.6069,0.169772,
2,1,0,1,0,40597.6,0.172547,0.1722,31.3745,21,0.00935791,10,0.00540268,-1.50342,1.24976,0.0472092,57.7284,0.1722,
2,1,0,1,0,40597.6,0.174944,0.174583,31.4874,21,0.00954653,10,0.00549718,-1.50186,1.84002,0.0320648,39.3614,0.174583,
2,1,0,1,0,40597.6,0.177341,0.177,31.5618,21,0.00973571,10,0.00558644,-1.50084,3.28017,0.0179868,22.1323,0.177,
2,1,0,1,0,40597.6,0.179746,0.179417,31.6034,21,0.00992524,10,0.00567017,-1.50027,35.6789,0.00165364,2.03613,0.179417,
2,1,0,1,0,40597.6,0.182143,0.181844,31.5818,21,0.0101148,10,0.00574296,-1.50056,-3.30655,-0.0178434,-21.9552,0.181844,
2,1,0,1,0,40597.6,0.18454,0.184203,31.4987,21,0.0103041,10,0.00580218,-1.50171,-1.78817,-0.0329946,-40.5156,0.184203,
2,1,0,1,0,40597.6,0.186949,0.186605,31.3877,21,0.0104927,10,0.00585711,-1.50324,-1.14006,-0.0517518,-63.2828,0.186605,
2,1,0,1,0,40597.6,0.189346,0.189004,31.2093,21,0.0106805,10,0.00589868,-1.50572,-0.805279,-0.0732665,-89.0625,0.189004,
2,1,0,1,0,40597.6,0.191743,0.191429,30.9517,21,0.010867,10,0.00592506,-1.50932,-0.655183,-0.0900512,-108.687,0.191429,
2,1,0,1,0,40597.6,0.19414,0.193808,30.6695,21,0.0110519,10,0.00594398,-1.51329,-0.535797,-0.110116,-131.607,0.193808,
2,1,0,1,0,40597.6,0.196548,0.196242,30.3406,21,0.0112349,10,0.0059541,-1.51798,-0.458456,-0.128693,-152.049,0.196242,
2,1,0,1,0,40597.6,0.198945,0.198589,29.935,21,0.0114157,10,0.00594476,-1.52382,-0.393215,-0.150045,-175.069,0.198589,
2,1,0,1,0,40597.6,0.201342,0.201032,29.4889,21,0.0115939,10,0.00592821,-1.53034,-0.355781,-0.165832,-190.646,0.201032,
2,1,0,1,0,40597.6,0.203748,0.203463,29.0172,21,0.0117695,10,0.00590392,-1.53734,-0.324768,-0.181668,-205.455,0.203463,
2,1,0,1,0,40597.6,0.206145,0.205798,28.499,21,0.011942,10,0.00586502,-1.54517,-0.298067,-0.197942,-219.992,0.205798,
2,1,0,1,0,40597.6,0.208542,0.208239,27.9629,21,0.0121114,10,0.00582295,-1.55342,-0.286016,-0.206282,-225.006,0.208239,
2,1,0,1,0,40597.7,0.210939,0.210615,27.4027,21,0.0122774,10,0.00577142,-1.56221,-0.268449,-0.219781,-234.958,0.210615,
2,1,0,1,0,40597.7,0.213347,0.21304,26.8433,21,0.0124401,10,0.0057187,-1.57116,-0.2572,-0.229394,-240.109,0.21304,
2,1,0,1,0,40597.7,0.215744,0.215445,26.2588,21,0.0125994,10,0.00565734,-1.58072,-0.250793,-0.235254,-241.08,0.215445,
2,1,0,1,0,40597.7,0.218141,0.217829,25.6822,21,0.0127551,10,0.00559432,-1.59037,-0.25272,-0.23346,-234.069,0.217829,
2,1,0,1,0,40597.7,0.220547,0.220235,25.1283,21,0.0129075,10,0.00553414,-1.59984,-0.249443,-0.236527,-231.826,0.220235,
2,1,0,1,0,40597.7,0.222944,0.222615,24.5608,21,0.0130565,10,0.00546758,-1.60976,-0.245622,-0.240206,-230.378,0.222615,
2,1,0,1,0,40597.7,0.225341,0.225056,24.0133,21,0.0132022,10,0.00540433,-1.61955,-0.248636,-0.237295,-222.652,0.225056,
2,1,0,1,0,40597.7,0.227744,0.227419,23.5092,21,0.0133447,10,0.00534645,-1.62876,-0.257383,-0.22923,-210.299,0.227419,
2,1,0,1,0,40597.7,0.230146,0.229852,22.9954,21,0.0134842,10,0.00528553,-1.63836,-0.255148,-0.231238,-207.659,0.229852,
2,1,0,1,0,40597.7,0.232543,0.232209,22.5127,21,0.0136207,10,0.00522766,-1.64757,-0.262973,-0.224357,-197.296,0.232209,
2,1,0,1,0,40597.7,0.234941,0.23463,22.0617,21,0.0137543,10,0.00517633,-1.65636,-0.273547,-0.215685,-185.791,0.23463,
2,1,0,1,0,40597.7,0.237349,0.237067,21.6251,21,0.0138853,10,0.00512658,-1.66504,-0.281569,-0.20954,-176.921,0.237067,
2,1,0,1,0,40597.7,0.239746,0.239407,21.2046,21,0.0140138,10,0.00507652,-1.67357,-0.28708,-0.205518,-170.217,0.239407,
2,1,0,1,0,40597.7,0.242143,0.241799,20.8026,21,0.0141397,10,0.00503005,-1.68188,-0.300971,-0.196032,-159.349,0.241799,
2,1,0,1,0,40597.7,0.244548,0.244235,20.4433,21,0.0142634,10,0.00499296,-1.68945,-0.308209,-0.191429,-152.749,0.244235,
2,1,0,1,0,40597.7,0.246946,0.246589,20.0828,21,0.014385,10,0.0049522,-1.69718,-0.318599,-0.185186,-145.208,0.246589,
2,1,0,1,0,40597.8,0.249343,0.249045,19.7348,21,0.0145044,10,0.00491485,-1.70477,-0.340378,-0.173337,-133.695,0.249045,
2,1,0,1,0,40597.8,0.25174,0.251407,19.4265,21,0.0146218,10,0.00488395,-1.71161,-0.348736,-0.169182,-128.315,0.2514067,
2,1,0,1,0,40597.8,0.254148,0.253839,19.1305,21,0.0147375,10,0.00485608,-1.71827,-0.359113,-0.164294,-122.69,0.253839,
2,1,0,1,0,40597.8,0.256545,0.256236,18.8342,21,0.0148513,10,0.00482601,-1.72505,-0.373021,-0.158168,-116.416,0.256236,
2,1,0,1,0,40597.8,0.258942,0.258635,18.5769,21,0.0149635,10,0.00480466,-1.73103,-0.392603,-0.150279,-108.977,0.258635,
2,1,0,1,0,40597.8,0.261348,0.26101,18.3253,21,0.0150742,10,0.00478309,-1.73695,-0.397659,-0.148368,-106.096,0.26101,
2,1,0,1,0,40597.8,0.263745,0.26342,18.0714,21,0.0151833,10,0.00476037,-1.74301,-0.419126,-0.140769,-99.355,0.26342,
2,1,0,1,0,40597.8,0.266142,0.265847,17.8472,21,0.015291,10,0.00474463,-1.74843,-0.449837,-0.131159,-91.4098,0.2658473,
2,1,0,1,0,40597.8,0.268539,0.268194,17.6223,21,0.0153974,10,0.00472619,-1.75394,-0.463711,-0.127234,-87.5632,0.268194,
2,1,0,1,0,40597.8,0.270947,0.27061,17.422,21,0.0155026,10,0.00471457,-1.7589,-0.480816,-0.122708,-83.4406,0.27061,
2,1,0,1,0,40597.8,0.273344,0.273035,17.2238,21,0.0156065,10,0.00470269,-1.76387,-0.500361,-0.117915,-79.2803,0.273035,
2,1,0,1,0,40597.8,0.275741,0.275428,17.0386,21,0.0157092,10,0.0046929,-1.76857,-0.515378,-0.114479,-76.137,0.275428,
2,1,0,1,0,40597.8,0.278149,0.277818,16.8594,21,0.0158109,10,0.00468386,-1.77316,-0.53191,-0.110921,-72.9835,0.277818,
2,1,0,1,0,40597.8,0.280547,0.280225,16.684,21,0.0159115,10,0.00467528,-1.7777,-0.550371,-0.1072,-69.8574,0.280225,
2,1,0,1,0,40597.8,0.282944,0.282601,16.5243,21,0.0160111,10,0.00466978,-1.78188,-0.574174,-0.102756,-66.289,0.2826007,
2,1,0,1,0,40597.8,0.285344,0.285008,16.3763,21,0.0161097,10,0.00466736,-1.78579,-0.587288,-0.100462,-64.1792,0.285008,
2,1,0,1,0,40597.8,0.287746,0.287416,16.2146,21,0.0162075,10,0.00466035,-1.79009,-0.61115,-0.0965393,-61.1343,0.287416,
2,1,0,1,0,40597.9,0.290143,0.289782,16.074,21,0.0163043,10,0.00465797,-1.79387,-0.637443,-0.0925572,-58.0793,0.289782,
2,1,0,1,0,40597.9,0.29254,0.29219,15.9398,21,0.0164004,10,0.00465745,-1.79752,-0.67105,-0.087922,-54.6918,0.29219,
2,1,0,1,0,40597.9,0.294949,0.294646,15.8059,21,0.0164956,10,0.00465715,-1.80118,-0.679074,-0.0868831,-53.6163,0.294646,
2,1,0,1,0,40597.9,0.297346,0.297033,15.6792,21,0.01659,10,0.00465723,-1.80468,-0.751955,-0.0784621,-48.1051,0.2970328,
2,1,0,1,0,40597.9,0.299621,0.299276,15.5633,21,0.0166791,10,0.00465772,-1.8079,-0.0929759,-0.634573,-375.106,0.299276,
2,1,0,1,0,40597.9,0.299962,0.299537,15.4484,21,0.0166977,10,0.00462736,-1.81112,0.0131724,4.47905,2342.76,0.299537,
2,1,0,1,0,40597.9,0.297903,0.297636,12.3274,21,0.0167672,10,0.00366908,-1.90913,0.0229472,2.57112,1208.83,0.297636,
2,1,0,1,0,40597.9,0.295506,0.295222,9.83083,21,0.0168332,10,0.00290227,-2.00741,0.0243158,2.42641,946.261,0.295222,
2,1,0,1,0,40597.9,0.293101,0.292752,7.83394,21,0.0168858,10,0.0022934,-2.10602,0.0233791,2.52362,774.812,0.292752,
2,1,0,1,0,40597.9,0.290704,0.290434,6.16559,21,0.0169275,10,0.0017907,-2.21003,0.0218431,2.70108,646.36,0.290434,
2,1,0,1,0,40597.9,0.288307,0.287982,4.71833,21,0.0169599,10,0.0013588,-2.32621,0.018937,3.1156,566.186,0.287982,
2,1,0,1,0,40597.9,0.28591,0.285561,3.4738,21,0.0169842,10,0.000991982,-2.4592,0.0157239,3.75225,492.07,0.285561,
2,1,0,1,0,40597.9,0.283501,0.283185,2.36689,21,0.0170016,10,0.000670268,-2.62582,0.0115155,5.12354,437.774,0.283185,
2,1,0,1,0,40597.9,0.281104,0.28081,1.38196,21,0.0170127,10,0.000388068,-2.8595,0.00619525,9.52342,386.264,0.28081,
2,1,0,1,0,40597.9,0.278707,0.278386,0.513458,21,0.0170182,10,0.000142939,-3.2895,0.0123186,4.78952,343.045,0.278386,
2,0,0,1,0,40597.9,0.276302,0.275999,-0.268013,21,0.0170189,10,-7.39712e-05,-3.57184,-0.0372621,-1.58338,309.839,0.275999,
2,0,0,1,0,40597.9,0.273905,0.273578,-0.971252,21,0.0170151,10,-0.000265713,-3.01267,-0.00315482,-18.7015,281.482,0.273578,
2,0,0,1,0,40597.9,0.271508,0.271182,-1.61061,21,0.0170072,10,-0.000436768,-2.79301,-0.0126592,-4.66064,255.479,0.271182,
2,0,0,1,0,40598,0.269105,0.268781,-2.1977,21,0.0169957,10,-0.000590701,-2.65803,-0.0203275,-2.90247,233.304,0.268781,
2,0,0,1,0,40598,0.266702,0.266369,-2.72377,21,0.0169809,10,-0.000725527,-2.56483,-0.0285795,-2.06441,211.734,0.266369,
2,0,0,1,0,40598,0.264305,0.264021,-3.21694,21,0.016963,10,-0.000849341,-2.49256,-0.0368678,-1.60031,195.77,0.264021,
2,0,0,1,0,40598,0.261908,0.26159,-3.66513,21,0.0169423,10,-0.00095876,-2.43591,-0.0460875,-1.28017,180.041,0.26159,
2,0,0,1,0,40598,0.2595,0.259196,-4.0836,21,0.016919,10,-0.00105846,-2.38896,-0.0551732,-1.06936,168.239,0.259196,
2,0,0,1,0,40598,0.257103,0.256753,-4.4695,21,0.0168933,10,-0.00114756,-2.34974,-0.0656951,-0.898088,155.039,0.256753,
2,0,0,1,0,40598,0.254706,0.254404,-4.83055,21,0.0168654,10,-0.00122891,-2.316,-0.0764989,-0.771253,144.217,0.254404,
2,0,0,1,0,40598,0.2523,0.251982,-5.15719,21,0.0168354,10,-0.00129952,-2.28759,-0.0868087,-0.679655,136.188,0.251982,
2,0,0,1,0,40598,0.249903,0.249547,-5.47803,21,0.0168035,10,-0.00136703,-2.26138,-0.0983781,-0.599727,127.467,0.249547,
2,0,0,1,0,40598,0.247506,0.247224,-5.77071,21,0.0167697,10,-0.00142666,-2.23877,-0.111566,-0.528833,118.606,0.247224,
2,0,0,1,0,40598,0.245109,0.24479,-6.04495,21,0.0167342,10,-0.00147974,-2.21861,-0.124082,-0.475493,111.813,0.24479,
2,0,0,1,0,40598,0.242701,0.242349,-6.31021,21,0.0166971,10,-0.00152927,-2.19996,-0.135127,-0.436627,107.133,0.242349,
2,0,0,1,0,40598,0.240304,0.240009,-6.55356,21,0.0166585,10,-0.00157292,-2.18352,-0.15158,-0.389233,99.3724,0.240009,
2,0,0,1,0,40598,0.237906,0.237618,-6.7895,21,0.0166184,10,-0.00161331,-2.16816,-0.164999,-0.357579,94.5694,0.237618,
2,0,0,1,0,40598,0.235501,0.235158,-7.01568,21,0.0165769,10,-0.00164979,-2.15393,-0.179048,-0.329521,90.1054,0.235158,
2,0,0,1,0,40598,0.233104,0.23279,-7.22602,21,0.0165342,10,-0.00168215,-2.1411,-0.189897,-0.310695,87.4878,0.23279,
2,0,0,1,0,40598.1,0.230707,0.230363,-7.43871,21,0.0164902,10,-0.0017136,-2.1285,-0.205439,-0.28719,83.1898,0.230363,
2,0,0,1,0,40598.1,0.22831,0.227969,-7.61803,21,0.016445,10,-0.00173667,-2.11816,-0.219559,-0.26872,79.9458,0.227969,
2,0,0,1,0,40598.1,0.225902,0.225547,-7.8181,21,0.0163986,10,-0.00176335,-2.1069,-0.235892,-0.250114,76.1746,0.225547,
2,0,0,1,0,40598.1,0.223504,0.223179,-7.99736,21,0.0163512,10,-0.00178484,-2.09705,-0.251596,-0.234503,73.0497,0.223179,
2,0,0,1,0,40598.1,0.221107,0.220824,-8.16389,21,0.0163027,10,-0.00180278,-2.0881,-0.261666,-0.225479,71.873,0.220824,
2,0,0,1,0,40598.1,0.218699,0.218371,-8.33922,21,0.0162531,10,-0.00182104,-2.07887,-0.274579,-0.214874,69.8497,0.2183708,
2,0,0,1,0,40598.1,0.216302,0.216016,-8.50448,21,0.0162026,10,-0.0018371,-2.07035,-0.295525,-0.199644,66.1837,0.216016,
2,0,0,1,0,40598.1,0.213905,0.213564,-8.66031,21,0.0161511,10,-0.00184953,-2.06247,-0.312831,-0.1886,63.7027,0.213564,
2,0,0,1,0,40598.1,0.211505,0.21119,-8.80674,21,0.0160987,10,-0.00185989,-2.05518,-0.321649,-0.18343,63.0579,0.21119,
2,0,0,1,0,40598.1,0.209102,0.208773,-8.96366,21,0.0160453,10,-0.00187137,-2.04751,-0.327633,-0.180079,62.9563,0.208773,
2,0,0,1,0,40598.1,0.206705,0.206369,-9.1172,21,0.0159911,10,-0.00188151,-2.04014,-0.352503,-0.167375,59.4381,0.206369,
2,0,0,1,0,40598.1,0.204308,0.203983,-9.24642,21,0.015936,10,-0.00188611,-2.03403,-0.35184,-0.16769,60.5236,0.203983,
2,0,0,1,0,40598.1,0.2019,0.201579,-9.40051,21,0.0158801,10,-0.00189495,-2.02685,-0.360819,-0.163517,59.9368,0.201579,
2,0,0,1,0,40598.1,0.199503,0.199201,-9.53747,21,0.0158232,10,-0.00189987,-2.02057,-0.391567,-0.150677,55.9939,0.199201,
2,0,0,1,0,40598.1,0.197106,0.196794,-9.66358,21,0.0157656,10,-0.00190173,-2.01486,-0.391205,-0.150816,56.9373,0.196794,
2,0,0,1,0,40598.1,0.194709,0.19438,-9.79605,21,0.0157072,10,-0.00190416,-2.00895,-0.396099,-0.148953,57.0048,0.19438,
2,0,0,1,0,40598.1,0.192303,0.192006,-9.93958,21,0.015648,10,-0.00190846,-2.00263,-0.414186,-0.142448,55.1949,0.1920059,
2,0,0,1,0,40598.2,0.189906,0.189556,-10.0646,21,0.0155879,10,-0.00190782,-1.9972,-0.435032,-0.135622,53.2943,0.189556,
2,0,0,1,0,40598.2,0.187509,0.187169,-10.1956,21,0.0155271,10,-0.0019083,-1.99159,-0.422127,-0.139768,55.6525,0.187169,
2,0,0,1,0,40598.2,0.185101,0.184768,-10.3402,21,0.0154655,10,-0.00191053,-1.98547,-0.420282,-0.140382,56.6094,0.184768,
2,0,0,1,0,40598.2,0.182704,0.182392,-10.4719,21,0.0154031,10,-0.00191,-1.97997,-0.450512,-0.130962,53.5131,0.182392,
2,0,0,1,0,40598.2,0.180307,0.179976,-10.5991,21,0.0153399,10,-0.00190759,-1.97473,-0.425404,-0.138692,57.4071,0.179976,
2,0,0,1,0,40598.2,0.177904,0.177535,-10.7398,21,0.0152758,10,-0.00190669,-1.969,-0.420716,-0.140237,58.7809,0.177535,
2,0,0,1,0,40598.2,0.175501,0.17516,-10.8787,21,0.015211,10,-0.00190552,-1.96342,-0.431169,-0.136837,58.0662,0.17516,
2,0,0,1,0,40598.2,0.173104,0.172756,-11.0165,21,0.0151452,10,-0.00190317,-1.95796,-0.436024,-0.135314,58.1964,0.172756,
2,0,0,1,0,40598.2,0.170707,0.170369,-11.1453,21,0.0150788,10,-0.00189882,-1.95291,-0.419434,-0.140666,61.3316,0.170369,
2,0,0,1,0,40598.2,0.168302,0.168007,-11.3122,21,0.0150114,10,-0.00190053,-1.94645,-0.409637,-0.14403,63.5422,0.168007,
2,0,0,1,0,40598.2,0.165905,0.165592,-11.4646,21,0.014943,10,-0.00189846,-1.94064,-0.410795,-0.143624,64.2549,0.165592,
2,0,0,1,0,40598.2,0.163507,0.163148,-11.6126,21,0.0148737,10,-0.00189458,-1.93507,-0.390061,-0.151258,68.6977,0.163148,
2,0,0,1,0,40598.2,0.161099,0.160806,-11.7998,21,0.0148035,10,-0.00189747,-1.92813,-0.376221,-0.156823,72.1709,0.160806,
2,0,0,1,0,40598.2,0.158702,0.158381,-11.9717,21,0.0147322,10,-0.0018961,-1.92184,-0.366736,-0.160879,75.166,0.158381,
2,0,0,1,0,40598.2,0.156305,0.156008,-12.1504,21,0.0146598,10,-0.00189556,-1.91541,-0.349252,-0.168932,80.2456,0.156008,
2,0,0,1,0,40598.2,0.153908,0.153585,-12.3571,21,0.0145863,10,-0.00189787,-1.90808,-0.32013,-0.1843,88.9149,0.153585,
2,0,0,1,0,40598.2,0.151503,0.15113,-12.5733,21,0.0145115,10,-0.00190021,-1.90055,-0.312371,-0.188878,92.6906,0.15113,
2,0,0,1,0,40598.3,0.149105,0.148751,-12.7935,21,0.0144354,10,-0.00190304,-1.89301,-0.300539,-0.196314,98.1314,0.148751,
2,0,0,1,0,40598.3,0.146708,0.14637,-13.037,21,0.0143579,10,-0.00190822,-1.88482,-0.272725,-0.216335,110.288,0.14637,
2,0,0,1,0,40598.3,0.1443,0.143962,-13.3215,21,0.0142788,10,-0.00191779,-1.87545,-0.259353,-0.227489,118.407,0.143962,
2,0,0,1,0,40598.3,0.141903,0.14158,-13.6214,21,0.0141979,10,-0.00192853,-1.86578,-0.24378,-0.242021,128.768,0.14158,
2,0,0,1,0,40598.3,0.139506,0.139176,-13.9321,21,0.0141153,10,-0.00193901,-1.85598,-0.228896,-0.257759,140.549,0.139176,
2,0,0,1,0,40598.3,0.137109,0.136811,-14.2934,21,0.0140306,10,-0.00195549,-1.84486,-0.208492,-0.282984,158.163,0.136811,
2,0,0,1,0,40598.3,0.134701,0.134392,-14.6902,21,0.0139436,10,-0.00197424,-1.83297,-0.200101,-0.294851,169.152,0.1343919,
2,0,0,1,0,40598.3,0.132303,0.132001,-15.1026,21,0.0138542,10,-0.00199356,-1.82095,-0.190474,-0.309753,182.943,0.132001,
2,0,0,1,0,40598.3,0.129906,0.129601,-15.565,21,0.0137622,10,-0.00201724,-1.80785,-0.179518,-0.328657,199.934,0.129601,
2,0,0,1,0,40598.3,0.127501,0.127176,-16.0658,21,0.0136672,10,-0.00204318,-1.7941,-0.174653,-0.337812,211.839,0.127176,
2,0,0,1,0,40598.3,0.125104,0.124804,-16.5783,21,0.0135693,10,-0.00206904,-1.78046,-0.17323,-0.340589,220.569,0.1248037,
2,0,0,1,0,40598.3,0.122707,0.122441,-17.1131,21,0.0134681,10,-0.00209535,-1.76667,-0.169997,-0.347064,232.121,0.122441,
2,0,0,1,0,40598.3,0.12031,0.120012,-17.6884,21,0.0133637,10,-0.00212282,-1.75231,-0.170031,-0.346996,239.615,0.120012,
2,0,0,1,0,40598.3,0.117901,0.117542,-18.2765,21,0.0132557,10,-0.00214826,-1.73811,-0.172289,-0.342447,244.158,0.117542,
2,0,0,1,0,40598.3,0.115504,0.115177,-18.8639,21,0.0131442,10,-0.00217269,-1.72437,-0.176594,-0.334099,245.935,0.115177,
2,0,0,1,0,40598.3,0.113107,0.112803,-19.4595,21,0.0130292,10,-0.00219509,-1.71087,-0.180686,-0.326534,248.003,0.112803,
2,0,0,1,0,40598.4,0.110702,0.110386,-20.0719,21,0.0129106,10,-0.00221566,-1.69741,-0.185836,-0.317483,248.267,0.110386,
2,0,0,1,0,40598.4,0.108305,0.108011,-20.6617,21,0.0127883,10,-0.00223169,-1.68483,-0.197336,-0.298983,240.653,0.1080111,
2,0,0,1,0,40598.4,0.105908,0.105635,-21.2211,21,0.0126626,10,-0.00224169,-1.67323,-0.203601,-0.289782,240.025,0.105635,
2,0,0,1,0,40598.4,0.103505,0.103238,-21.8011,21,0.0125335,10,-0.00225071,-1.66152,-0.208607,-0.282828,240.477,0.1032382,
2,0,0,1,0,40598.4,0.101102,0.10081,-22.3629,21,0.0124009,10,-0.0022544,-1.65047,-0.21707,-0.271801,237.06,0.10081,
2,0,0,1,0,40598.4,0.0987052,0.0984293,-22.9333,21,0.012265,10,-0.00225731,-1.63953,-0.232995,-0.253224,226.391,0.09842927,
2,0,0,1,0,40598.4,0.0963081,0.0960338,-23.465,21,0.0121257,10,-0.00225343,-1.62958,-0.24257,-0.243229,222.594,0.0960338,
2,0,0,1,0,40598.4,0.0938999,0.0935779,-23.9977,21,0.0119832,10,-0.00224565,-1.61983,-0.259576,-0.227294,212.616,0.0935779,
2,0,0,1,0,40598.4,0.0915028,0.0911782,-24.4915,21,0.0118377,10,-0.00223309,-1.61098,-0.278119,-0.21214,202.629,0.0911782,
2,0,0,1,0,40598.4,0.0891057,0.0888273,-24.9785,21,0.0116892,10,-0.00221877,-1.60243,-0.296662,-0.198879,193.639,0.0888273,
2,0,0,1,0,40598.4,0.0867002,0.0863799,-25.4335,21,0.011538,10,-0.00219694,-1.59459,-0.319943,-0.184408,182.825,0.0863799,
2,0,0,1,0,40598.4,0.0843031,0.0839961,-25.8574,21,0.011384,10,-0.00217192,-1.58742,-0.342347,-0.17234,173.738,0.08399608,
2,0,0,1,0,40598.4,0.081906,0.0816335,-26.2551,21,0.0112277,10,-0.0021433,-1.58079,-0.367842,-0.160395,164.259,0.0816335,
2,0,0,1,0,40598.4,0.0795089,0.0792168,-26.638,21,0.0110689,10,-0.00211018,-1.5745,-0.397943,-0.148262,153.982,0.07921683,
2,0,0,1,0,40598.4,0.0771007,0.0767991,-26.9967,21,0.0109079,10,-0.00207332,-1.56869,-0.437587,-0.13483,141.884,0.0767991,
2,0,0,1,0,40598.4,0.0747036,0.0744142,-27.3125,21,0.010745,10,-0.00203244,-1.56364,-0.484428,-0.121793,129.769,0.0744142,
2,0,0,1,0,40598.4,0.0723065,0.0720167,-27.6191,21,0.0105801,10,-0.00198903,-1.55879,-0.527544,-0.111839,120.429,0.0720167,
2,0,0,1,0,40598.5,0.0699011,0.0696074,-27.9001,21,0.0104135,10,-0.00194205,-1.55439,-0.607049,-0.0971915,105.687,0.0696074,
2,0,0,1,0,40598.5,0.067504,0.067212,-28.1278,21,0.0102454,10,-0.00189052,-1.55086,-0.695635,-0.0848145,93.0357,0.067212,
2,0,0,1,0,40598.5,0.0651069,0.0648144,-28.3445,21,0.010076,10,-0.00183713,-1.54753,-0.783753,-0.0752788,83.1789,0.0648144,
2,0,0,1,0,40598.5,0.0627098,0.0623977,-28.5212,21,0.00990531,10,-0.00177966,-1.54483,-0.96375,-0.0612192,68.0825,0.0623977,
2,0,0,1,0,40598.5,0.0603016,0.0600012,-28.6683,21,0.0097337,10,-0.00172013,-1.5426,-1.13038,-0.0521947,58.3707,0.0600012,
2,0,0,1,0,40598.5,0.0579045,0.0575676,-28.7997,21,0.0095613,10,-0.00165793,-1.54061,-1.41414,-0.0417215,46.8525,0.0575676,
2,0,0,1,0,40598.5,0.0555074,0.0551869,-28.8967,21,0.00938817,10,-0.00159472,-1.53915,-1.64246,-0.0359217,40.4897,0.05518695,
2,0,0,1,0,40598.5,0.0530992,0.0527459,-28.9898,21,0.0092145,10,-0.00152909,-1.53776,-2.16559,-0.0272443,30.7986,0.0527459,
2,0,0,1,0,40598.5,0.0507021,0.0503515,-29.0533,21,0.00904037,10,-0.00146288,-1.5368,-2.89377,-0.0203886,23.1045,0.0503515,
2,0,0,1,0,40598.5,0.048305,0.0480048,-29.0977,21,0.00886593,10,-0.00139683,-1.53614,-4.04913,-0.014571,16.5393,0.0480048,
2,0,0,1,0,40598.5,0.0459051,0.0456104,-29.1261,21,0.00869123,10,-0.00132845,-1.53572,-7.7421,-0.00762067,8.65801,0.04561042,
2,0,0,1,0,40598.5,0.0435024,0.0431969,-29.1387,21,0.00851639,10,-0.0012587,-1.53553,-13.6115,-0.00433458,4.92982,0.0431969,
2,0,0,1,0,40598.5,0.0411053,0.0407909,-29.1509,21,0.00834152,10,-0.00118909,-1.53535,-179.706,-0.000328314,0.373471,0.0407909,
2,0,0,1,0,40598.5,0.0387082,0.0383763,-29.1559,21,0.00816658,10,-0.0011189,-1.53527,22.3067,0.00264494,-3.00795,0.0383763,
2,0,0,1,0,40598.5,0.0363,0.0359554,-29.1423,21,0.00799171,10,-0.00104783,-1.53548,8.6757,0.00680061,-7.73237,0.0359554,
2,0,0,1,0,40598.5,0.0339029,0.0335897,-29.1174,21,0.00781695,10,-0.000978042,-1.53585,7.22357,0.0081677,-9.27846,0.0335897,
2,0,0,1,0,40598.5,0.0315058,0.0311656,-29.0942,21,0.00764232,10,-0.000906738,-1.53619,5.02255,0.011747,-13.3319,0.0311656,
2,0,0,1,0,40598.6,0.0291087,0.0287691,-29.05,21,0.0074679,10,-0.000835741,-1.53685,4.07292,0.0144859,-16.4237,0.02876905,
2,0,0,1,0,40598.6,0.0267033,0.0263937,-29.0115,21,0.0072937,10,-0.000765721,-1.53743,3.5476,0.016631,-18.8272,0.0263937,
2,0,0,1,0,40598.6,0.0243062,0.0239909,-28.9669,21,0.00711976,10,-0.000694941,-1.5381,2.8854,0.0204478,-23.1082,0.0239909,
2,0,0,1,0,40598.6,0.0219091,0.0216028,-28.9081,21,0.00694614,10,-0.000624497,-1.53898,2.65196,0.0222477,-25.0961,0.0216028,
2,0,0,1,0,40598.6,0.0195009,0.0191363,-28.8507,21,0.00677287,10,-0.000552096,-1.53984,2.36095,0.02499,-28.1236,0.0191363,
2,0,0,1,0,40598.6,0.0171038,0.0167674,-28.7746,21,0.00660002,10,-0.000482475,-1.54099,2.08444,0.028305,-31.784,0.01676737,
2,0,0,1,0,40598.6,0.0147067,0.014408,-28.7082,21,0.0064276,10,-0.000413627,-1.54199,1.98088,0.0297847,-33.3442,0.014408,
2,0,0,1,0,40598.6,0.012304,0.0119542,-28.6167,21,0.00625566,10,-0.000342089,-1.54338,1.77745,0.0331936,-37.0583,0.0119542,
2,0,0,1,0,40598.6,0.00990136,0.00956297,-28.5168,21,0.00608429,10,-0.000272706,-1.5449,1.63532,0.0360785,-40.1427,0.00956297,
2,0,0,1,0,40598.6,0.00750426,0.00716751,-28.4202,21,0.00591348,10,-0.000203702,-1.54637,1.39527,0.0422856,-46.8678,0.00716751,
2,0,0,1,0,40598.6,0.00510715,0.00478478,-28.2898,21,0.00574335,10,-0.00013536,-1.54837,1.47745,0.0399338,-44.1294,0.00478478,
2,0,0,1,0,40598.6,0.00270173,0.00237447,-28.1675,21,0.00557397,10,-6.68829e-05,-1.55025,1.3169,0.0448022,-49.2717,0.00237447,
2,0,0,1,0,40598.6,0.000304623,-0.00010688,-28.073,21,0.00540514,10,3.00044e-06,-1.55171,1.15201,0.0512146,-56.0346,-0.00010688,
2,0,0,1,0,40598.6,-0.00209248,-0.00249174,-27.9133,21,0.0052372,10,6.95525e-05,-1.55419,0.968825,0.0608985,-66.3307,-0.00249174,
2,0,0,1,0,40598.6,-0.00450068,-0.00481721,-27.7579,21,0.00507023,10,0.000133715,-1.55661,0.910569,0.0647947,-70.1488,-0.00481721,
2,0,0,1,0,40598.6,-0.00689779,-0.00727205,-27.5891,21,0.00490423,10,0.000200629,-1.55926,0.896049,0.0658446,-70.8482,-0.00727205,
2,0,0,1,0,40598.7,-0.00929489,-0.00963994,-27.4119,21,0.00473928,10,0.000264249,-1.56206,0.836848,0.0705027,-75.3942,-0.00963994,
2,0,0,1,0,40598.7,-0.011692,-0.0121043,-27.2206,21,0.00457542,10,0.000329487,-1.5651,0.80282,0.0734909,-78.0704,-0.0121043,
2,0,0,1,0,40598.7,-0.0140974,-0.0144818,-27.032,21,0.00441267,10,0.000391471,-1.56812,0.790674,0.0746199,-78.7169,-0.0144818,
2,0,0,1,0,40598.7,-0.0164945,-0.0168051,-26.8422,21,0.00425105,10,0.000451086,-1.57118,0.765197,0.0771043,-80.7634,-0.0168051,
2,0,0,1,0,40598.7,-0.0188916,-0.0192822,-26.6472,21,0.00409059,10,0.000513818,-1.57435,0.753343,0.0783175,-81.4534,-0.01928222,
2,0,0,1,0,40598.7,-0.0212998,-0.0216904,-26.4513,21,0.00393132,10,0.000573738,-1.57755,0.753186,0.0783339,-80.8864,-0.0216904,
2,0,0,1,0,40598.7,-0.0236969,-0.0240668,-26.2714,21,0.00377318,10,0.000632268,-1.58052,0.761036,0.0775259,-79.4472,-0.0240668,
2,0,0,1,0,40598.7,-0.026094,-0.0264591,-26.0738,21,0.00361616,10,0.000689888,-1.5838,0.781062,0.0755382,-76.8895,-0.0264591,
2,0,0,1,0,40598.7,-0.0284912,-0.0288842,-25.8839,21,0.00346032,10,0.000747637,-1.58697,0.818979,0.0720409,-72.8439,-0.0288842,
2,0,0,1,0,40598.7,-0.0308994,-0.0313263,-25.7206,21,0.00330549,10,0.000805732,-1.58972,0.848883,0.0695031,-69.7644,-0.03132632,
2,0,0,1,0,40598.7,-0.0332965,-0.0336719,-25.5546,21,0.00315167,10,0.000860473,-1.59253,0.844178,0.0698905,-69.7237,-0.0336719,
2,0,0,1,0,40598.7,-0.0356936,-0.0360282,-25.3897,21,0.00299888,10,0.000914745,-1.59534,0.921399,0.0640331,-63.4952,-0.0360282,
2,0,0,1,0,40598.7,-0.038099,-0.0385106,-25.2564,21,0.00284698,10,0.000972639,-1.59763,1.03047,0.0572556,-56.4333,-0.03851058,
2,0,0,1,0,40598.7,-0.0404961,-0.0408361,-25.1074,21,0.00269592,10,0.00102529,-1.6002,1.02532,0.057543,-56.402,-0.0408361,
2,0,0,1,0,40598.7,-0.0428932,-0.0432739,-24.9781,21,0.00254565,10,0.0010809,-1.60244,1.14399,0.0515738,-50.2987,-0.04327393,
2,0,0,1,0,40598.7,-0.0452903,-0.0456312,-24.8547,21,0.00239616,10,0.00113415,-1.60459,1.26186,0.0467565,-45.3944,-0.0456312,
2,0,0,1,0,40598.7,-0.0476985,-0.0480447,-24.7645,21,0.0022473,10,0.0011898,-1.60617,1.4048,0.0419988,-40.5972,-0.0480447,
2,0,0,1,0,40598.8,-0.0500956,-0.0504433,-24.6702,21,0.002099,10,0.00124445,-1.60783,1.47101,0.0401085,-38.6191,-0.0504433,
2,0,0,1,0,40598.8,-0.0524927,-0.0528441,-24.5776,21,0.00195127,10,0.00129878,-1.60946,1.70747,0.034554,-33.1736,-0.0528441,
2,0,0,1,0,40598.8,-0.0548981,-0.0553318,-24.5214,21,0.00180401,10,0.00135681,-1.61045,2.08285,0.0283265,-27.1098,-0.0553318,
2,0,0,1,0,40598.8,-0.0572953,-0.0576424,-24.459,21,0.00165709,10,0.00140988,-1.61156,2.19224,0.0269131,-25.6883,-0.0576424,
2,0,0,1,0,40598.8,-0.0596924,-0.0600899,-24.3935,21,0.00151055,10,0.0014658,-1.61273,2.99863,0.0196756,-18.7493,-0.06008986,
2,0,0,1,0,40598.8,-0.062095,-0.062462,-24.3672,21,0.00136432,10,0.00152203,-1.61319,4.08226,0.0144528,-13.7431,-0.062462,
2,0,0,1,0,40598.8,-0.0644977,-0.0649083,-24.3392,21,0.00121821,10,0.00157982,-1.61369,5.60001,0.0105357,-10.0043,-0.0649083,
2,0,0,1,0,40598.8,-0.0668948,-0.0672688,-24.3113,21,0.00107228,10,0.00163539,-1.61419,6.8103,0.00866335,-8.22269,-0.0672688,
2,0,0,1,0,40598.8,-0.0692919,-0.0696675,-24.2935,21,0.000926477,10,0.00169247,-1.61451,22.2902,0.0026469,-2.51117,-0.0696675,
2,0,0,1,0,40598.8,-0.0717001,-0.0720226,-24.3035,21,0.000780682,10,0.0017504,-1.61433,-46.1267,-0.00127909,1.21326,-0.0720226,
2,0,0,1,0,40598.8,-0.0740972,-0.0744361,-24.3039,21,0.000634864,10,0.00180909,-1.61432,-22.1529,-0.0026633,2.52735,-0.0744361,
2,0,0,1,0,40598.8,-0.0764943,-0.0768326,-24.3187,21,0.000489001,10,0.00186847,-1.61406,-7.32114,-0.00805886,7.65304,-0.07683263,
2,0,0,1,0,40598.8,-0.0788997,-0.0792419,-24.3445,21,0.000343039,10,0.00192911,-1.6136,-4.73115,-0.0124705,11.8515,-0.0792419,
2,0,0,1,0,40598.8,-0.0812968,-0.0816649,-24.3822,21,0.000196857,10,0.00199117,-1.61293,-3.93605,-0.0149896,14.2582,-0.0816649,
2,0,0,1,0,40598.8,-0.0836939,-0.0840614,-24.4149,21,5.04694e-05,10,0.00205235,-1.61235,-3.14545,-0.0187573,17.8786,-0.0840614,
2,0,0,1,0,40598.8,-0.086091,-0.086459,-24.4583,21,-9.61316e-05,10,0.00211464,-1.61157,-2.45327,-0.0240495,22.9713,-0.086459,
2,0,0,1,0,40598.8,-0.0884992,-0.0888799,-24.5298,21,-0.000243113,10,0.0021802,-1.61031,-2.30551,-0.0255908,24.4882,-0.0888799,
2,0,0,1,0,40598.9,-0.0908963,-0.0912382,-24.5841,21,-0.000390465,10,0.00224301,-1.60935,-2.13842,-0.0275905,26.4861,-0.0912382,
2,0,0,1,0,40598.9,-0.0932934,-0.0936125,-24.6494,21,-0.000538148,10,0.00230749,-1.60819,-1.80909,-0.0326131,31.3999,-0.0936125,
2,0,0,1,0,40598.9,-0.0956989,-0.096062,-24.7469,21,-0.00068633,10,0.00237723,-1.60648,-1.66834,-0.0353645,34.1366,-0.096062,
2,0,0,1,0,40598.9,-0.098096,-0.0984776,-24.8179,21,-0.000835032,10,0.002444,-1.60524,-2.03246,-0.0290289,28.072,-0.0984776,
2,0,0,0,0,40598.9,-0.0999548,-0.100286,-24.8709,21,-0.000951829,10,0.0024942,-1.60431,0.029706,1.98613,-1822.6,-0.100286,
2,0,0,1,1,40598.9,-0.0994554,-0.099888,-23.6745,21,-0.000992825,10,0.0023648,-1.62572,-0.0281366,-2.09691,1785.77,-0.099888,
2,0,0,1,1,40598.9,-0.0970584,-0.0974639,-20.0208,21,-0.00112287,10,0.0019513,-1.69852,-0.033873,-1.7418,1379.05,-0.0974639,
2,0,0,1,1,40598.9,-0.0946501,-0.0950631,-17.219,21,-0.00123408,10,0.0016369,-1.76399,-0.0367832,-1.60399,1087.11,-0.0950631,
2,0,0,1,1,40598.9,-0.092253,-0.092638,-14.8345,21,-0.00132987,10,0.00137424,-1.82873,-0.0363534,-1.62296,943.467,-0.092638,
2,0,0,1,1,40598.9,-0.0898559,-0.0902298,-12.7448,21,-0.00141226,10,0.00114996,-1.89467,-0.034753,-1.6977,843.19,-0.0902298,
2,0,0,1,1,40598.9,-0.0874588,-0.0878524,-10.8395,21,-0.00148276,10,0.000952276,-1.96499,-0.0328253,-1.7974,757.173,-0.0878524,
2,0,0,1,1,40598.9,-0.0850534,-0.0854251,-9.09614,21,-0.0015423,10,0.000777038,-2.04114,-0.030056,-1.963,692.908,-0.0854251,
2,0,0,1,1,40598.9,-0.0826563,-0.0831049,-7.50273,21,-0.00159188,10,0.000623514,-2.12478,-0.0266236,-2.21608,641.447,-0.0831049,
2,0,0,1,1,40598.9,-0.0802592,-0.0806596,-6.02746,21,-0.00163226,10,0.000486173,-2.21987,-0.0227783,-2.59019,596.861,-0.0806596,
2,0,0,1,1,40598.9,-0.077851,-0.0782408,-4.62978,21,-0.00166406,10,0.000362238,-2.33444,-0.0184894,-3.19101,558.267,-0.0782408,
2,0,0,1,1,40598.9,-0.0754539,-0.0758401,-3.34669,21,-0.00168783,10,0.000253813,-2.47538,-0.0138474,-4.26072,519.942,-0.0758401,
2,0,0,1,1,40598.9,-0.0730568,-0.0734202,-2.13706,21,-0.0017041,10,0.000156904,-2.67018,-0.00815124,-7.23817,494.084,-0.0734202,
2,0,0,1,1,40599,-0.0706597,-0.0710428,-1.00104,21,-0.00171336,10,7.11167e-05,-2.99955,-0.00824433,-7.15644,461.324,-0.0710428,
2,0,0,1,1,40599,-0.0682542,-0.0686431,0.0783769,21,-0.00171596,10,-5.38003e-06,-4.10581,0.505713,0.116667,433.459,-0.0686431,
2,1,0,1,1,40599,-0.0658571,-0.0662636,1.09062,21,-0.00171232,10,-7.22685e-05,-2.96233,0.0067491,8.7419,411.981,-0.0662636,
2,1,0,1,1,40599,-0.06346,-0.063849,2.03601,21,-0.00170283,10,-0.000129997,-2.69122,0.010117,5.83176,389.823,-0.063849,
2,1,0,1,1,40599,-0.0610518,-0.0614673,2.95631,21,-0.00168774,10,-0.000181717,-2.52925,0.0172766,3.41502,364.216,-0.0614673,
2,1,0,1,1,40599,-0.0586547,-0.0590538,3.80994,21,-0.00166734,10,-0.000224992,-2.41908,0.0244007,2.41796,344.58,-0.0590538,
2,1,0,1,1,40599,-0.0562576,-0.056705,4.60721,21,-0.001642,10,-0.000261252,-2.33656,0.0313714,1.88069,330.669,-0.056705,
2,1,0,1,1,40599,-0.053855,-0.0542969,5.3915,21,-0.00161194,10,-0.000292742,-2.26829,0.0385748,1.52949,315.818,-0.0542969,
2,1,0,1,1,40599,-0.0514523,-0.0518706,6.12669,21,-0.00157727,10,-0.000317795,-2.21277,0.0466661,1.2643,297.788,-0.0518706,
2,1,0,1,1,40599,-0.0490552,-0.0494741,6.82007,21,-0.00153833,10,-0.000337417,-2.16621,0.0553969,1.06504,280.869,-0.0494741,
2,1,0,1,1,40599,-0.0466581,-0.0470575,7.48433,21,-0.00149533,10,-0.000352194,-2.12585,0.0635766,0.928014,268.983,-0.0470575,
2,1,0,1,1,40599,-0.0442527,-0.0446694,8.1157,21,-0.00144844,10,-0.000362524,-2.09067,0.0717867,0.821879,258.592,-0.04466942,
2,1,0,1,1,40599,-0.0418556,-0.0422952,8.717,21,-0.00139784,10,-0.000368687,-2.05963,0.083252,0.708692,239.559,-0.0422952,
2,1,0,1,1,40599,-0.0394585,-0.039834,9.27236,21,-0.00134378,10,-0.000369355,-2.03281,0.0921438,0.640304,231.03,-0.03983397,
2,1,0,1,1,40599,-0.0370558,-0.0374502,9.83143,21,-0.00128642,10,-0.000368189,-2.00738,0.10238,0.576282,220.012,-0.0374502,
2,1,0,1,1,40599,-0.0346532,-0.0350547,10.3462,21,-0.00122583,10,-0.000362683,-1.98522,0.114918,0.51341,206.191,-0.0350547,
2,1,0,1,1,40599,-0.032256,-0.0326465,10.8113,21,-0.0011623,10,-0.000352952,-1.96612,0.128271,0.459962,193.643,-0.0326465,
2,1,0,1,1,40599.1,-0.029859,-0.0302649,11.2765,21,-0.00109599,10,-0.000341281,-1.94783,0.138888,0.424804,186.47,-0.0302649,
2,1,0,1,1,40599.1,-0.0274535,-0.0277973,11.7196,21,-0.00102695,10,-0.000325774,-1.93109,0.152544,0.386773,176.203,-0.0277973,
2,1,0,1,1,40599.1,-0.0250564,-0.0254718,12.1173,21,-0.000955386,10,-0.00030865,-1.91659,0.168123,0.350934,165.684,-0.0254718,
2,1,0,1,1,40599.1,-0.0226593,-0.0230276,12.5005,21,-0.000881479,10,-0.000287855,-1.90307,0.181398,0.325251,158.51,-0.0230276,
2,1,0,1,1,40599.1,-0.0202511,-0.0206533,12.8866,21,-0.000805264,10,-0.000266152,-1.88986,0.198034,0.297928,149.418,-0.0206533,
2,1,0,1,1,40599.1,-0.017854,-0.0182314,13.2311,21,-0.000726869,10,-0.000241221,-1.8784,0.218489,0.270036,139.161,-0.0182314,
2,1,0,1,1,40599.1,-0.0154569,-0.0158391,13.5516,21,-0.00064649,10,-0.000214645,-1.86801,0.2327,0.253546,133.963,-0.0158391,
2,1,0,1,1,40599.1,-0.0130598,-0.0134648,13.8597,21,-0.000564199,10,-0.000186619,-1.85824,0.247338,0.23854,128.921,-0.0134648,
2,1,0,1,1,40599.1,-0.0106516,-0.0109686,14.1706,21,-0.000480058,10,-0.000155432,-1.84861,0.271264,0.217501,120.057,-0.0109686,
2,1,0,1,1,40599.1,-0.00825448,-0.00863679,14.4404,21,-0.000394203,10,-0.000124719,-1.84042,0.295168,0.199886,112.558,-0.00863679,
2,1,0,1,1,40599.1,-0.00585738,-0.00622331,14.7029,21,-0.000306762,10,-9.15007e-05,-1.8326,0.315122,0.187229,107.336,-0.006223307,
2,1,0,1,1,40599.1,-0.00345195,-0.00383209,14.9564,21,-0.000217748,10,-5.73143e-05,-1.82517,0.344218,0.171403,99.8214,-0.00383209,
2,1,0,1,1,40599.1,-0.00105485,-0.00144087,15.1788,21,-0.000127294,10,-2.18708e-05,-1.81876, , , ,-0.001440872,
2,1,0,0,1,40599.1,-7.54729e-05,-0.000554371,15.2684,21,-8.92399e-05,10,-8.46437e-06,-1.81621, , , ,-0.000554371,