File: Figure_codes/Fig_3-5/rawdata_trumpetplot_data/after 10th/20221101_1-115_003_TrumpetPlot_ParaChange_from10_every3_03_CV_C01_28.csv
mode,ox/red,error,control changes,counter inc.,time/s,control/V,Ewe/V,<I>/mA,cycle number,(Q-Qo)/C,I Range,P/W,log(|I|),Tafel slope mV/dec,alpha_eff,dI/d(E-IR),E-IR/V,
2,0,0,1,0,56103.7,2.44065e-05,-0.000325324,-0.110843,29,0.0000000E+000,10,3.60597e-08,-3.95529, , , ,-0.000325324,
2,1,0,0,0,56103.9,0.00129787,0.000867634,0.118557,29,1.77437e-05,10,1.02864e-07,-3.92607, , , ,0.000867634,
2,1,0,0,0,56104.2,0.00279606,0.00243704,0.163327,29,6.52729e-05,10,3.98033e-07,-3.78694,0.0122908,4.80033,23.7696,0.00243704,
2,1,0,1,0,56104.5,0.00429469,0.00396122,0.176154,29,0.000119831,10,6.97784e-07,-3.75411,0.0496632,1.188,8.02888,0.00396122,
2,1,0,1,0,56104.8,0.00579255,0.00541477,0.185196,29,0.000177845,10,1.00279e-06,-3.73237,0.0614624,0.959937,6.9224,0.00541477,
2,1,0,1,0,56105.1,0.00729041,0.00694554,0.196265,29,0.000238851,10,1.36316e-06,-3.70716,0.079863,0.738765,5.59963,0.00694554,
2,1,0,1,0,56105.4,0.00878882,0.00842939,0.204104,29,0.000302439,10,1.72047e-06,-3.69015,0.103163,0.571912,4.52288,0.00842939,
2,1,0,1,0,56105.7,0.010287,0.00991502,0.210545,29,0.000368243,10,2.08756e-06,-3.67666,0.112492,0.524481,4.2742,0.00991502,
2,1,0,1,0,56106,0.0117852,0.0114102,0.216195,29,0.000435855,10,2.46683e-06,-3.66515,0.128933,0.457601,3.85536,0.0114102,
2,1,0,1,0,56106.3,0.0132836,0.0129225,0.2221,29,0.000505096,10,2.8701e-06,-3.65345,0.131811,0.44761,3.90311,0.0129225,
2,1,0,1,0,56106.6,0.0147815,0.0144112,0.22706,29,0.000576124,10,3.27221e-06,-3.64386,0.146176,0.403623,3.57953,0.0144112,
2,1,0,1,0,56106.9,0.0162793,0.0159163,0.232569,29,0.000649104,10,3.70163e-06,-3.63345,0.169053,0.349004,3.1693,0.01591628,
2,1,0,0,0,56107.2,0.017778,0.0174598,0.237698,29,0.000723454,10,4.15017e-06,-3.62397,0.160923,0.366635,3.40551,0.0174598,
2,1,0,0,0,56107.5,0.0192761,0.0189126,0.2438,29,0.000799137,10,4.61088e-06,-3.61297,0.172447,0.342134,3.2449,0.0189126,
2,1,0,1,0,56107.8,0.0207747,0.0204017,0.248295,29,0.000876549,10,5.06565e-06,-3.60503,0.157161,0.375412,3.62673,0.0204017,
2,1,0,1,0,56108.1,0.0222725,0.0219187,0.253757,29,0.000955544,10,5.56204e-06,-3.59558,0.158408,0.372456,3.68762,0.0219187,
2,1,0,1,0,56108.4,0.0237704,0.023437,0.258268,29,0.00103604,10,6.05302e-06,-3.58793,0.186678,0.316052,3.19485,0.023437,
2,1,0,1,0,56108.7,0.0252689,0.024924,0.262607,29,0.00111796,10,6.54521e-06,-3.58069,0.168631,0.349877,3.60947,0.024924,
2,1,0,1,0,56109,0.0267671,0.0264468,0.268148,29,0.00120149,10,7.09166e-06,-3.57162,0.1584,0.372474,3.9022,0.0264468,
2,1,0,1,0,56109.3,0.0282657,0.027935,0.275041,29,0.0012868,10,7.68326e-06,-3.5606,0.169596,0.347886,3.7232,0.027935,
2,1,0,1,0,56109.6,0.0297635,0.0293853,0.279177,29,0.00137356,10,8.20369e-06,-3.55412,0.185689,0.317735,3.46046,0.0293853,
2,1,0,1,0,56109.9,0.0312613,0.0309118,0.282494,29,0.00146179,10,8.7324e-06,-3.54899,0.193433,0.305014,3.38046,0.0309118,
2,1,0,0,0,56110.2,0.0327599,0.0324391,0.290318,29,0.00155145,10,9.41767e-06,-3.53713,0.207882,0.283815,3.20866,0.0324391,
2,1,0,0,0,56110.5,0.034258,0.0339141,0.294636,29,0.00164283,10,9.99234e-06,-3.53071,0.187345,0.314928,3.61948,0.0339141,
2,1,0,1,0,56110.8,0.0357567,0.0353844,0.300351,29,0.00173582,10,1.06277e-05,-3.52237,0.227285,0.259586,3.02784,0.0353844,
2,1,0,1,0,56111.1,0.0372545,0.0368802,0.304926,29,0.00183027,10,1.12457e-05,-3.51581,0.213626,0.276184,3.28929,0.03688015,
2,1,0,1,0,56111.4,0.0387524,0.0383773,0.309962,29,0.001926,10,1.18955e-05,-3.50869,0.189221,0.311804,3.78315,0.0383773,
2,1,0,1,0,56111.7,0.0402508,0.0398503,0.315592,29,0.00202342,10,1.25764e-05,-3.50087,0.220334,0.267775,3.28904,0.0398503,
2,1,0,1,0,56112,0.041749,0.0413783,0.321209,29,0.00212264,10,1.32911e-05,-3.49321,0.218005,0.270636,3.37575,0.0413783,
2,1,0,1,0,56112.3,0.0432472,0.0428884,0.326062,29,0.0022231,10,1.39843e-05,-3.4867,0.231624,0.254723,3.23196,0.0428884,
2,1,0,1,0,56112.6,0.0447456,0.0443827,0.33017,29,0.00232483,10,1.46538e-05,-3.48126,0.229318,0.257285,3.31181,0.0443827,
2,1,0,1,0,56112.9,0.0462435,0.0458671,0.33573,29,0.0024282,10,1.53989e-05,-3.47401,0.223156,0.264389,3.44827,0.0458671,
2,1,0,1,0,56113.2,0.0477413,0.0473766,0.339303,29,0.00253301,10,1.6075e-05,-3.46941,0.250267,0.235749,3.12582,0.0473766,
2,1,0,0,0,56113.5,0.0492399,0.0488934,0.343715,29,0.0026391,10,1.68054e-05,-3.4638,0.290298,0.203239,2.73405,0.0488934,
2,1,0,0,0,56113.8,0.0507381,0.0503589,0.346809,29,0.0027463,10,1.74649e-05,-3.45991,0.259213,0.227612,3.09046,0.0503589,
2,1,0,1,0,56114.1,0.0522367,0.0518893,0.351963,29,0.00285501,10,1.82631e-05,-3.4535,0.232663,0.253586,3.48416,0.05188933,
2,1,0,1,0,56114.4,0.0537345,0.0534055,0.358739,29,0.00296516,10,1.91586e-05,-3.44522,0.282257,0.209029,2.91492,0.0534055,
2,1,0,1,0,56114.7,0.0552323,0.0549204,0.361661,29,0.0030766,10,1.98626e-05,-3.4417,0.337746,0.174687,2.45818,0.0549204,
2,1,0,1,0,56115,0.0567309,0.0563598,0.363151,29,0.00318913,10,2.04671e-05,-3.43991,0.306704,0.192368,2.74022,0.0563598,
2,1,0,1,0,56115.3,0.0582291,0.0578581,0.369149,29,0.0033027,10,2.13583e-05,-3.4328,0.326428,0.180744,2.60493,0.0578581,
2,1,0,1,0,56115.6,0.0597277,0.0593526,0.373678,29,0.00341777,10,2.21788e-05,-3.4275,0.321516,0.183506,2.67136,0.0593526,
2,1,0,1,0,56115.9,0.0612255,0.0608453,0.377688,29,0.00353405,10,2.29805e-05,-3.42287,0.417772,0.141225,2.0734,0.0608453,
2,1,0,1,0,56116.2,0.0627233,0.0623848,0.380707,29,0.00365145,10,2.37504e-05,-3.41941,0.384367,0.153499,2.2824,0.06238484,
2,1,0,0,0,56116.5,0.0642218,0.0638653,0.384248,29,0.00376966,10,2.45401e-05,-3.41539,0.331699,0.177872,2.67086,0.0638653,
2,1,0,0,0,56116.8,0.06572,0.0653796,0.387438,29,0.00388912,10,2.53306e-05,-3.4118,0.393181,0.150058,2.2683,0.0653796,
2,1,0,1,0,56117.1,0.0672187,0.0668371,0.392188,29,0.00400995,10,2.62127e-05,-3.40651,0.399299,0.147759,2.25201,0.0668371,
2,1,0,1,0,56117.4,0.0687165,0.0683859,0.396393,29,0.00413161,10,2.71077e-05,-3.40187,0.526111,0.112144,1.72412,0.0683859,
2,1,0,1,0,56117.7,0.0702144,0.0698448,0.396705,29,0.0042539,10,2.77078e-05,-3.40153,0.426497,0.138336,2.14657,0.0698448,
2,1,0,1,0,56118,0.0717128,0.071373,0.400063,29,0.00437727,10,2.85537e-05,-3.39787,0.334285,0.176496,2.75491,0.071373,
2,1,0,1,0,56118.3,0.073211,0.0728565,0.40381,29,0.00450164,10,2.94202e-05,-3.39382,0.398882,0.147914,2.33238,0.0728565,
2,1,0,1,0,56118.6,0.0747092,0.0743634,0.406561,29,0.00462695,10,3.02333e-05,-3.39087,0.576631,0.102318,1.62121,0.0743634,
2,1,0,1,0,56118.9,0.0762076,0.0758174,0.407861,29,0.00475297,10,3.0923e-05,-3.38949,0.537078,0.109854,1.7551,0.0758174,
2,1,0,1,0,56119.2,0.0777054,0.0773239,0.412157,29,0.00487975,10,3.18696e-05,-3.38494,0.422079,0.139784,2.24145,0.0773239,
2,1,0,1,0,56119.5,0.0792033,0.0788399,0.415407,29,0.00500746,10,3.27506e-05,-3.38153,0.502194,0.117485,1.89994,0.07883992,
2,1,0,0,0,56119.8,0.0807019,0.0803409,0.417505,29,0.00513615,10,3.35427e-05,-3.37934,0.54848,0.10757,1.74845,0.0803409,
2,1,0,0,0,56120.1,0.0822001,0.0818477,0.419655,29,0.00526558,10,3.43478e-05,-3.37711,0.478005,0.12343,2.02665,0.0818477,
2,1,0,1,0,56120.4,0.0836986,0.0833018,0.42371,29,0.00539583,10,3.52958e-05,-3.37293,0.399686,0.147616,2.44466,0.0833018,
2,1,0,1,0,56120.7,0.0851965,0.0848594,0.427774,29,0.0055273,10,3.63006e-05,-3.36879,0.376887,0.156546,2.61366,0.0848594,
2,1,0,1,0,56121,0.0866944,0.0862926,0.431033,29,0.0056599,10,3.71949e-05,-3.36549,0.499555,0.118105,1.9858,0.0862926,
2,1,0,1,0,56121.3,0.0881929,0.0878273,0.435412,29,0.00579371,10,3.8241e-05,-3.3611,0.340245,0.173404,2.95249,0.0878273,
2,1,0,1,0,56121.6,0.0896911,0.0893575,0.440048,29,0.00592845,10,3.93216e-05,-3.3565,0.325689,0.181154,3.11596,0.0893575,
2,1,0,1,0,56121.9,0.0911897,0.0908455,0.445262,29,0.00606491,10,4.045e-05,-3.35138,0.259771,0.227123,3.94017,0.0908455,
2,1,0,1,0,56122.2,0.0926875,0.0923393,0.451341,29,0.00620316,10,4.16765e-05,-3.3455,0.261678,0.225468,3.97123,0.09233927,
2,1,0,1,0,56122.5,0.0941853,0.0938331,0.456179,29,0.00634299,10,4.28047e-05,-3.34086,0.273513,0.215712,3.85503,0.0938331,
2,1,0,0,0,56122.8,0.0956838,0.0953011,0.462328,29,0.00648441,10,4.40604e-05,-3.33505,0.240511,0.245311,4.43937,0.0953011,
2,1,0,0,0,56123.1,0.097182,0.0968069,0.469885,29,0.00662795,10,4.54881e-05,-3.32801,0.19646,0.300315,5.50165,0.0968069,
2,1,0,1,0,56123.4,0.0986807,0.0983514,0.477556,29,0.00677383,10,4.69683e-05,-3.32098,0.210468,0.280328,5.21941,0.0983514,
2,1,0,1,0,56123.7,0.100179,0.0997888,0.48398,29,0.00692192,10,4.82957e-05,-3.31517,0.238529,0.247349,4.67368,0.0997888,
2,1,0,1,0,56124,0.101676,0.101341,0.490037,29,0.00707198,10,4.96607e-05,-3.30977,0.214264,0.275362,5.30202,0.101341,
2,1,0,1,0,56124.3,0.103175,0.10279,0.499926,29,0.00722449,10,5.13872e-05,-3.30109,0.208697,0.282707,5.52049,0.10279,
2,1,0,1,0,56124.6,0.104673,0.104308,0.510128,29,0.00737973,10,5.32105e-05,-3.29232,0.224368,0.262961,5.21522,0.104308,
2,1,0,1,0,56124.9,0.106171,0.105836,0.516355,29,0.00753742,10,5.4649e-05,-3.28705,0.265687,0.222066,4.46307,0.105836,
2,1,0,1,0,56125.2,0.10767,0.107337,0.523977,29,0.00769721,10,5.6242e-05,-3.28069,0.271962,0.216942,4.43965,0.107337,
2,1,0,1,0,56125.5,0.109167,0.108786,0.529785,29,0.00785878,10,5.76333e-05,-3.2759,0.270111,0.218429,4.53132,0.1087861,
2,1,0,1,0,56125.8,0.110665,0.110259,0.537743,29,0.00802275,10,5.92909e-05,-3.26943,0.290472,0.203118,4.2574,0.110259,
2,1,0,0,0,56126.1,0.112164,0.111811,0.543516,29,0.00818883,10,6.07709e-05,-3.26479,0.39058,0.151057,3.2025,0.111811,
2,1,0,0,0,56126.4,0.113662,0.113339,0.55038,29,0.00835653,10,6.23793e-05,-3.25934,0.377718,0.156201,3.34494,0.113339,
2,1,0,1,0,56126.7,0.115161,0.11474,0.554475,29,0.00852546,10,6.36205e-05,-3.25612,0.381701,0.154571,3.34687,0.11474,
2,1,0,1,0,56127,0.116658,0.116293,0.560151,29,0.00869611,10,6.51416e-05,-3.25169,0.386918,0.152487,3.32282,0.116293,
2,1,0,1,0,56127.3,0.118156,0.117766,0.564427,29,0.00886853,10,6.64705e-05,-3.24839,0.487323,0.12107,2.6605,0.117766,
2,1,0,1,0,56127.6,0.119655,0.119308,0.567936,29,0.00904205,10,6.77591e-05,-3.2457,0.720229,0.0819183,1.81593,0.119308,
2,1,0,1,0,56127.9,0.121153,0.120805,0.569669,29,0.00921618,10,6.88188e-05,-3.24438,0.622837,0.0947278,2.11286,0.120805,
2,1,0,1,0,56128.2,0.122652,0.122321,0.574276,29,0.00939148,10,7.02458e-05,-3.24088,0.601638,0.0980656,2.19336,0.122321,
2,1,0,1,0,56128.5,0.124149,0.123793,0.577837,29,0.00956781,10,7.15323e-05,-3.23819,0.760095,0.0776219,1.74559,0.123793,
2,1,0,1,0,56128.8,0.125647,0.125274,0.579203,29,0.00974492,10,7.25592e-05,-3.23717,1.03339,0.0570936,1.28933,0.125274,
2,1,0,0,0,56129.1,0.127146,0.126801,0.579674,29,0.00992269,10,7.35036e-05,-3.23682,1.67877,0.0351449,0.796719,0.126801,
2,1,0,0,0,56129.4,0.128644,0.128295,0.582155,29,0.0101006,10,7.46873e-05,-3.23496,2.40853,0.0244963,0.557137,0.128295,
2,1,0,1,0,56129.7,0.130143,0.129772,0.583201,29,0.0102792,10,7.56834e-05,-3.23418,-5.56696,-0.0105982,-0.240567,0.129772,
2,1,0,1,0,56130,0.131641,0.131283,0.582757,29,0.0104578,10,7.65059e-05,-3.23451,-0.717792,-0.0821965,-1.85922,0.1312827,
2,1,0,1,0,56130.3,0.133138,0.132775,0.577838,29,0.0106357,10,7.67227e-05,-3.23819,-0.475062,-0.124194,-2.79803,0.132775,
2,1,0,1,0,56130.6,0.134637,0.134268,0.573769,29,0.0108119,10,7.70387e-05,-3.24126,-0.286861,-0.205675,-4.59503,0.134268,
2,1,0,1,0,56130.9,0.136135,0.135765,0.565505,29,0.0109865,10,7.67759e-05,-3.24756,-0.226638,-0.260327,-5.72862,0.135765,
2,1,0,1,0,56131.2,0.137633,0.137314,0.557417,29,0.0111586,10,7.65414e-05,-3.25382,-0.165391,-0.356731,-7.70231,0.137314,
2,1,0,1,0,56131.5,0.139132,0.138781,0.545078,29,0.0113272,10,7.56465e-05,-3.26354,-0.132109,-0.446601,-9.43858,0.138781,
2,1,0,1,0,56131.8,0.140629,0.140223,0.529496,29,0.0114914,10,7.42474e-05,-3.27614,-0.1124,-0.524911,-10.7753,0.140223,
2,1,0,1,0,56132.1,0.142127,0.141758,0.511682,29,0.0116511,10,7.25351e-05,-3.291,-0.102918,-0.573271,-11.3829,0.1417582,
2,1,0,0,0,56132.4,0.143626,0.143292,0.493245,29,0.0118056,10,7.0678e-05,-3.30694,-0.0866869,-0.680611,-13.0528,0.143292,
2,1,0,0,0,56132.7,0.145124,0.14482,0.472942,29,0.011954,10,6.84914e-05,-3.32519,-0.0797261,-0.740034,-13.6735,0.14482,
2,1,0,1,0,56133,0.146623,0.146256,0.451794,29,0.0120962,10,6.60776e-05,-3.34506,-0.0817332,-0.721861,-12.7466,0.146256,
2,1,0,1,0,56133.3,0.14812,0.147784,0.432964,29,0.0122326,10,6.3985e-05,-3.36355,-0.0834118,-0.707334,-11.9535,0.147784,
2,1,0,1,0,56133.6,0.149618,0.149237,0.414848,29,0.0123634,10,6.19109e-05,-3.38211,-0.082922,-0.711512,-11.5557,0.149237,
2,1,0,1,0,56133.9,0.151117,0.150751,0.398913,29,0.012489,10,6.01365e-05,-3.39912,-0.0872343,-0.676339,-10.5391,0.150751,
2,1,0,1,0,56134.2,0.152615,0.15231,0.382178,29,0.0126099,10,5.82093e-05,-3.41773,-0.0929553,-0.634714,-9.54015,0.15231,
2,1,0,1,0,56134.5,0.154114,0.153766,0.37107,29,0.0127265,10,5.7058e-05,-3.43054,-0.107883,-0.546888,-7.96776,0.153766,
2,1,0,1,0,56134.8,0.155612,0.155226,0.360411,29,0.0128398,10,5.59451e-05,-3.4432,-0.127262,-0.463609,-6.5461,0.155226,
2,1,0,1,0,56135.1,0.157109,0.156746,0.351735,29,0.0129503,10,5.5133e-05,-3.45378,-0.131652,-0.448151,-6.16466,0.156746,
2,1,0,0,0,56135.4,0.158608,0.158215,0.344456,29,0.0130581,10,5.44981e-05,-3.46287,-0.155772,-0.378758,-5.1099,0.158215,
2,1,0,0,0,56135.7,0.160106,0.159772,0.33752,29,0.0131636,10,5.39261e-05,-3.4717,-0.195492,-0.301803,-3.98686,0.159772,
2,1,0,1,0,56136,0.161605,0.161254,0.331919,29,0.0132676,10,5.35232e-05,-3.47897,-0.2272,-0.259683,-3.36679,0.161254,
2,1,0,1,0,56136.3,0.163102,0.162772,0.328229,29,0.01337,10,5.34264e-05,-3.48382,-0.259376,-0.227469,-2.90989,0.162772,
2,1,0,1,0,56136.6,0.1646,0.16423,0.324311,29,0.013471,10,5.32617e-05,-3.48904,-0.306651,-0.192401,-2.43,0.16423,
2,1,0,1,0,56136.9,0.166099,0.165732,0.3198,29,0.0135708,10,5.30011e-05,-3.49512,-0.296476,-0.199004,-2.48352,0.1657322,
2,1,0,1,0,56137.2,0.167597,0.167236,0.316984,29,0.0136697,10,5.30112e-05,-3.49896,-0.446066,-0.132267,-1.63636,0.167236,
2,1,0,1,0,56137.5,0.169095,0.168719,0.314566,29,0.0137678,10,5.30734e-05,-3.50229,-0.426107,-0.138463,-1.69823,0.168719,
2,1,0,1,0,56137.8,0.170594,0.170196,0.310089,29,0.0138651,10,5.27757e-05,-3.50851,-0.40012,-0.147456,-1.79919,0.170196,
2,1,0,1,0,56138.1,0.172091,0.171766,0.308138,29,0.0139615,10,5.29276e-05,-3.51125,-0.467967,-0.126077,-1.52601,0.1717657,
2,1,0,1,0,56138.4,0.173589,0.173225,0.307357,29,0.0140573,10,5.32418e-05,-3.51236,-0.855783,-0.0689427,-0.829256,0.173225,
2,1,0,0,0,56138.7,0.175088,0.174716,0.305462,29,0.0141527,10,5.33691e-05,-3.51504,-0.539861,-0.109287,-1.3042,0.174716,
2,1,0,0,0,56139,0.176586,0.17621,0.303645,29,0.0142476,10,5.35054e-05,-3.51763,-0.463216,-0.12737,-1.50923,0.17621,
2,1,0,1,0,56139.3,0.178085,0.177745,0.301286,29,0.0143419,10,5.3552e-05,-3.52102,-0.73075,-0.0807389,-0.952114,0.1777449,
2,1,0,1,0,56139.6,0.179582,0.179223,0.301086,29,0.0144357,10,5.39615e-05,-3.52131,-1.04265,-0.0565864,-0.666204,0.179223,
2,1,0,1,0,56139.9,0.18108,0.180733,0.299548,29,0.0145294,10,5.41384e-05,-3.52353,-1.03475,-0.0570186,-0.668999,0.180733,
2,1,0,1,0,56140.2,0.182579,0.182259,0.298868,29,0.0146228,10,5.44712e-05,-3.52452,-0.444759,-0.132656,-1.5477,0.182259,
2,1,0,1,0,56140.5,0.184077,0.183728,0.299332,29,0.0147158,10,5.49957e-05,-3.52385,-1.28115,-0.0460524,-0.536214,0.183728,
2,1,0,1,0,56140.8,0.185576,0.185256,0.297555,29,0.0148083,10,5.51237e-05,-3.52643,-1.40961,-0.0418555,-0.485332,0.185256,
2,1,0,1,0,56141.1,0.187074,0.186718,0.29672,29,0.0149009,10,5.54028e-05,-3.52765,-3.09201,-0.0190815,-0.220474,0.186718,
2,1,0,1,0,56141.4,0.188571,0.188199,0.296157,29,0.0149931,10,5.57363e-05,-3.52848,-1.13728,-0.051878,-0.59859,0.1881986,
2,1,0,0,0,56141.7,0.19007,0.189724,0.294656,29,0.0150853,10,5.59032e-05,-3.53069,-1.29495,-0.0455616,-0.523868,0.189724,
2,1,0,0,0,56142,0.191568,0.191219,0.294224,29,0.0151769,10,5.62613e-05,-3.53132,-1.01505,-0.0581251,-0.668011,0.191219,
2,1,0,1,0,56142.3,0.193067,0.192728,0.292697,29,0.0152684,10,5.6411e-05,-3.53358,-18.8975,-0.00312211,-0.0357988,0.192728,
2,1,0,1,0,56142.6,0.194564,0.194255,0.292891,29,0.0153598,10,5.68955e-05,-3.53329,-5.40623,-0.0109133,-0.125052,0.194255,
2,1,0,1,0,56142.9,0.196062,0.195693,0.29194,29,0.015451,10,5.71306e-05,-3.53471,-1.1285,-0.0522817,-0.596552,0.195693,
2,1,0,1,0,56143.2,0.197561,0.197165,0.290704,29,0.015542,10,5.73166e-05,-3.53655,-1.3984,-0.042191,-0.48031,0.197165,
2,1,0,1,0,56143.5,0.199059,0.198664,0.290926,29,0.0156326,10,5.77966e-05,-3.53622,-2.45478,-0.0240348,-0.272754,0.198664,
2,1,0,1,0,56143.8,0.200557,0.200212,0.291418,29,0.0157233,10,5.83455e-05,-3.53548,-1.72874,-0.034129,-0.386853,0.200212,
2,1,0,1,0,56144.1,0.202056,0.201702,0.290248,29,0.0158137,10,5.85438e-05,-3.53723,-1.24916,-0.0472319,-0.533723,0.201702,
2,1,0,1,0,56144.4,0.203553,0.203177,0.28889,29,0.0159041,10,5.86957e-05,-3.53927,-4.03061,-0.014638,-0.165155,0.203177,
2,1,0,1,0,56144.7,0.205051,0.204692,0.288783,29,0.0159942,10,5.91117e-05,-3.53943,5.73429,0.010289,0.116648,0.204692,
2,1,0,0,0,56145,0.20655,0.206203,0.288119,29,0.0160842,10,5.94108e-05,-3.54043,-1.59525,-0.0369849,-0.416553,0.206203,
2,1,0,0,0,56145.3,0.208048,0.207703,0.28923,29,0.0161745,10,6.0074e-05,-3.53876,-1.00138,-0.0589189,-0.661907,0.207703,
2,1,0,1,0,56145.6,0.209547,0.209214,0.287845,29,0.0162642,10,6.02213e-05,-3.54084,-0.820213,-0.0719325,-0.809599,0.209214,
2,1,0,1,0,56145.9,0.211044,0.210713,0.28729,29,0.0163536,10,6.05355e-05,-3.54168,-3.81388,-0.0154698,-0.173647,0.210713,
2,1,0,1,0,56146.2,0.212542,0.212191,0.286977,29,0.016443,10,6.08939e-05,-3.54215,-1.82989,-0.0322424,-0.360411,0.212191,
2,1,0,1,0,56146.5,0.214041,0.213652,0.286819,29,0.0165325,10,6.12794e-05,-3.54239,-2.13886,-0.0275849,-0.307946,0.213652,
2,1,0,1,0,56146.8,0.215539,0.215181,0.285358,29,0.0166217,10,6.14037e-05,-3.54461,-1.40471,-0.0420015,-0.468975,0.215181,
2,1,0,1,0,56147.1,0.217038,0.216718,0.285299,29,0.0167105,10,6.18293e-05,-3.5447,-1.3317,-0.0443043,-0.494181,0.216718,
2,1,0,1,0,56147.4,0.218535,0.218184,0.28506,29,0.0167994,10,6.21954e-05,-3.54506,7.22723,0.00816357,0.0906384,0.218184,
2,1,0,1,0,56147.7,0.220033,0.219711,0.284815,29,0.0168884,10,6.25769e-05,-3.54544,-4.52219,-0.0130468,-0.144985,0.219711,
2,1,0,0,0,56148,0.221532,0.221211,0.284207,29,0.0169772,10,6.28695e-05,-3.54637,-1.00261,-0.0588467,-0.653889,0.221211,
2,1,0,0,0,56148.3,0.22303,0.22274,0.282783,29,0.0170657,10,6.2987e-05,-3.54855,-1.37461,-0.0429214,-0.476013,0.22274,
2,1,0,1,0,56148.6,0.224529,0.224169,0.283609,29,0.017154,10,6.35764e-05,-3.54728,-12.1744,-0.00484623,-0.0535743,0.224169,
2,1,0,1,0,56148.9,0.226026,0.225672,0.282829,29,0.0172424,10,6.38265e-05,-3.54848,-2.82227,-0.0209051,-0.230984,0.225672,
2,1,0,1,0,56149.2,0.227524,0.227163,0.282606,29,0.0173307,10,6.41976e-05,-3.54882,-0.74178,-0.0795384,-0.878318,0.227163,
2,1,0,1,0,56149.5,0.229023,0.228661,0.282499,29,0.0174189,10,6.45965e-05,-3.54898,-1.86296,-0.03167,-0.349937,0.228661,
2,1,0,1,0,56149.8,0.230521,0.230168,0.282394,29,0.0175068,10,6.49981e-05,-3.54914,-1.83007,-0.0322393,-0.355573,0.230168,
2,1,0,1,0,56150.1,0.232019,0.231637,0.282322,29,0.0175947,10,6.53965e-05,-3.54925,-2.64425,-0.0223126,-0.245657,0.231637,
2,1,0,1,0,56150.4,0.233518,0.233162,0.282022,29,0.0176827,10,6.57567e-05,-3.54972,-1.36289,-0.0432905,-0.474367,0.233162,
2,1,0,1,0,56150.7,0.235015,0.234637,0.281534,29,0.0177704,10,6.60584e-05,-3.55047,-1.31032,-0.0450273,-0.492905,0.234637,
2,1,0,1,0,56151,0.236513,0.236163,0.281287,29,0.0178579,10,6.64295e-05,-3.55085,-19.3641,-0.00304687,-0.0333749,0.236163,
2,1,0,0,0,56151.3,0.238012,0.237645,0.281172,29,0.0179455,10,6.68191e-05,-3.55103,7.32618,0.00805331,0.0881494,0.237645,
2,1,0,0,0,56151.6,0.23951,0.239178,0.281058,29,0.0180329,10,6.72228e-05,-3.5512,-3.85487,-0.0153053,-0.167755,0.239178,
2,1,0,1,0,56151.9,0.241009,0.240661,0.279606,29,0.0181203,10,6.72903e-05,-3.55345,35.8113,0.00164753,0.0180385,0.240661,
2,1,0,1,0,56152.2,0.242506,0.242165,0.279392,29,0.0182075,10,6.76591e-05,-3.55379,5.36694,0.0109932,0.120217,0.242165,
2,1,0,1,0,56152.5,0.244004,0.243657,0.279174,29,0.0182946,10,6.80226e-05,-3.55413,6.74764,0.0087438,0.0954157,0.243657,
2,1,0,1,0,56152.8,0.245503,0.245122,0.280217,29,0.0183819,10,6.86872e-05,-3.55251,-2.99981,-0.0196679,-0.214531,0.245122,
2,1,0,1,0,56153.1,0.247001,0.246636,0.279235,29,0.018469,10,6.88693e-05,-3.55403,-2.00741,-0.0293912,-0.320385,0.246636,
2,1,0,1,0,56153.4,0.2485,0.248155,0.277478,29,0.018556,10,6.88576e-05,-3.55677,-2.35575,-0.0250451,-0.272079,0.248155,
2,1,0,1,0,56153.7,0.249997,0.249658,0.27897,29,0.0186428,10,6.96472e-05,-3.55444,-2.99132,-0.0197237,-0.214913,0.249658,
2,1,0,1,0,56154,0.251495,0.251147,0.277633,29,0.0187294,10,6.97269e-05,-3.55653,-1.32389,-0.0445656,-0.48345,0.251147,
2,1,0,0,0,56154.3,0.252994,0.25263,0.277534,29,0.0188162,10,7.01136e-05,-3.55668,-0.92919,-0.0634962,-0.687256,0.25263,
2,1,0,0,0,56154.6,0.254492,0.254174,0.277571,29,0.0189027,10,7.05515e-05,-3.55663,-1.5666,-0.0376611,-0.408434,0.254174,
2,1,0,1,0,56154.9,0.255991,0.255637,0.277228,29,0.0189889,10,7.08698e-05,-3.55716,-4.53365,-0.0130138,-0.141103,0.255637,
2,1,0,1,0,56155.2,0.257488,0.257156,0.276422,29,0.0190752,10,7.10836e-05,-3.55843,16.3467,0.00360929,0.0389221,0.257156,
2,1,0,1,0,56155.5,0.258986,0.258668,0.277574,29,0.0191616,10,7.17996e-05,-3.55662,-10.967,-0.00537977,-0.0580063,0.258668,
2,1,0,1,0,56155.8,0.260485,0.260098,0.276465,29,0.0192479,10,7.1908e-05,-3.55836,-1.74206,-0.0338679,-0.365384,0.260098,
2,1,0,1,0,56156.1,0.261983,0.261616,0.276178,29,0.0193338,10,7.22527e-05,-3.55881,-1.63253,-0.0361401,-0.389493,0.261616,
2,1,0,1,0,56156.4,0.263481,0.263138,0.275827,29,0.0194197,10,7.25805e-05,-3.55936,7.71533,0.00764712,0.0820455,0.263138,
2,1,0,1,0,56156.7,0.26498,0.26461,0.274985,29,0.0195056,10,7.27637e-05,-3.56069,-4.92321,-0.0119841,-0.128982,0.26461,
2,1,0,1,0,56157,0.266477,0.266112,0.27528,29,0.0195913,10,7.32555e-05,-3.56022,-1.92602,-0.0306331,-0.328856,0.2661123,
2,1,0,0,0,56157.3,0.267976,0.267668,0.274198,29,0.0196768,10,7.33941e-05,-3.56194,-4.14581,-0.0142312,-0.152531,0.267668,
2,1,0,0,0,56157.6,0.269474,0.269141,0.274055,29,0.0197623,10,7.37595e-05,-3.56216,10.1716,0.00580046,0.062097,0.269141,
2,1,0,0,0,56157.9,0.270972,0.270647,0.275433,29,0.0198477,10,7.45451e-05,-3.55998,13.275,0.00444446,0.0475209,0.270647,
2,1,0,1,0,56158.2,0.27247,0.272171,0.273901,29,0.0199332,10,7.45478e-05,-3.56241,-2.06162,-0.0286183,-0.305001,0.272171,
2,1,0,1,0,56158.5,0.273968,0.273609,0.273206,29,0.0200183,10,7.47517e-05,-3.56351,-1.81523,-0.0325028,-0.346189,0.273609,
2,1,0,1,0,56158.8,0.275466,0.275103,0.273026,29,0.0201033,10,7.51103e-05,-3.5638,-1.78977,-0.0329651,-0.35085,0.275103,
2,1,0,1,0,56159.1,0.276965,0.27666,0.272191,29,0.0201883,10,7.53045e-05,-3.56513,22.8384,0.00258337,0.027489,0.27666,
2,1,0,1,0,56159.4,0.278463,0.278102,0.272574,29,0.0202732,10,7.58035e-05,-3.56452,-0.777645,-0.0758701,-0.805287,0.278102,
2,1,0,1,0,56159.7,0.279962,0.279651,0.271702,29,0.0203581,10,7.59816e-05,-3.56591,-1.60792,-0.0366935,-0.389106,0.279651,
2,1,0,1,0,56160,0.281459,0.281121,0.271067,29,0.0204425,10,7.62024e-05,-3.56692,-2.35456,-0.0250578,-0.265562,0.281121,
2,1,0,1,0,56160.3,0.282957,0.282614,0.27149,29,0.0205269,10,7.67268e-05,-3.56625,-14.8342,-0.0039773,-0.0418973,0.282614,
2,1,0,0,0,56160.6,0.284456,0.284102,0.26993,29,0.0206115,10,7.66877e-05,-3.56875,-1.85938,-0.031731,-0.334666,0.284102,
2,1,0,0,0,56160.9,0.285954,0.285624,0.270157,29,0.0206958,10,7.71632e-05,-3.56838,-1.41427,-0.0417176,-0.44046,0.285624,
2,1,0,0,0,56161.2,0.287452,0.287097,0.270016,29,0.0207798,10,7.75208e-05,-3.56861,-1.18612,-0.0497419,-0.523622,0.287097,
2,1,0,1,0,56161.5,0.28895,0.288591,0.269405,29,0.0208638,10,7.77478e-05,-3.56959,20.3017,0.00290616,0.0304598,0.288591,
2,1,0,1,0,56161.8,0.290448,0.290063,0.269193,29,0.0209477,10,7.80829e-05,-3.56994,9.21111,0.00640531,0.067265,0.290063,
2,1,0,1,0,56162.1,0.291947,0.291558,0.267978,29,0.0210316,10,7.8131e-05,-3.5719,-1.58417,-0.0372435,-0.391191,0.291558,
2,1,0,1,0,56162.4,0.293445,0.293067,0.267443,29,0.0211152,10,7.83787e-05,-3.57277,-1.17348,-0.0502777,-0.526126,0.293067,
2,1,0,1,0,56162.6,0.294943,0.294622,0.267785,29,0.0211987,10,7.88954e-05,-3.57221,-3.8612,-0.0152802,-0.15976,0.294622,
2,1,0,1,0,56162.9,0.296442,0.296103,0.268222,29,0.0212822,10,7.94213e-05,-3.57151,-2.26846,-0.0260088,-0.271004,0.296103,
2,1,0,1,0,56163.2,0.297939,0.297641,0.267307,29,0.0213656,10,7.95617e-05,-3.57299,-1.57262,-0.037517,-0.390537,0.297641,
2,1,0,1,0,56163.5,0.299437,0.299094,0.266137,29,0.0214488,10,7.95999e-05,-3.57489,-0.00304434,-19.3802,-108.699,0.299094,
2,1,0,1,0,56163.7,0.299737,0.29944,0.13713,29,0.0214885,10,4.10622e-05,-3.86287,0.00106415,55.4431,206.327,0.29944,
2,1,0,1,0,56164,0.29824,0.29792,0.0294872,29,0.0215039,10,8.78481e-06,-4.53037,0.00178997,32.9615,69.4273,0.29792,
2,1,0,0,0,56164.3,0.296741,0.296397,0.00845901,29,0.021506,10,2.50722e-06,-5.07268,0.00544733,10.831,12.6539,0.296397,
2,1,0,0,0,56164.6,0.295243,0.294865,-0.00427635,29,0.0215032,10,-1.26095e-06,-5.36893,-0.074406,-0.792947,7.40642,0.294865,
2,1,0,1,0,56164.9,0.293744,0.293329,-0.0146285,29,0.0214973,10,-4.29096e-06,-4.8348,-0.00286799,-20.5719,5.56343,0.293329,
2,0,0,1,0,56165.2,0.292246,0.291904,-0.0224449,29,0.0214889,10,-6.55174e-06,-4.64888,-0.00895035,-6.59192,4.963,0.291904,
2,0,0,1,0,56165.5,0.290749,0.290345,-0.0291693,29,0.0214782,10,-8.46917e-06,-4.53507,-0.0136512,-4.32195,4.55104,0.290345,
2,0,0,1,0,56165.8,0.28925,0.28889,-0.035355,29,0.0214655,10,-1.02137e-05,-4.45155,-0.0209031,-2.82255,3.77203,0.28889,
2,0,0,1,0,56166.1,0.287752,0.287397,-0.0402298,29,0.021451,10,-1.15619e-05,-4.39545,-0.0270387,-2.18206,3.40208,0.287397,
2,0,0,1,0,56166.4,0.286253,0.285881,-0.0449088,29,0.021435,10,-1.28386e-05,-4.34767,-0.0330436,-1.78552,3.11699,0.285881,
2,0,0,1,0,56166.7,0.284755,0.284385,-0.0499304,29,0.0214175,10,-1.41995e-05,-4.30163,-0.0350225,-1.68463,3.26366,0.284385,
2,0,0,1,0,56167,0.283257,0.282864,-0.0547679,29,0.0213985,10,-1.54919e-05,-4.26147,-0.0406175,-1.45257,3.04237,0.282864,
2,0,0,0,0,56167.3,0.281759,0.28141,-0.0584554,29,0.0213783,10,-1.64499e-05,-4.23318,-0.0485221,-1.21594,2.7514,0.28141,
2,0,0,0,0,56167.6,0.280261,0.279933,-0.0619359,29,0.0213567,10,-1.73379e-05,-4.20806,-0.0526662,-1.12026,2.69747,0.279933,
2,0,0,0,0,56167.9,0.278763,0.278425,-0.0664683,29,0.0213342,10,-1.85064e-05,-4.17739,-0.0652611,-0.90406,2.33856,0.278425,
2,0,0,1,0,56168.2,0.277264,0.276894,-0.0704625,29,0.0213104,10,-1.95107e-05,-4.15204,-0.0671895,-0.878114,2.3828,0.276894,
2,0,0,1,0,56168.5,0.275766,0.275407,-0.0734702,29,0.0212855,10,-2.02342e-05,-4.13389,-0.0976953,-0.603918,1.71675,0.275407,
2,0,0,1,0,56168.8,0.274269,0.273903,-0.076544,29,0.0212596,10,-2.09657e-05,-4.11609,-0.0823035,-0.716859,2.15628,0.273903,
2,0,0,1,0,56169.1,0.27277,0.272418,-0.0794223,29,0.021233,10,-2.1636e-05,-4.10006,-0.0830512,-0.710405,2.21948,0.272418,
2,0,0,1,0,56169.4,0.271272,0.270916,-0.0833033,29,0.0212052,10,-2.25682e-05,-4.07934,-0.0750607,-0.786031,2.53523,0.270916,
2,0,0,1,0,56169.7,0.269773,0.269404,-0.0866402,29,0.0211763,10,-2.33412e-05,-4.06228,-0.102847,-0.573667,1.91897,0.269404,
2,0,0,1,0,56170,0.268275,0.267912,-0.0891432,29,0.0211466,10,-2.38825e-05,-4.04991,-0.121064,-0.487345,1.6871,0.267912,
2,0,0,1,0,56170.3,0.266778,0.266391,-0.0911147,29,0.0211163,10,-2.42721e-05,-4.04041,-0.136064,-0.43362,1.54852,0.266391,
2,0,0,0,0,56170.6,0.265279,0.26492,-0.0943073,29,0.021085,10,-2.49839e-05,-4.02545,-0.107107,-0.550853,2.00837,0.26492,
2,0,0,0,0,56170.9,0.263781,0.263435,-0.0971297,29,0.0210528,10,-2.55873e-05,-4.01265,-0.140068,-0.421224,1.60144,0.263435,
2,0,0,1,0,56171.2,0.262282,0.261923,-0.0994538,29,0.0210198,10,-2.60492e-05,-4.00238,-0.134872,-0.437451,1.70741,0.261923,
2,0,0,1,0,56171.5,0.260784,0.260428,-0.101763,29,0.0209862,10,-2.65018e-05,-3.99241,-0.138395,-0.426317,1.69741,0.260428,
2,0,0,1,0,56171.8,0.259286,0.258942,-0.104207,29,0.0209517,10,-2.69836e-05,-3.9821,-0.14766,-0.399565,1.63766,0.258942,
2,0,0,1,0,56172.1,0.257788,0.257451,-0.108546,29,0.0209165,10,-2.79452e-05,-3.96439,-0.162395,-0.363312,1.5164,0.257451,
2,0,0,1,0,56172.4,0.25629,0.255885,-0.109222,29,0.0208806,10,-2.79481e-05,-3.96169,-0.166317,-0.354744,1.50878,0.255885,
2,0,0,1,0,56172.7,0.254791,0.254415,-0.111259,29,0.0208441,10,-2.83059e-05,-3.95367,-0.170111,-0.346832,1.50327,0.254415,
2,0,0,1,0,56173,0.253293,0.252954,-0.113276,29,0.020807,10,-2.86535e-05,-3.94586,-0.157476,-0.374661,1.6685,0.252954,
2,0,0,1,0,56173.3,0.251795,0.25141,-0.115824,29,0.0207692,10,-2.91192e-05,-3.9362,-0.159282,-0.370411,1.67838,0.25141,
2,0,0,0,0,56173.6,0.250297,0.249923,-0.117085,29,0.0207307,10,-2.92623e-05,-3.9315,-0.28275,-0.208665,0.960246,0.249923,
2,0,0,0,0,56173.9,0.248799,0.248411,-0.119553,29,0.0206916,10,-2.96982e-05,-3.92244,-0.195189,-0.302271,1.4159,0.248411,
2,0,0,0,0,56174.2,0.247301,0.24696,-0.12253,29,0.0206521,10,-3.02601e-05,-3.91176,-0.195436,-0.301889,1.43461,0.2469604,
2,0,0,1,0,56174.5,0.245802,0.245445,-0.124787,29,0.0206119,10,-3.06283e-05,-3.90383,-0.202986,-0.29066,1.40909,0.245445,
2,0,0,1,0,56174.8,0.244304,0.243952,-0.127037,29,0.0205709,10,-3.09908e-05,-3.89607,-0.237975,-0.247926,1.21775,0.243952,
2,0,0,1,0,56175.1,0.242806,0.242473,-0.128108,29,0.0205294,10,-3.10628e-05,-3.89242,-0.25473,-0.231618,1.15598,0.242473,
2,0,0,1,0,56175.4,0.241308,0.240907,-0.129747,29,0.0204876,10,-3.12569e-05,-3.8869,-0.233253,-0.252945,1.28326,0.240907,
2,0,0,1,0,56175.7,0.23981,0.239462,-0.131817,29,0.020445,10,-3.15652e-05,-3.88003,-0.173807,-0.339458,1.73687,0.239462,
2,0,0,1,0,56176,0.238311,0.237946,-0.133531,29,0.0204017,10,-3.17732e-05,-3.87442,-0.32785,-0.17996,0.941179,0.237946,
2,0,0,1,0,56176.3,0.236813,0.236414,-0.134428,29,0.0203581,10,-3.17807e-05,-3.87151,-0.29391,-0.200742,1.06137,0.236414,
2,0,0,1,0,56176.6,0.235316,0.234936,-0.135715,29,0.0203141,10,-3.18842e-05,-3.86737,-0.231901,-0.254419,1.36216,0.234936,
2,0,0,0,0,56176.9,0.233817,0.233419,-0.13933,29,0.0202695,10,-3.25223e-05,-3.85596,-0.250149,-0.235859,1.2737,0.233419,
2,0,0,0,0,56177.2,0.232319,0.231939,-0.14203,29,0.0202242,10,-3.29423e-05,-3.84762,-0.25398,-0.232301,1.27188,0.231939,
2,0,0,1,0,56177.5,0.23082,0.230478,-0.142124,29,0.0201784,10,-3.27566e-05,-3.84733,-0.326342,-0.180792,1.00014,0.230478,
2,0,0,1,0,56177.8,0.229322,0.22895,-0.143639,29,0.020132,10,-3.28862e-05,-3.84273,-0.334785,-0.176233,0.991355,0.22895,
2,0,0,1,0,56178.1,0.227825,0.227463,-0.145748,29,0.0200854,10,-3.31523e-05,-3.8364,-0.264138,-0.223368,1.2738,0.227463,
2,0,0,1,0,56178.4,0.226326,0.225986,-0.146725,29,0.0200381,10,-3.31578e-05,-3.83349,-0.263586,-0.223836,1.29049,0.225986,
2,0,0,1,0,56178.7,0.224828,0.224485,-0.148205,29,0.0199902,10,-3.32698e-05,-3.82914,-0.395668,-0.149115,0.866,0.224485,
2,0,0,1,0,56179,0.223329,0.222995,-0.150576,29,0.0199418,10,-3.35777e-05,-3.82224,-0.478682,-0.123255,0.723902,0.222995,
2,0,0,1,0,56179.3,0.221831,0.221478,-0.152631,29,0.0198931,10,-3.38044e-05,-3.81636,-0.371112,-0.158982,0.943517,0.221478,
2,0,0,1,0,56179.6,0.220333,0.220008,-0.154032,29,0.0198438,10,-3.38883e-05,-3.81239,-0.283855,-0.207852,1.24707,0.220008,
2,0,0,0,0,56179.9,0.218835,0.218483,-0.156385,29,0.0197938,10,-3.41675e-05,-3.8058,-0.306511,-0.192489,1.16678,0.218483,
2,0,0,0,0,56180.2,0.217337,0.217001,-0.157101,29,0.0197434,10,-3.4091e-05,-3.80382,-0.4787,-0.123251,0.757146,0.217001,
2,0,0,0,0,56180.5,0.215839,0.215492,-0.158995,29,0.0196926,10,-3.42621e-05,-3.79862,-0.284344,-0.207495,1.2866,0.215492,
2,0,0,1,0,56180.8,0.21434,0.213982,-0.160641,29,0.0196412,10,-3.43742e-05,-3.79414,-0.249934,-0.236062,1.47325,0.213982,
2,0,0,1,0,56181.1,0.212842,0.212481,-0.162353,29,0.0195893,10,-3.4497e-05,-3.78954,-0.262983,-0.224349,1.42264,0.212481,
2,0,0,1,0,56181.4,0.211344,0.210984,-0.164062,29,0.0195368,10,-3.46144e-05,-3.78499,-0.413979,-0.142519,0.912364,0.210984,
2,0,0,1,0,56181.7,0.209846,0.209524,-0.164465,29,0.0194839,10,-3.44594e-05,-3.78393,-0.418674,-0.140921,0.910271,0.209524,
2,0,0,1,0,56182,0.208348,0.208025,-0.167689,29,0.0194305,10,-3.48837e-05,-3.77549,-0.289866,-0.203543,1.33269,0.208025,
2,0,0,1,0,56182.3,0.206849,0.206526,-0.171352,29,0.0193764,10,-3.53886e-05,-3.76611,-0.322431,-0.182985,1.21126,0.2065257,
2,0,0,1,0,56182.6,0.205351,0.204973,-0.170367,29,0.0193216,10,-3.49205e-05,-3.76862,-0.396376,-0.148849,0.989718,0.204973,
2,0,0,1,0,56182.9,0.203854,0.20349,-0.172151,29,0.0192666,10,-3.5031e-05,-3.76409,-0.326034,-0.180963,1.22175,0.20349,
2,0,0,0,0,56183.2,0.202355,0.201974,-0.174175,29,0.0192111,10,-3.51787e-05,-3.75901,-0.283235,-0.208307,1.42015,0.201974,
2,0,0,0,0,56183.5,0.200857,0.200461,-0.176185,29,0.0191551,10,-3.53181e-05,-3.75403,-0.306276,-0.192637,1.32915,0.200461,
2,0,0,1,0,56183.8,0.199358,0.198981,-0.178706,29,0.0190984,10,-3.55591e-05,-3.74786,-0.36705,-0.160741,1.11033,0.198981,
2,0,0,1,0,56184.1,0.19786,0.197518,-0.179337,29,0.0190412,10,-3.54222e-05,-3.74633,-0.299779,-0.196812,1.3779,0.197518,
2,0,0,1,0,56184.4,0.196363,0.195992,-0.181956,29,0.0189836,10,-3.56619e-05,-3.74003,-0.345928,-0.170556,1.21111,0.195992,
2,0,0,1,0,56184.7,0.194864,0.194522,-0.183581,29,0.0189253,10,-3.57107e-05,-3.73617,-0.290916,-0.202808,1.45439,0.194522,
2,0,0,1,0,56185,0.193366,0.192985,-0.18618,29,0.0188663,10,-3.59299e-05,-3.73007,-0.294746,-0.200172,1.45152,0.192985,
2,0,0,1,0,56185.3,0.191867,0.191439,-0.187129,29,0.0188068,10,-3.58238e-05,-3.72786,-0.467396,-0.126231,0.925664,0.191439,
2,0,0,1,0,56185.6,0.190369,0.190012,-0.188469,29,0.0187469,10,-3.58114e-05,-3.72476,-0.353197,-0.167046,1.23456,0.190012,
2,0,0,1,0,56185.9,0.188871,0.188515,-0.191354,29,0.0186863,10,-3.60731e-05,-3.71816,-0.302886,-0.194793,1.45103,0.1885151,
2,0,0,0,0,56186.2,0.187373,0.187029,-0.193347,29,0.018625,10,-3.61616e-05,-3.71366,-0.312433,-0.188841,1.43055,0.187029,
2,0,0,0,0,56186.5,0.185875,0.185498,-0.195641,29,0.0185631,10,-3.6291e-05,-3.70854,-0.358294,-0.164669,1.25465,0.185498,
2,0,0,0,0,56186.8,0.184377,0.184041,-0.195837,29,0.0185006,10,-3.6042e-05,-3.70811,-0.308355,-0.191338,1.47415,0.184041,
2,0,0,1,0,56187.1,0.182878,0.182528,-0.200045,29,0.0184375,10,-3.65137e-05,-3.69887,-0.270023,-0.2185,1.70043,0.182528,
2,0,0,1,0,56187.4,0.181381,0.181025,-0.201719,29,0.0183737,10,-3.65161e-05,-3.69525,-0.325674,-0.181162,1.42942,0.181025,
2,0,0,1,0,56187.7,0.179882,0.179522,-0.203005,29,0.0183091,10,-3.64439e-05,-3.69249,-0.490494,-0.120287,0.956489,0.179522,
2,0,0,1,0,56188,0.178384,0.178002,-0.205349,29,0.0182439,10,-3.65526e-05,-3.68751,-0.338395,-0.174352,1.40273,0.178002,
2,0,0,1,0,56188.3,0.176886,0.176513,-0.208774,29,0.0181782,10,-3.68514e-05,-3.68032,-0.300982,-0.196025,1.59938,0.176513,
2,0,0,1,0,56188.6,0.175387,0.175002,-0.21096,29,0.0181115,10,-3.69185e-05,-3.6758,-0.272684,-0.216367,1.78586,0.175002,
2,0,0,1,0,56188.9,0.173889,0.173491,-0.214211,29,0.018044,10,-3.71637e-05,-3.66916,-0.285423,-0.206711,1.72498,0.173491,
2,0,0,1,0,56189.2,0.172392,0.172019,-0.216795,29,0.0179757,10,-3.72928e-05,-3.66395,-0.305127,-0.193362,1.63377,0.172019,
2,0,0,0,0,56189.5,0.170893,0.170542,-0.219367,29,0.0179067,10,-3.74113e-05,-3.65883,-0.264749,-0.222853,1.91176,0.170542,
2,0,0,0,0,56189.8,0.169395,0.168997,-0.223098,29,0.0178367,10,-3.77029e-05,-3.6515,-0.225088,-0.26212,2.28065,0.1689972,
2,0,0,1,0,56190.1,0.167896,0.167514,-0.225888,29,0.0177654,10,-3.78395e-05,-3.64611,-0.239396,-0.246454,2.17594,0.167514,
2,0,0,1,0,56190.4,0.166398,0.166073,-0.229378,29,0.0176934,10,-3.80935e-05,-3.63945,-0.293165,-0.201252,1.80982,0.166073,
2,0,0,1,0,56190.7,0.164901,0.164564,-0.232259,29,0.0176205,10,-3.82214e-05,-3.63403,-0.206438,-0.2858,2.60109,0.164564,
2,0,0,1,0,56191,0.163402,0.162974,-0.235823,29,0.0175464,10,-3.8433e-05,-3.62741,-0.195275,-0.302137,2.79149,0.162974,
2,0,0,1,0,56191.3,0.161904,0.161515,-0.241334,29,0.0174712,10,-3.8979e-05,-3.61738,-0.186021,-0.317168,2.97946,0.161515,
2,0,0,1,0,56191.6,0.160405,0.160083,-0.24608,29,0.0173946,10,-3.93932e-05,-3.60892,-0.198629,-0.297037,2.83362,0.160083,
2,0,0,1,0,56191.9,0.158907,0.158507,-0.248408,29,0.0173167,10,-3.93743e-05,-3.60483,-0.199824,-0.295261,2.8765,0.158507,
2,0,0,1,0,56192.2,0.157409,0.157028,-0.255025,29,0.0172376,10,-4.0046e-05,-3.59342,-0.175676,-0.335845,3.34637,0.157028,
2,0,0,0,0,56192.5,0.155911,0.155526,-0.259723,29,0.0171568,10,-4.03936e-05,-3.58549,-0.157191,-0.37534,3.82372,0.1555258,
2,0,0,0,0,56192.8,0.154413,0.154014,-0.266017,29,0.0170742,10,-4.09702e-05,-3.57509,-0.166668,-0.353996,3.66703,0.154014,
2,0,0,0,0,56193.1,0.152915,0.152571,-0.271985,29,0.0169901,10,-4.14971e-05,-3.56546,-0.156636,-0.37667,4.00472,0.1525715,
2,0,0,1,0,56193.4,0.151416,0.151027,-0.277942,29,0.0169042,10,-4.19768e-05,-3.55605,-0.13297,-0.443709,4.82088,0.1510274,
2,0,0,1,0,56193.7,0.149919,0.149532,-0.286124,29,0.0168161,10,-4.27846e-05,-3.54345,-0.120103,-0.491244,5.49452,0.149532,
2,0,0,1,0,56194,0.14842,0.148092,-0.294937,29,0.0167254,10,-4.36779e-05,-3.53027,-0.112658,-0.523709,6.01389,0.148092,
2,0,0,1,0,56194.3,0.146922,0.146612,-0.302918,29,0.0166321,10,-4.44115e-05,-3.51867,-0.104909,-0.562394,6.66923,0.146612,
2,0,0,1,0,56194.6,0.145424,0.145046,-0.31404,29,0.016536,10,-4.55502e-05,-3.50301,-0.101757,-0.579815,7.12992,0.145046,
2,0,0,1,0,56194.9,0.143925,0.143552,-0.325686,29,0.0164365,10,-4.6753e-05,-3.4872,-0.0873758,-0.675244,8.56128,0.143552,
2,0,0,1,0,56195.2,0.142427,0.142069,-0.33899,29,0.0163331,10,-4.81601e-05,-3.46981,-0.0852425,-0.692143,9.16469,0.142069,
2,0,0,1,0,56195.5,0.14093,0.140509,-0.350814,29,0.0162259,10,-4.92925e-05,-3.45492,-0.0879201,-0.671063,9.23313,0.140509,
2,0,0,0,0,56195.8,0.139431,0.139067,-0.364426,29,0.0161146,10,-5.06798e-05,-3.43839,-0.0825857,-0.71441,10.2245,0.139067,
2,0,0,0,0,56196.1,0.137933,0.137558,-0.381613,29,0.0159989,10,-5.2494e-05,-3.41838,-0.0838062,-0.704005,10.482,0.137558,
2,0,0,1,0,56196.4,0.136434,0.136043,-0.398395,29,0.0158783,10,-5.41987e-05,-3.39969,-0.0825318,-0.714876,11.0853,0.136043,
2,0,0,1,0,56196.7,0.134936,0.134569,-0.414717,29,0.0157527,10,-5.5808e-05,-3.38225,-0.0873905,-0.67513,10.8878,0.134569,
2,0,0,1,0,56197,0.133439,0.133074,-0.43049,29,0.0156222,10,-5.72872e-05,-3.36604,-0.0871425,-0.677052,11.3977,0.1330743,
2,0,0,1,0,56197.3,0.13194,0.131608,-0.447882,29,0.0154868,10,-5.8945e-05,-3.34884,-0.0868809,-0.679091,11.8903,0.131608,
2,0,0,1,0,56197.6,0.130442,0.1301,-0.464939,29,0.0153458,10,-6.04887e-05,-3.3326,-0.0938994,-0.628332,11.4018,0.1301,
2,0,0,1,0,56197.9,0.128943,0.12862,-0.483046,29,0.0151996,10,-6.21292e-05,-3.31601,-0.104616,-0.563968,10.5793,0.12862,
2,0,0,1,0,56198.2,0.127445,0.127095,-0.498797,29,0.0150485,10,-6.33947e-05,-3.30208,-0.115027,-0.512921,9.95655,0.127095,
2,0,0,1,0,56198.5,0.125947,0.125546,-0.513389,29,0.0148933,10,-6.44541e-05,-3.28955,-0.125929,-0.468518,9.35542,0.125546,
2,0,0,0,0,56198.8,0.124449,0.124088,-0.527404,29,0.0147334,10,-6.54444e-05,-3.27786,-0.137861,-0.427968,8.76623,0.124088,
2,0,0,0,0,56199.1,0.122951,0.12257,-0.538724,29,0.0145697,10,-6.60317e-05,-3.26863,-0.156582,-0.3768,7.8955,0.12257,
2,0,0,0,0,56199.4,0.121453,0.12111,-0.549869,29,0.0144025,10,-6.65949e-05,-3.25974,-0.195569,-0.301684,6.45387,0.12111,
2,0,0,1,0,56199.7,0.119954,0.119572,-0.557444,29,0.0142324,10,-6.66545e-05,-3.2538,-0.222223,-0.265499,5.77249,0.119572,
2,0,0,1,0,56200,0.118456,0.118101,-0.565749,29,0.0140599,10,-6.68154e-05,-3.24738,-0.254047,-0.23224,5.12334,0.118101,
2,0,0,1,0,56200.3,0.116958,0.11661,-0.573251,29,0.0138849,10,-6.68468e-05,-3.24166,-0.34847,-0.169312,3.77413,0.11661,
2,0,0,1,0,56200.6,0.11546,0.115046,-0.576498,29,0.0137084,10,-6.63236e-05,-3.2392,-0.579005,-0.101899,2.29023,0.115046,
2,0,0,1,0,56200.9,0.113962,0.113598,-0.577929,29,0.013531,10,-6.56518e-05,-3.23813,-0.735057,-0.0802659,1.8133,0.113598,
2,0,0,1,0,56201.2,0.112463,0.112151,-0.583367,29,0.0133528,10,-6.54251e-05,-3.23406,-1.35341,-0.0435936,0.989358,0.112151,
2,0,0,1,0,56201.5,0.110965,0.110591,-0.584605,29,0.0131739,10,-6.46522e-05,-3.23314,-2.60116,-0.0226822,0.515217,0.110591,
2,0,0,1,0,56201.8,0.109468,0.109096,-0.583193,29,0.0129949,10,-6.36242e-05,-3.23419,2.82705,0.0208698,-0.474706,0.109096,
2,0,0,0,0,56202.1,0.107969,0.107618,-0.583504,29,0.0128159,10,-6.27954e-05,-3.23396,4.00728,0.0147232,-0.335569,0.107618,
2,0,0,0,0,56202.4,0.106471,0.106127,-0.581845,29,0.0126373,10,-6.17493e-05,-3.23519,2.79182,0.0211332,-0.481585,0.106127,
2,0,0,1,0,56202.7,0.104972,0.104631,-0.582494,29,0.0124587,10,-6.0947e-05,-3.23471,2.59276,0.0227557,-0.516656,0.104631,
2,0,0,1,0,56203,0.103474,0.103126,-0.581492,29,0.0122801,10,-5.99667e-05,-3.23546,1.32526,0.0445196,-1.00679,0.103126,
2,0,0,1,0,56203.3,0.101977,0.101609,-0.579828,29,0.012102,10,-5.89155e-05,-3.2367,0.965112,0.0611328,-1.38161,0.101609,
2,0,0,1,0,56203.6,0.100478,0.100093,-0.577468,29,0.0119248,10,-5.78005e-05,-3.23847,1.16015,0.0508555,-1.1458,0.100093,
2,0,0,1,0,56203.9,0.0989798,0.0986276,-0.575561,29,0.011748,10,-5.67662e-05,-3.23991,2.21575,0.0266275,-0.597324,0.09862756,
2,0,0,1,0,56204.2,0.0974812,0.0971215,-0.574459,29,0.0115715,10,-5.57923e-05,-3.24074,1.15963,0.0508784,-1.13895,0.0971215,
2,0,0,1,0,56204.5,0.0959834,0.095587,-0.571148,29,0.0113957,10,-5.45943e-05,-3.24325,0.757708,0.0778664,-1.737,0.095587,
2,0,0,1,0,56204.8,0.0944855,0.0941126,-0.567703,29,0.0112208,10,-5.3428e-05,-3.24588,0.931316,0.0633512,-1.40728,0.09411262,
2,0,0,0,0,56205.1,0.0929871,0.0926002,-0.567288,29,0.0110464,10,-5.2531e-05,-3.2462,1.21168,0.0486928,-1.07888,0.0926002,
2,0,0,0,0,56205.4,0.0914889,0.0910891,-0.567274,29,0.0108725,10,-5.16725e-05,-3.24621,0.97816,0.0603173,-1.32876,0.0910891,
2,0,0,0,0,56205.7,0.0899907,0.089612,-0.564074,29,0.0106992,10,-5.05478e-05,-3.24866,0.633591,0.09312,-2.0415,0.089612,
2,0,0,1,0,56206,0.0884923,0.0881451,-0.558466,29,0.0105268,10,-4.9226e-05,-3.253,0.633385,0.0931503,-2.03486,0.0881451,
2,0,0,1,0,56206.3,0.0869946,0.0866325,-0.556011,29,0.0103556,10,-4.81686e-05,-3.25492,0.639898,0.0922022,-2.00536,0.0866325,
2,0,0,1,0,56206.6,0.0854961,0.0851445,-0.554306,29,0.010185,10,-4.71961e-05,-3.25625,0.66763,0.0883724,-1.9135,0.08514449,
2,0,0,1,0,56206.9,0.083998,0.0836345,-0.551024,29,0.0100153,10,-4.60846e-05,-3.25883,0.434425,0.135812,-2.91749,0.0836345,
2,0,0,1,0,56207.2,0.0824998,0.0821245,-0.547502,29,0.00984659,10,-4.49633e-05,-3.26161,0.467039,0.126328,-2.70247,0.0821245,
2,0,0,1,0,56207.5,0.0810014,0.080648,-0.544699,29,0.0096792,10,-4.39289e-05,-3.26384,0.611476,0.0964878,-2.05437,0.08064802,
2,0,0,1,0,56207.8,0.0795035,0.0791354,-0.541875,29,0.00951255,10,-4.28815e-05,-3.2661,0.771441,0.0764803,-1.61477,0.0791354,
2,0,0,1,0,56208.1,0.0780056,0.0776394,-0.53933,29,0.00934674,10,-4.18732e-05,-3.26815,0.55271,0.106747,-2.24214,0.0776394,
2,0,0,0,0,56208.4,0.076507,0.0761342,-0.5353,29,0.00918192,10,-4.07546e-05,-3.2714,0.521478,0.11314,-2.36359,0.07613422,
2,0,0,0,0,56208.7,0.0750088,0.0746263,-0.53233,29,0.00901842,10,-3.97258e-05,-3.27382,0.638878,0.0923495,-1.91984,0.0746263,
2,0,0,1,0,56209,0.0735103,0.07315,-0.528702,29,0.00885572,10,-3.86746e-05,-3.27679,0.739206,0.0798154,-1.64745,0.07315,
2,0,0,1,0,56209.3,0.0720124,0.0716582,-0.525863,29,0.00869382,10,-3.76824e-05,-3.27913,0.650919,0.0906411,-1.85989,0.0716582,
2,0,0,1,0,56209.6,0.0705146,0.0701815,-0.522368,29,0.00853289,10,-3.66605e-05,-3.28202,0.475683,0.124032,-2.52914,0.0701815,
2,0,0,1,0,56209.9,0.069016,0.068687,-0.517535,29,0.00837314,10,-3.55479e-05,-3.28606,0.532024,0.110897,-2.24718,0.068687,
2,0,0,1,0,56210.2,0.0675179,0.0671791,-0.515801,29,0.00821432,10,-3.4651e-05,-3.28752,0.671555,0.0878557,-1.77095,0.0671791,
2,0,0,1,0,56210.5,0.0660192,0.0656199,-0.515559,29,0.00805627,10,-3.38309e-05,-3.28772,0.564383,0.104539,-2.0916,0.0656199,
2,0,0,1,0,56210.8,0.0645214,0.0641853,-0.510916,29,0.00789903,10,-3.27933e-05,-3.29165,0.514112,0.114761,-2.27885,0.0641853,
2,0,0,1,0,56211.1,0.0630235,0.0627119,-0.50448,29,0.00774299,10,-3.16369e-05,-3.29716,0.559345,0.105481,-2.08437,0.0627119,
2,0,0,0,0,56211.4,0.0615251,0.0611825,-0.502996,29,0.00758803,10,-3.07745e-05,-3.29844,0.543152,0.108625,-2.13628,0.0611825,
2,0,0,0,0,56211.7,0.0600269,0.0596523,-0.499672,29,0.00743381,10,-2.98066e-05,-3.30132,0.538894,0.109484,-2.13836,0.0596523,
2,0,0,0,0,56212,0.0585287,0.058208,-0.497104,29,0.00728052,10,-2.89354e-05,-3.30355,0.437989,0.134707,-2.60925,0.058208,
2,0,0,1,0,56212.3,0.0570303,0.0566618,-0.493425,29,0.00712809,10,-2.79583e-05,-3.30678,0.532484,0.110801,-2.13635,0.0566618,
2,0,0,1,0,56212.6,0.0555325,0.0551818,-0.491214,29,0.00697705,10,-2.71061e-05,-3.30873,0.570668,0.103388,-1.98386,0.0551818,
2,0,0,1,0,56212.9,0.0540342,0.0536388,-0.486699,29,0.00682667,10,-2.61059e-05,-3.31274,0.61864,0.0953705,-1.81155,0.05363876,
2,0,0,1,0,56213.2,0.052536,0.0521383,-0.485875,29,0.00667706,10,-2.53327e-05,-3.31348,0.520284,0.1134,-2.14272,0.0521383,
2,0,0,1,0,56213.5,0.0510378,0.0506654,-0.481041,29,0.00652862,10,-2.43721e-05,-3.31782,0.427747,0.137932,-2.58696,0.0506654,
2,0,0,1,0,56213.8,0.0495394,0.0491965,-0.476837,29,0.00638132,10,-2.34587e-05,-3.32163,0.560074,0.105343,-1.96331,0.0491965,
2,0,0,1,0,56214.1,0.0480415,0.047694,-0.473566,29,0.00623499,10,-2.25863e-05,-3.32462,0.719406,0.0820121,-1.5183,0.047694,
2,0,0,1,0,56214.4,0.0465436,0.0461814,-0.470529,29,0.00608955,10,-2.17297e-05,-3.32741,0.544485,0.108359,-1.99293,0.0461814,
2,0,0,0,0,56214.7,0.045045,0.0446964,-0.467746,29,0.00594496,10,-2.09066e-05,-3.32999,0.484204,0.121849,-2.22396,0.04469635,
2,0,0,0,0,56215,0.0435468,0.0432287,-0.462876,29,0.0058017,10,-2.00095e-05,-3.33454,0.420175,0.140418,-2.54481,0.0432287,
2,0,0,1,0,56215.3,0.0420483,0.041695,-0.461267,29,0.00565932,10,-1.92325e-05,-3.33605,0.543671,0.108522,-1.9498,0.041695,
2,0,0,1,0,56215.6,0.0405504,0.0402638,-0.459883,29,0.0055178,10,-1.85167e-05,-3.33735,0.491926,0.119937,-2.14195,0.0402638,
2,0,0,1,0,56215.9,0.0390526,0.038664,-0.454928,29,0.00537713,10,-1.75893e-05,-3.34206,0.376065,0.156888,-2.77654,0.038664,
2,0,0,1,0,56216.2,0.0375541,0.0371441,-0.449968,29,0.00523766,10,-1.67137e-05,-3.34682,0.410912,0.143583,-2.52971,0.0371441,
2,0,0,1,0,56216.5,0.0360559,0.0356787,-0.446893,29,0.00509951,10,-1.59445e-05,-3.3498,0.453845,0.13,-2.27192,0.0356787,
2,0,0,1,0,56216.8,0.0345572,0.0341711,-0.444502,29,0.00496209,10,-1.51891e-05,-3.35213,0.473302,0.124656,-2.15992,0.0341711,
2,0,0,1,0,56217.1,0.0330594,0.0327201,-0.441194,29,0.00482557,10,-1.44359e-05,-3.35537,0.396607,0.148762,-2.55822,0.0327201,
2,0,0,1,0,56217.4,0.0315615,0.0312167,-0.437742,29,0.00469005,10,-1.36649e-05,-3.35878,0.478182,0.123384,-2.11087,0.0312167,
2,0,0,0,0,56217.7,0.0300631,0.0296958,-0.435485,29,0.00455573,10,-1.29321e-05,-3.36103,0.51146,0.115356,-1.95682,0.0296958,
2,0,0,0,0,56218,0.0285649,0.028189,-0.432236,29,0.00442208,10,-1.21843e-05,-3.36428,0.708338,0.0832936,-1.40382,0.028189,
2,0,0,0,0,56218.3,0.0270667,0.0266747,-0.430125,29,0.00428908,10,-1.14735e-05,-3.36641,0.652285,0.0904513,-1.51631,0.0266747,
2,0,0,1,0,56218.6,0.0255683,0.0251984,-0.426493,29,0.0041569,10,-1.07469e-05,-3.37009,0.459787,0.12832,-2.13609,0.02519837,
2,0,0,1,0,56218.9,0.0240706,0.0237154,-0.423711,29,0.00402582,10,-1.00485e-05,-3.37293,0.612383,0.0963449,-1.59575,0.0237154,
2,0,0,1,0,56219.2,0.0225722,0.0222369,-0.421739,29,0.00389542,10,-9.37818e-06,-3.37496,0.854669,0.0690326,-1.13442,0.0222369,
2,0,0,1,0,56219.5,0.021074,0.0207322,-0.418806,29,0.00376566,10,-8.68278e-06,-3.37799,0.719565,0.081994,-1.34287,0.0207322,
2,0,0,1,0,56219.8,0.0195758,0.0192052,-0.417495,29,0.00363664,10,-8.0181e-06,-3.37935,0.647156,0.0911682,-1.48384,0.0192052,
2,0,0,1,0,56220.1,0.0180774,0.017711,-0.414207,29,0.00350821,10,-7.336e-06,-3.38278,0.810923,0.0727566,-1.17924,0.017711,
2,0,0,1,0,56220.4,0.0165795,0.0162245,-0.414611,29,0.00338042,10,-6.72686e-06,-3.38236,1.12292,0.0525415,-0.850314,0.0162245,
2,0,0,1,0,56220.7,0.0150817,0.0147244,-0.41386,29,0.00325283,10,-6.09383e-06,-3.38315,1.08541,0.0543572,-0.875483,0.0147244,
2,0,0,0,0,56220.9,0.013583,0.0132012,-0.411927,29,0.00312552,10,-5.43794e-06,-3.38518,0.834231,0.0707238,-1.13462,0.0132012,
2,0,0,0,0,56221.2,0.0120848,0.0116954,-0.410109,29,0.00299885,10,-4.79641e-06,-3.3871,1.07088,0.055095,-0.883118,0.0116954,
2,0,0,1,0,56221.5,0.0105863,0.0102011,-0.409704,29,0.00287253,10,-4.17942e-06,-3.38753,2.45014,0.0240803,-0.385099,0.0102011,
2,0,0,1,0,56221.8,0.00908846,0.0086956,-0.4097,29,0.00274631,10,-3.56259e-06,-3.38753,-27.2894,-0.00216201,0.0345681,0.0086956,
2,0,0,1,0,56222.1,0.0075906,0.00720405,-0.408907,29,0.0026201,10,-2.94578e-06,-3.38838,2.58038,0.0228649,-0.364618,0.00720405,
2,0,0,1,0,56222.4,0.00609207,0.00570733,-0.408819,29,0.00249385,10,-2.33327e-06,-3.38847,8.3791,0.00704133,-0.11215,0.00570733,
2,0,0,1,0,56222.7,0.00459389,0.00425351,-0.408963,29,0.002368,10,-1.73953e-06,-3.38832,-21.6951,-0.00271951,0.0433433,0.00425351,
2,0,0,1,0,56223,0.00309525,0.0027251,-0.409533,29,0.00224181,10,-1.11602e-06,-3.38771,-1.02926,-0.0573229,0.916431,0.0027251,
2,0,0,1,0,56223.3,0.00159739,0.00119949,-0.41363,29,0.00211397,10,-4.96147e-07,-3.38339, , , ,0.00119949,
2,0,0,0,0,56223.6,0.000199195,-0.000178351,-0.411267,29,0.00199529,10,7.335e-08,-3.38588, , , ,-0.000178351,