File: Figure_codes/Fig_3-5/rawdata_trumpetplot_data/after 10th/20221101_1-115_003_TrumpetPlot_ParaChange_from10_every3_09_CV_C01_33.csv
mode,ox/red,error,control changes,counter inc.,time/s,control/V,Ewe/V,<I>/mA,cycle number,(Q-Qo)/C,I Range,P/W,log(|I|),Tafel slope mV/dec,alpha_eff,dI/d(E-IR),E-IR/V,
2,0,0,0,0,66196.8,2.44065e-05,-0.000401673,-5.28178,34,0.0000000E+000,10,2.12155e-06,-2.27722, , , ,-0.000401673,
2,0,0,1,0,66196.8,0.00179726,0.00143403,-3.3131,34,-7.33052e-05,10,-4.75108e-06,-2.47977, , , ,0.00143403,
2,0,0,1,0,66196.9,0.00379485,0.00347554,-1.90209,34,-0.000124186,10,-6.61079e-06,-2.72077,-0.00707095,-8.344,598.834,0.00347554,
2,0,0,1,0,66196.9,0.00579244,0.00548967,-0.884444,34,-0.000151353,10,-4.85531e-06,-3.05333,-0.00289813,-20.3579,456.031,0.00548967,
2,0,0,1,0,66196.9,0.00779002,0.00747226,-0.0794627,34,-0.000160477,10,-5.93766e-07,-4.09984,-0.0203737,-2.89589,367.82,0.00747226,
2,1,0,1,0,66196.9,0.00978761,0.00943393,0.566336,34,-0.000155189,10,5.34278e-06,-3.24693,0.0035095,16.8115,292.893,0.00943393,
2,1,0,1,0,66196.9,0.0117852,0.0114624,1.08922,34,-0.000138304,10,1.24851e-05,-2.96288,0.00932505,6.32705,239.01,0.0114624,
2,1,0,1,0,66197,0.0137828,0.0134466,1.52541,34,-0.000111918,10,2.05116e-05,-2.81661,0.0164268,3.59169,204.198,0.0134466,
2,1,0,1,0,66197,0.0157804,0.0154278,1.89895,34,-7.74673e-05,10,2.92965e-05,-2.72149,0.0245307,2.40515,173.661,0.0154278,
2,1,0,1,0,66197,0.017778,0.0174342,2.21789,34,-3.62528e-05,10,3.86671e-05,-2.65406,0.0345592,1.70722,145.188,0.0174342,
2,1,0,1,0,66197,0.0197755,0.0194682,2.48557,34,1.09583e-05,10,4.83896e-05,-2.60457,0.044773,1.31776,126.652,0.0194682,
2,1,0,1,0,66197,0.0217731,0.0214375,2.72493,34,6.32518e-05,10,5.84157e-05,-2.56465,0.0545262,1.08205,114.213,0.0214375,
2,1,0,1,0,66197.1,0.0237707,0.0234135,2.93617,34,0.000120055,10,6.8746e-05,-2.53222,0.0677813,0.870447,99.2407,0.0234135,
2,1,0,1,0,66197.1,0.0257683,0.025489,3.12699,34,0.000180538,10,7.97038e-05,-2.50487,0.0788394,0.748357,91.0089,0.025489,
2,1,0,1,0,66197.1,0.0277659,0.0274467,3.30323,34,0.000244949,10,9.06629e-05,-2.48106,0.0893083,0.660633,84.87,0.0274467,
2,1,0,1,0,66197.1,0.0297635,0.0294392,3.46225,34,0.000312683,10,0.000101926,-2.46064,0.106915,0.551839,74.3074,0.0294392,
2,1,0,1,0,66197.1,0.0317611,0.0314629,3.60166,34,0.000383387,10,0.000113319,-2.4435,0.118996,0.495816,69.6931,0.0314629,
2,1,0,1,0,66197.2,0.0337587,0.0334937,3.74482,34,0.000456542,10,0.000125428,-2.42657,0.12664,0.465887,67.9063,0.0334937,
2,1,0,1,0,66197.2,0.0357562,0.0354314,3.87115,34,0.000532788,10,0.000137161,-2.41216,0.14541,0.405749,61.1929,0.0354314,
2,1,0,1,0,66197.2,0.0377538,0.0374427,3.98647,34,0.000611495,10,0.000149264,-2.39941,0.154485,0.381913,59.4324,0.0374427,
2,1,0,1,0,66197.2,0.0397514,0.0393838,4.10605,34,0.000692551,10,0.000161712,-2.38658,0.156108,0.377943,60.5812,0.0393838,
2,1,0,1,0,66197.2,0.041749,0.041469,4.23039,34,0.000775563,10,0.00017543,-2.37362,0.175553,0.336081,55.318,0.041469,
2,1,0,1,0,66197.3,0.0437466,0.0434506,4.33102,34,0.000861305,10,0.000188185,-2.36341,0.186891,0.315692,53.4133,0.0434506,
2,1,0,1,0,66197.3,0.0457442,0.0454304,4.44198,34,0.000949086,10,0.000201801,-2.35242,0.192306,0.306802,53.1081,0.0454304,
2,1,0,1,0,66197.3,0.0477418,0.0474151,4.54156,34,0.00103896,10,0.000215339,-2.34279,0.197088,0.299358,53.132,0.0474151,
2,1,0,1,0,66197.3,0.0497484,0.0494453,4.6553,34,0.00113092,10,0.000230183,-2.33205,0.210174,0.28072,50.8587,0.0494453,
2,1,0,1,0,66197.3,0.0517369,0.0514034,4.7444,34,0.00122445,10,0.000243878,-2.32382,0.22822,0.258523,47.9291,0.0514034,
2,1,0,1,0,66197.4,0.0537345,0.0534436,4.84694,34,0.0013204,10,0.000259038,-2.31453,0.231791,0.25454,48.0816,0.0534436,
2,1,0,1,0,66197.4,0.0557321,0.055413,4.93719,34,0.00141833,10,0.000273584,-2.30652,0.246609,0.239245,46.0985,0.055413,
2,1,0,1,0,66197.4,0.0577206,0.0573834,5.02855,34,0.00151757,10,0.000288556,-2.29856,0.245291,0.240531,47.2246,0.0573834,
2,1,0,1,0,66197.4,0.0597273,0.0594006,5.12551,34,0.00161927,10,0.000304458,-2.29026,0.254038,0.232249,46.4154,0.0594006,
2,1,0,1,0,66197.4,0.0617249,0.0613861,5.21434,34,0.00172278,10,0.000320088,-2.2828,0.278569,0.211797,43.0763,0.0613861,
2,1,0,1,0,66197.5,0.0637224,0.0634116,5.29828,34,0.00182802,10,0.000335972,-2.27586,0.275994,0.213773,44.2339,0.0634116,
2,1,0,1,0,66197.5,0.06572,0.065371,5.39061,34,0.00193498,10,0.00035239,-2.26836,0.270121,0.218421,45.9394,0.065371,
2,1,0,1,0,66197.5,0.0677176,0.067394,5.48123,34,0.00204331,10,0.000369402,-2.26112,0.30271,0.194906,41.6378,0.067394,
2,1,0,1,0,66197.5,0.0697152,0.069394,5.55812,34,0.00215379,10,0.0003857,-2.25507,0.323348,0.182466,39.5879,0.069394,
2,1,0,1,0,66197.5,0.0717128,0.071355,5.63804,34,0.00226588,10,0.000402303,-2.24887,0.316684,0.186306,41.0021,0.071355,
2,1,0,1,0,66197.6,0.0737104,0.0733675,5.72104,34,0.00237957,10,0.000419738,-2.24253,0.329184,0.179231,40.0045,0.0733675,
2,1,0,1,0,66197.6,0.075708,0.0754296,5.80104,34,0.00249437,10,0.000437571,-2.23649,0.34862,0.169239,38.287,0.0754296,
2,1,0,1,0,66197.6,0.0777056,0.0773423,5.87322,34,0.00261115,10,0.000454248,-2.23112,0.364742,0.161758,37.0804,0.0773423,
2,1,0,1,0,66197.6,0.0797031,0.0793664,5.94702,34,0.00272945,10,0.000471994,-2.2257,0.384053,0.153625,35.6444,0.0793664,
2,1,0,1,0,66197.6,0.0817007,0.0813979,6.01778,34,0.00284918,10,0.000489835,-2.22056,0.402784,0.146481,34.3919,0.0813979,
2,1,0,1,0,66197.7,0.0836983,0.0833966,6.08563,34,0.00296967,10,0.000507521,-2.21569,0.407807,0.144676,34.3627,0.0833966,
2,1,0,1,0,66197.7,0.0856959,0.0853792,6.15459,34,0.00309214,10,0.000525474,-2.2108,0.44001,0.134088,32.1792,0.0853792,
2,1,0,1,0,66197.7,0.0876935,0.0873639,6.21329,34,0.00321588,10,0.000542817,-2.20668,0.467369,0.126238,30.6201,0.0873639,
2,1,0,1,0,66197.7,0.0896911,0.0893473,6.27609,34,0.00334083,10,0.000560752,-2.20231,0.442417,0.133358,32.6796,0.0893473,
2,1,0,1,0,66197.7,0.0916887,0.0914018,6.34525,34,0.00346644,10,0.000579967,-2.19755,0.442251,0.133408,33.0203,0.0914018,
2,1,0,1,0,66197.8,0.0936862,0.0933609,6.40862,34,0.00359407,10,0.000598314,-2.19324,0.480708,0.122736,30.6834,0.0933609,
2,1,0,1,0,66197.8,0.0956838,0.0953568,6.4666,34,0.00372288,10,0.000616634,-2.18932,0.463785,0.127214,32.1341,0.0953568,
2,1,0,1,0,66197.8,0.0976814,0.0973458,6.53667,34,0.00385297,10,0.000636318,-2.18464,0.414382,0.142381,36.3381,0.0973458,
2,1,0,1,0,66197.8,0.099679,0.0993864,6.61303,34,0.00398387,10,0.000657245,-2.1796,0.40025,0.147408,38.041,0.0993864,
2,1,0,1,0,66197.8,0.101677,0.10135,6.68899,34,0.00411698,10,0.000677929,-2.17464,0.380335,0.155127,40.5222,0.10135,
2,1,0,1,0,66197.9,0.103674,0.103367,6.77431,34,0.00425164,10,0.000700237,-2.16913,0.35279,0.167238,44.2292,0.103367,
2,1,0,1,0,66197.9,0.105672,0.105327,6.86489,34,0.00438812,10,0.000723056,-2.16337,0.316292,0.186536,50.032,0.105327,
2,1,0,1,0,66197.9,0.107667,0.107314,6.97182,34,0.00452585,10,0.000748175,-2.15665,0.306367,0.19258,52.3858,0.107314,
2,1,0,1,0,66197.9,0.109667,0.109364,7.0764,34,0.00466636,10,0.000773905,-2.15019,0.295185,0.199875,55.2474,0.109364,
2,1,0,1,0,66197.9,0.111665,0.111344,7.19447,34,0.00480916,10,0.000801062,-2.143,0.274782,0.214716,60.298,0.111344,
2,1,0,1,0,66198,0.113662,0.113344,7.31639,34,0.00495436,10,0.000829272,-2.1357,0.283542,0.208082,59.3846,0.113344,
2,1,0,1,0,66198,0.11566,0.115346,7.43214,34,0.00510189,10,0.000857271,-2.12889,0.27091,0.217785,63.2524,0.115346,
2,1,0,1,0,66198,0.117657,0.117337,7.56892,34,0.00525134,10,0.000888112,-2.12097,0.26222,0.225002,66.4115,0.117337,
2,1,0,1,0,66198,0.119655,0.11931,7.69538,34,0.0054041,10,0.000918138,-2.11377,0.287018,0.205562,61.7013,0.11931,
2,1,0,1,0,66198,0.121652,0.121319,7.8146,34,0.00555923,10,0.000948056,-2.10709,0.300576,0.19629,59.8657,0.121319,
2,1,0,1,0,66198.1,0.12365,0.123319,7.9354,34,0.00571681,10,0.000978588,-2.10043,0.289481,0.203813,63.1617,0.1233194,
2,1,0,1,0,66198.1,0.125648,0.125333,8.06813,34,0.0058762,10,0.0010112,-2.09323,0.321565,0.183478,57.637,0.125333,
2,1,0,1,0,66198.1,0.127645,0.127288,8.16414,34,0.00603861,10,0.0010392,-2.08809,0.365896,0.161248,51.4113,0.127288,
2,1,0,1,0,66198.1,0.129643,0.129296,8.27188,34,0.00620306,10,0.00106952,-2.0824,0.379842,0.155328,50.1016,0.129296,
2,1,0,1,0,66198.1,0.13164,0.131328,8.36653,34,0.00636952,10,0.00109876,-2.07745,0.435291,0.135541,44.2251,0.1313277,
2,1,0,1,0,66198.2,0.133638,0.133318,8.44976,34,0.00653698,10,0.0011265,-2.07316,0.486764,0.121209,39.9557,0.133318,
2,1,0,1,0,66198.2,0.135636,0.135348,8.52715,34,0.00670688,10,0.00115413,-2.0692,0.511152,0.115426,38.4058,0.135348,
2,1,0,1,0,66198.2,0.137633,0.137285,8.60211,34,0.00687823,10,0.00118094,-2.0654,0.607928,0.097051,32.5434,0.1372847,
2,1,0,1,0,66198.2,0.139631,0.139349,8.65735,34,0.00705094,10,0.00120639,-2.06261,0.690804,0.0854077,28.8656,0.1393486,
2,1,0,1,0,66198.2,0.141628,0.141307,8.71823,34,0.00722388,10,0.00123195,-2.05957,0.815186,0.0723761,24.5903,0.141307,
2,1,0,1,0,66198.3,0.143626,0.143289,8.75425,34,0.00739869,10,0.00125439,-2.05778,1.22484,0.0481695,16.4511,0.143289,
2,1,0,1,0,66198.3,0.145623,0.145302,8.78394,34,0.00757413,10,0.00127632,-2.05631,3.15431,0.0187046,6.39981,0.145302,
2,1,0,1,0,66198.3,0.147621,0.147304,8.77994,34,0.00774977,10,0.00129332,-2.05651,-4.45359,-0.0132477,-4.53674,0.147304,
2,1,0,1,0,66198.3,0.149619,0.149319,8.76571,34,0.00792447,10,0.00130889,-2.05721,-1.32108,-0.0446603,-15.2499,0.149319,
2,1,0,1,0,66198.3,0.151616,0.151296,8.71906,34,0.00809944,10,0.00131916,-2.05953,-0.629769,-0.0936851,-31.8185,0.151296,
2,1,0,1,0,66198.4,0.153614,0.153282,8.63963,34,0.00827309,10,0.0013243,-2.0635,-0.411235,-0.14347,-48.2747,0.153282,
2,1,0,1,0,66198.4,0.155611,0.155314,8.52511,34,0.00844477,10,0.00132407,-2.0693,-0.311761,-0.189248,-62.8738,0.155314,
2,1,0,1,0,66198.4,0.157609,0.157294,8.38733,34,0.00861309,10,0.00131928,-2.07638,-0.234959,-0.251108,-81.9261,0.157294,
2,1,0,1,0,66198.4,0.159607,0.159322,8.19672,34,0.00877901,10,0.00130592,-2.08636,-0.186945,-0.315601,-100.831,0.159322,
2,1,0,1,0,66198.4,0.161604,0.161248,7.98872,34,0.0089409,10,0.00128816,-2.09752,-0.164039,-0.35967,-111.888,0.161248,
2,1,0,1,0,66198.5,0.163602,0.163318,7.74964,34,0.00909833,10,0.00126566,-2.11072,-0.146031,-0.404024,-122.023,0.163318,
2,1,0,1,0,66198.5,0.165606,0.165302,7.494,34,0.00925081,10,0.00123877,-2.12529,-0.132375,-0.445703,-130.266,0.165302,
2,1,0,1,0,66198.5,0.167597,0.167275,7.23414,34,0.00939744,10,0.00121009,-2.14061,-0.127855,-0.461459,-130.252,0.167275,
2,1,0,1,0,66198.5,0.169595,0.16927,6.97713,34,0.00953959,10,0.00118102,-2.15632,-0.125716,-0.469311,-127.735,0.16927,
2,1,0,1,0,66198.5,0.171592,0.171298,6.72033,34,0.0096766,10,0.00115118,-2.17261,-0.123141,-0.479125,-125.703,0.171298,
2,1,0,1,0,66198.6,0.173581,0.173271,6.47418,34,0.00980788,10,0.00112179,-2.18882,-0.127855,-0.461459,-116.81,0.173271,
2,1,0,1,0,66198.6,0.175587,0.175261,6.25743,34,0.00993526,10,0.00109668,-2.2036,-0.133244,-0.442797,-108.094,0.175261,
2,1,0,1,0,66198.6,0.177585,0.177279,6.04099,34,0.0100582,10,0.00107094,-2.21889,-0.134188,-0.439683,-103.775,0.177279,
2,1,0,1,0,66198.6,0.179582,0.179257,5.84268,34,0.010177,10,0.00104734,-2.23339,-0.145701,-0.404939,-92.5035,0.179257,
2,1,0,1,0,66198.6,0.18158,0.181293,5.66965,34,0.0102921,10,0.00102787,-2.24644,-0.156345,-0.377371,-83.5737,0.1812931,
2,1,0,1,0,66198.7,0.183578,0.18324,5.50984,34,0.0104034,10,0.00100962,-2.25886,-0.163053,-0.361845,-77.8459,0.18324,
2,1,0,1,0,66198.7,0.185575,0.185293,5.3583,34,0.0105121,10,0.000992853,-2.27097,-0.17259,-0.34185,-71.5765,0.185293,
2,1,0,1,0,66198.7,0.187573,0.187251,5.22276,34,0.010618,10,0.000977966,-2.2821,-0.182681,-0.322968,-65.8984,0.187251,
2,1,0,1,0,66198.7,0.18957,0.189209,5.1002,34,0.0107213,10,0.000965005,-2.29241,-0.205898,-0.28655,-57.1145,0.189209,
2,1,0,1,0,66198.7,0.191568,0.191268,4.99334,34,0.0108217,10,0.000955064,-2.30161,-0.224887,-0.262354,-51.1599,0.191268,
2,1,0,1,0,66198.8,0.193566,0.19323,4.89452,34,0.0109206,10,0.000945766,-2.31029,-0.22877,-0.257901,-49.2687,0.19323,
2,1,0,1,0,66198.8,0.195563,0.195232,4.79799,34,0.0110176,10,0.000936724,-2.31894,-0.240301,-0.245525,-46.0066,0.195232,
2,1,0,1,0,66198.8,0.197561,0.197255,4.70931,34,0.0111127,10,0.000928936,-2.32704,-0.27013,-0.218414,-40.2097,0.1972553,
2,1,0,1,0,66198.8,0.199558,0.199227,4.63738,34,0.0112057,10,0.000923891,-2.33373,-0.288347,-0.204615,-37.0178,0.199227,
2,1,0,1,0,66198.8,0.201556,0.201215,4.56274,34,0.0112978,10,0.000918091,-2.34077,-0.299082,-0.197271,-35.1529,0.201215,
2,1,0,1,0,66198.9,0.203554,0.203268,4.49533,34,0.0113884,10,0.000913756,-2.34724,-0.319886,-0.184441,-32.3728,0.203268,
2,1,0,1,0,66198.9,0.205551,0.205233,4.43264,34,0.0114777,10,0.000909727,-2.35334,-0.377769,-0.15618,-27.0734,0.205233,
2,1,0,1,0,66198.9,0.207549,0.207211,4.38858,34,0.0115654,10,0.000909361,-2.35768,-0.416174,-0.141768,-24.2542,0.207211,
2,1,0,1,0,66198.9,0.209546,0.20925,4.33524,34,0.0116527,10,0.000907146,-2.36299,-0.361538,-0.163192,-27.5961,0.20925,
2,1,0,1,0,66198.9,0.211544,0.211223,4.27785,34,0.0117388,10,0.000903581,-2.36877,-0.396946,-0.148635,-24.8606,0.211223,
2,1,0,1,0,66199,0.213541,0.213214,4.23667,34,0.011824,10,0.000903318,-2.37298,-0.490138,-0.120374,-19.9101,0.213214,
2,1,0,1,0,66199,0.215539,0.215198,4.19872,34,0.0119079,10,0.000903555,-2.37688,-0.463168,-0.127384,-20.8548,0.215198,
2,1,0,1,0,66199,0.217537,0.2172,4.15356,34,0.0119914,10,0.000902151,-2.38158,-0.472014,-0.124996,-20.2821,0.2172,
2,1,0,1,0,66199,0.219534,0.21923,4.11693,34,0.0120742,10,0.000902556,-2.38543,-0.548497,-0.107567,-17.2891,0.21923,
2,1,0,1,0,66199,0.221532,0.221253,4.08348,34,0.0121563,10,0.000903482,-2.38897,-0.617328,-0.0955732,-15.2416,0.2212531,
2,1,0,1,0,66199.1,0.223525,0.223237,4.05586,34,0.0122373,10,0.000905418,-2.39192,-0.644667,-0.0915201,-14.4822,0.223237,
2,1,0,1,0,66199.1,0.225527,0.225222,4.026,34,0.0123181,10,0.000906743,-2.39513,-0.653353,-0.0903034,-14.1939,0.225222,
2,1,0,1,0,66199.1,0.227525,0.227227,3.99923,34,0.0123984,10,0.000908732,-2.39802,-0.661506,-0.0891904,-13.9164,0.2272267,
2,1,0,1,0,66199.1,0.229522,0.229233,3.97018,34,0.0124782,10,0.000910096,-2.40119,-0.705831,-0.0835894,-12.9617,0.229233,
2,1,0,1,0,66199.1,0.23152,0.231224,3.94742,34,0.0125574,10,0.000912738,-2.40369,-0.857299,-0.0688208,-10.6066,0.231224,
2,1,0,1,0,66199.2,0.233517,0.23321,3.928,34,0.0126359,10,0.000916048,-2.40583,-0.917099,-0.0643333,-9.86127,0.23321,
2,1,0,1,0,66199.2,0.235515,0.235225,3.90796,34,0.0127143,10,0.000919251,-2.40805,-0.904543,-0.0652263,-9.94825,0.235225,
2,1,0,1,0,66199.2,0.237512,0.237214,3.88817,34,0.0127922,10,0.000922327,-2.41026,-0.896088,-0.0658418,-9.991,0.237214,
2,1,0,1,0,66199.2,0.23951,0.239183,3.86842,34,0.0128699,10,0.00092526,-2.41247,-0.99517,-0.0592863,-8.95447,0.239183,
2,1,0,1,0,66199.2,0.241508,0.241243,3.85208,34,0.0129468,10,0.00092929,-2.4143,-0.948489,-0.0622042,-9.34561,0.241243,
2,1,0,1,0,66199.3,0.243505,0.243188,3.83099,34,0.0130237,10,0.00093165,-2.41669,-1.16768,-0.0505276,-7.56648,0.243188,
2,1,0,1,0,66199.3,0.245503,0.245202,3.82213,34,0.0131003,10,0.000937194,-2.41769,-1.2331,-0.0478468,-7.12722,0.245202,
2,1,0,1,0,66199.3,0.2475,0.247155,3.80272,34,0.0131766,10,0.00093986,-2.41991,-1.16866,-0.0504851,-7.50081,0.247155,
2,1,0,1,0,66199.3,0.249498,0.249235,3.79188,34,0.0132522,10,0.00094507,-2.42115,-1.37709,-0.042844,-6.33699,0.2492355,
2,1,0,1,0,66199.3,0.251496,0.251193,3.77713,34,0.013328,10,0.000948788,-2.42284,-1.3984,-0.0421912,-6.22322,0.251193,
2,1,0,1,0,66199.4,0.253493,0.253221,3.76707,34,0.0134034,10,0.000953903,-2.424,-1.35921,-0.0434075,-6.37728,0.253221,
2,1,0,1,0,66199.4,0.255491,0.255152,3.75188,34,0.0134786,10,0.000957299,-2.42575,-1.37376,-0.0429479,-6.29307,0.255152,
2,1,0,1,0,66199.4,0.257488,0.257201,3.74203,34,0.0135532,10,0.000962453,-2.42689,-1.66086,-0.0355238,-5.18687,0.257201,
2,1,0,1,0,66199.4,0.259486,0.259231,3.73072,34,0.013628,10,0.000967119,-2.42821,-1.26079,-0.0467961,-6.80927,0.259231,
2,1,0,1,0,66199.4,0.261484,0.261186,3.71489,34,0.0137026,10,0.000970279,-2.43005,-1.33904,-0.0440613,-6.39358,0.261186,
2,1,0,1,0,66199.5,0.263481,0.263169,3.70554,34,0.0137769,10,0.000975186,-2.43115,-2.95437,-0.0199704,-2.89082,0.263169,
2,1,0,1,0,66199.5,0.265479,0.265178,3.70335,34,0.0138506,10,0.000982047,-2.43141,-1.84524,-0.0319742,-4.61247,0.265178,
2,1,0,1,0,66199.5,0.267476,0.267163,3.68712,34,0.0139246,10,0.000985062,-2.43331,-1.1726,-0.0503154,-7.24353,0.267163,
2,1,0,1,0,66199.5,0.269474,0.269188,3.6743,34,0.0139982,10,0.000989079,-2.43483,-1.65707,-0.0356051,-5.10929,0.269188,
2,1,0,1,0,66199.5,0.271471,0.27115,3.66675,34,0.0140717,10,0.000994241,-2.43572,-4.26093,-0.0138467,-1.98344,0.27115,
2,1,0,1,0,66199.6,0.273469,0.273158,3.66643,34,0.0141447,10,0.00100151,-2.43576,-1.75781,-0.0335644,-4.79065,0.273158,
2,1,0,1,0,66199.6,0.275467,0.275124,3.64772,34,0.0142178,10,0.00100357,-2.43798,-1.28066,-0.0460698,-6.56849,0.275124,
2,1,0,1,0,66199.6,0.277464,0.277151,3.6402,34,0.0142908,10,0.00100888,-2.43887,-2.03003,-0.0290637,-4.12803,0.2771509,
2,1,0,1,0,66199.6,0.279462,0.279152,3.63108,34,0.0143635,10,0.00101363,-2.43996,-2.04293,-0.0288801,-4.09367,0.279152,
2,1,0,1,0,66199.6,0.281464,0.281138,3.62388,34,0.0144361,10,0.00101881,-2.44083,-2.08721,-0.0282673,-3.99703,0.281138,
2,1,0,1,0,66199.7,0.283457,0.283108,3.61527,34,0.0145082,10,0.00102351,-2.44186,-2.05562,-0.0287018,-4.05006,0.283108,
2,1,0,1,0,66199.7,0.285455,0.285191,3.60746,34,0.0145804,10,0.00102882,-2.4428,-1.44046,-0.040959,-5.76042,0.285191,
2,1,0,1,0,66199.7,0.287452,0.287144,3.59202,34,0.0146524,10,0.00103143,-2.44466,-1.54023,-0.0383059,-5.377,0.287144,
2,1,0,1,0,66199.7,0.28945,0.289169,3.58607,34,0.0147243,10,0.00103698,-2.44538,-2.45757,-0.0240074,-3.35924,0.2891691,
2,1,0,1,0,66199.7,0.291447,0.291115,3.57868,34,0.0147956,10,0.00104181,-2.44628,-1.50988,-0.0390759,-5.45234,0.2911154,
2,1,0,1,0,66199.8,0.293445,0.293124,3.56451,34,0.0148672,10,0.00104484,-2.448,-1.51651,-0.0389051,-5.41718,0.293124,
2,1,0,1,0,66199.8,0.295442,0.295122,3.55698,34,0.0149385,10,0.00104974,-2.44892,-2.86635,-0.0205837,-2.8588,0.295122,
2,1,0,1,0,66199.8,0.29744,0.297151,3.553,34,0.0150096,10,0.00105578,-2.44941,-2.45203,-0.0240617,-3.33389,0.297151,
2,1,0,1,0,66199.8,0.299438,0.299143,3.54357,34,0.0150803,10,0.00106003,-2.45056,-0.0414035,-1.425,-185.494,0.299143,
2,1,0,1,0,66199.8,0.299737,0.299448,3.12692,34,0.0151094,10,0.00093635,-2.50488,0.00509709,11.5752,1103.12,0.299448,
2,1,0,1,0,66199.8,0.29774,0.297377,1.59635,34,0.0151545,10,0.000474718,-2.79687,0.0063444,9.29954,593.601,0.297377,
2,1,0,1,0,66199.9,0.295742,0.295387,0.716089,34,0.0151769,10,0.000211523,-3.14503,0.0035144,16.7881,369.411,0.295387,
2,1,0,1,0,66199.9,0.293745,0.293369,0.115467,34,0.0151849,10,3.38745e-05,-3.93754,0.0112741,5.23325,258.678,0.2933687,
2,0,0,1,0,66199.9,0.291747,0.291394,-0.316806,34,0.0151826,10,-9.23153e-05,-3.49921,-0.00528789,-11.1576,192.285,0.291394,
2,0,0,1,0,66199.9,0.289754,0.289428,-0.642363,34,0.015173,10,-0.000185917,-3.19222,-0.00875679,-6.73763,146.089,0.289428,
2,0,0,1,0,66199.9,0.287752,0.287458,-0.89181,34,0.0151575,10,-0.000256358,-3.04973,-0.0173416,-3.40223,112.494,0.287458,
2,0,0,1,0,66200,0.285754,0.285434,-1.09162,34,0.0151377,10,-0.000311585,-2.96193,-0.0272052,-2.1687,89.8619,0.285434,
2,0,0,1,0,66200,0.283757,0.28345,-1.25196,34,0.0151142,10,-0.000354869,-2.90241,-0.0380838,-1.54921,74.738,0.28345,
2,0,0,1,0,66200,0.281759,0.281403,-1.39288,34,0.0150877,10,-0.000391961,-2.85609,-0.0495792,-1.19002,63.8739,0.281403,
2,0,0,1,0,66200,0.279761,0.279464,-1.50655,34,0.0150588,10,-0.000421025,-2.82202,-0.0631307,-0.934569,54.6361,0.279464,
2,0,0,1,0,66200,0.277764,0.277462,-1.60823,34,0.0150277,10,-0.000446221,-2.79365,-0.0784824,-0.751761,46.9256,0.277462,
2,0,0,1,0,66200.1,0.275766,0.275425,-1.69606,34,0.0149946,10,-0.000467139,-2.77056,-0.0955944,-0.617191,40.685,0.275425,
2,0,0,1,0,66200.1,0.273769,0.273421,-1.77261,34,0.0149599,10,-0.000484669,-2.75139,-0.105144,-0.561136,38.807,0.273421,
2,0,0,1,0,66200.1,0.271771,0.271451,-1.85029,34,0.0149238,10,-0.000502263,-2.73276,-0.117518,-0.502049,36.1207,0.271451,
2,0,0,1,0,66200.1,0.269773,0.269444,-1.91628,34,0.0148862,10,-0.00051633,-2.71754,-0.144491,-0.408329,30.4508,0.269444,
2,0,0,1,0,66200.1,0.267776,0.267431,-1.9727,34,0.0148473,10,-0.000527562,-2.70494,-0.163472,-0.360917,27.7682,0.267431,
2,0,0,1,0,66200.2,0.265778,0.265436,-2.02758,34,0.0148074,10,-0.000538191,-2.69302,-0.168545,-0.350055,27.6899,0.265436,
2,0,0,1,0,66200.2,0.263781,0.263485,-2.08198,34,0.0147665,10,-0.00054857,-2.68152,-0.189358,-0.311579,25.2624,0.2634846,
2,0,0,1,0,66200.2,0.261783,0.26145,-2.12826,34,0.0147244,10,-0.000556434,-2.67198,-0.221748,-0.266068,22.073,0.26145,
2,0,0,1,0,66200.2,0.259786,0.259494,-2.17007,34,0.0146815,10,-0.00056312,-2.66353,-0.22248,-0.265192,22.4891,0.259494,
2,0,0,1,0,66200.2,0.257788,0.257449,-2.21824,34,0.0146376,10,-0.000571085,-2.65399,-0.230866,-0.25556,22.0814,0.257449,
2,0,0,1,0,66200.3,0.25579,0.255491,-2.25846,34,0.0145931,10,-0.000577015,-2.64619,-0.270623,-0.218015,19.1993,0.255491,
2,0,0,1,0,66200.3,0.253793,0.253441,-2.29519,34,0.0145476,10,-0.000581695,-2.63918,-0.280079,-0.210655,18.8793,0.253441,
2,0,0,1,0,66200.3,0.251795,0.251448,-2.33479,34,0.0145014,10,-0.000587078,-2.63175,-0.292471,-0.20173,18.3586,0.251448,
2,0,0,1,0,66200.3,0.249798,0.249422,-2.36897,34,0.0144544,10,-0.000590874,-2.62544,-0.321919,-0.183276,16.9414,0.249422,
2,0,0,1,0,66200.3,0.2478,0.247445,-2.40261,34,0.014407,10,-0.000594513,-2.61932,-0.319024,-0.184939,17.345,0.247445,
2,0,0,1,0,66200.4,0.245802,0.245461,-2.43768,34,0.0143586,10,-0.000598355,-2.61302,-0.330354,-0.178596,16.9809,0.245461,
2,0,0,1,0,66200.4,0.243805,0.243463,-2.47022,34,0.0143096,10,-0.000601408,-2.60726,-0.410137,-0.143854,13.8399,0.243463,
2,0,0,1,0,66200.4,0.241807,0.241474,-2.49285,34,0.01426,10,-0.00060196,-2.6033,-0.367375,-0.160599,15.6771,0.241474,
2,0,0,1,0,66200.4,0.23981,0.239486,-2.53257,34,0.0142101,10,-0.000606515,-2.59644,-0.353045,-0.167118,16.4727,0.239486,
2,0,0,1,0,66200.4,0.237812,0.237471,-2.55881,34,0.0141592,10,-0.000607641,-2.59196,-0.438891,-0.13443,13.427,0.237471,
2,0,0,1,0,66200.5,0.235815,0.23549,-2.58622,34,0.0141078,10,-0.00060903,-2.58733,-0.495577,-0.119053,11.9999,0.23549,
2,0,0,1,0,66200.5,0.233817,0.233476,-2.60674,34,0.0140559,10,-0.000608611,-2.5839,-0.433592,-0.136073,13.8808,0.233476,
2,0,0,1,0,66200.5,0.231815,0.231497,-2.64165,34,0.0140035,10,-0.000611534,-2.57812,-0.379058,-0.155649,16.0268,0.231497,
2,0,0,1,0,66200.5,0.229822,0.229511,-2.67028,34,0.0139506,10,-0.00061286,-2.57344,-0.494646,-0.119277,12.4106,0.229511,
2,0,0,1,0,66200.5,0.227824,0.227548,-2.69066,34,0.0138971,10,-0.000612254,-2.57014,-0.509441,-0.115813,12.1785,0.2275482,
2,0,0,1,0,66200.6,0.225827,0.225529,-2.71878,34,0.013843,10,-0.000613164,-2.56563,-0.522809,-0.112852,11.9571,0.225529,
2,0,0,1,0,66200.6,0.223829,0.223483,-2.73927,34,0.0137885,10,-0.000612179,-2.56237,-0.522986,-0.112814,12.077,0.223483,
2,0,0,1,0,66200.6,0.221831,0.221499,-2.76745,34,0.0137336,10,-0.000612988,-2.55792,-0.472718,-0.12481,13.4719,0.221499,
2,0,0,1,0,66200.6,0.219834,0.219535,-2.79245,34,0.0136781,10,-0.000613041,-2.55402,-0.488678,-0.120734,13.163,0.219535,
2,0,0,1,0,66200.6,0.217836,0.217515,-2.81989,34,0.013622,10,-0.000613369,-2.54977,-0.58531,-0.100801,11.0716,0.2175152,
2,0,0,1,0,66200.7,0.215839,0.215567,-2.83638,34,0.0135655,10,-0.000611431,-2.54723,-0.522834,-0.112847,12.5283,0.215567,
2,0,0,1,0,66200.7,0.213841,0.213539,-2.86971,34,0.0135086,10,-0.000612794,-2.54216,-0.499352,-0.118153,13.2038,0.2135389,
2,0,0,1,0,66200.7,0.211844,0.211453,-2.8907,34,0.0134511,10,-0.000611248,-2.539,-0.710607,-0.0830277,9.35925,0.211453,
2,0,0,1,0,66200.7,0.209846,0.20954,-2.90714,34,0.0133931,10,-0.000609161,-2.53653,-0.602679,-0.0978963,11.1278,0.20954,
2,0,0,1,0,66200.7,0.207848,0.20751,-2.93458,34,0.0133347,10,-0.000608955,-2.53245,-0.446662,-0.132091,15.1431,0.20751,
2,0,0,1,0,66200.8,0.205851,0.205516,-2.96807,34,0.0132759,10,-0.000609985,-2.52753,-0.51382,-0.114826,13.2688,0.205516,
2,0,0,1,0,66200.8,0.203853,0.203527,-2.98743,34,0.0132164,10,-0.000608023,-2.5247,-0.7469,-0.0789931,9.20696,0.203527,
2,0,0,1,0,66200.8,0.201856,0.201504,-3.00501,34,0.0131565,10,-0.00060552,-2.52215,-0.602872,-0.0978649,11.4973,0.201504,
2,0,0,1,0,66200.8,0.199858,0.199542,-3.03324,34,0.0130961,10,-0.00060526,-2.51809,-0.473283,-0.124661,14.7628,0.1995423,
2,0,0,1,0,66200.8,0.19786,0.197507,-3.06401,34,0.0130355,10,-0.000605164,-2.51371,-0.587019,-0.100508,11.992,0.197507,
2,0,0,1,0,66200.9,0.195863,0.195532,-3.08133,34,0.0129741,10,-0.0006025,-2.51126,-0.607801,-0.0970713,11.6961,0.195532,
2,0,0,1,0,66200.9,0.193865,0.193504,-3.11083,34,0.0129122,10,-0.000601958,-2.50712,-0.542825,-0.108691,13.1828,0.193504,
2,0,0,1,0,66200.9,0.191868,0.191507,-3.13439,34,0.0128498,10,-0.000600259,-2.50385,-0.50572,-0.116665,14.2925,0.191507,
2,0,0,1,0,66200.9,0.18987,0.189539,-3.1675,34,0.0127872,10,-0.000600365,-2.49928,-0.557617,-0.105807,13.0489,0.189539,
2,0,0,1,0,66200.9,0.187872,0.187563,-3.18586,34,0.0127238,10,-0.000597549,-2.49677,-0.629369,-0.0937447,11.6742,0.187563,
2,0,0,1,0,66201,0.185875,0.185514,-3.21448,34,0.0126599,10,-0.000596333,-2.49289,-0.589577,-0.100072,12.5406,0.185514,
2,0,0,1,0,66201,0.183877,0.183539,-3.23632,34,0.0125954,10,-0.000593992,-2.48995,-0.508462,-0.116036,14.6896,0.1835389,
2,0,0,1,0,66201,0.18188,0.181512,-3.27328,34,0.0125307,10,-0.000594139,-2.48502,-0.460877,-0.128017,16.3317,0.181512,
2,0,0,1,0,66201,0.179882,0.179538,-3.30166,34,0.012465,10,-0.000592775,-2.48127,-0.588359,-0.100279,12.9098,0.179538,
2,0,0,1,0,66201,0.177885,0.177559,-3.32431,34,0.0123988,10,-0.000590261,-2.4783,-0.570568,-0.103406,13.4317,0.177559,
2,0,0,1,0,66201.1,0.175887,0.175561,-3.35509,34,0.012332,10,-0.000589021,-2.4743,-0.457998,-0.128822,16.8831,0.175561,
2,0,0,1,0,66201.1,0.173896,0.173537,-3.39221,34,0.0122649,10,-0.000588675,-2.46952,-0.435228,-0.135561,17.9394,0.173537,
2,0,0,1,0,66201.1,0.171892,0.171559,-3.42687,34,0.0121967,10,-0.000587911,-2.4651,-0.463822,-0.127204,17.0059,0.171559,
2,0,0,1,0,66201.1,0.169894,0.169598,-3.4592,34,0.0121279,10,-0.000586673,-2.46102,-0.446154,-0.132241,17.8702,0.169598,
2,0,0,1,0,66201.1,0.167897,0.167549,-3.49854,34,0.0120584,10,-0.000586176,-2.45611,-0.404182,-0.145974,19.9364,0.167549,
2,0,0,1,0,66201.2,0.165899,0.165537,-3.54015,34,0.011988,10,-0.000586028,-2.45098,-0.390156,-0.151221,20.8914,0.165537,
2,0,0,1,0,66201.2,0.163901,0.163573,-3.58159,34,0.0119172,10,-0.000585853,-2.44592,-0.358993,-0.164349,22.9976,0.163573,
2,0,0,1,0,66201.2,0.161904,0.161575,-3.63128,34,0.0118451,10,-0.000586724,-2.43994,-0.353469,-0.166917,23.6394,0.161575,
2,0,0,1,0,66201.2,0.159906,0.159555,-3.67658,34,0.0117721,10,-0.000586617,-2.43456,-0.336722,-0.175219,25.1718,0.159555,
2,0,0,1,0,66201.2,0.157909,0.157604,-3.73125,34,0.011698,10,-0.000588058,-2.42815,-0.282058,-0.209177,30.5028,0.157604,
2,0,0,1,0,66201.3,0.155911,0.155607,-3.797,34,0.0116231,10,-0.000590841,-2.42056,-0.27193,-0.216968,32.1382,0.155607,
2,0,0,1,0,66201.3,0.153913,0.153586,-3.86037,34,0.0115466,10,-0.000592898,-2.41337,-0.275738,-0.213972,32.2479,0.153586,
2,0,0,1,0,66201.3,0.151916,0.15157,-3.92719,34,0.0114687,10,-0.000595244,-2.40592,-0.24311,-0.242688,37.2632,0.15157,
2,0,0,1,0,66201.3,0.149918,0.149593,-4.00915,34,0.0113894,10,-0.000599741,-2.39695,-0.20994,-0.281032,44.0265,0.149593,
2,0,0,1,0,66201.3,0.147921,0.14759,-4.10241,34,0.0113087,10,-0.000605476,-2.38696,-0.199849,-0.295223,47.2722,0.14759,
2,0,0,1,0,66201.4,0.145923,0.145596,-4.19812,34,0.0112257,10,-0.000611228,-2.37694,-0.183683,-0.321206,52.7412,0.145596,
2,0,0,1,0,66201.4,0.143926,0.14358,-4.31393,34,0.0111406,10,-0.000619393,-2.36513,-0.160486,-0.367634,62.0159,0.14358,
2,0,0,1,0,66201.4,0.141928,0.141549,-4.44907,34,0.011053,10,-0.000629762,-2.35173,-0.14374,-0.410462,71.36,0.141549,
2,0,0,1,0,66201.4,0.13993,0.139592,-4.59849,34,0.010963,10,-0.000641913,-2.33738,-0.137368,-0.429503,77.0797,0.139592,
2,0,0,1,0,66201.4,0.137933,0.13763,-4.75111,34,0.0108696,10,-0.000653898,-2.3232,-0.130338,-0.452668,84.1497,0.13763,
2,0,0,1,0,66201.5,0.135935,0.135628,-4.93203,34,0.0107729,10,-0.000668923,-2.30697,-0.119194,-0.494992,95.4092,0.135628,
2,0,0,1,0,66201.5,0.133938,0.133643,-5.13152,34,0.0106722,10,-0.000685793,-2.28975,-0.115809,-0.509461,102.073,0.133643,
2,0,0,1,0,66201.5,0.13194,0.131623,-5.34089,34,0.0105681,10,-0.000702983,-2.27239,-0.114418,-0.515655,107.569,0.131623,
2,0,0,1,0,66201.5,0.129942,0.129616,-5.56477,34,0.0104591,10,-0.000721281,-2.25455,-0.115367,-0.51141,110.996,0.129616,
2,0,0,1,0,66201.5,0.127945,0.127597,-5.78769,34,0.0103456,10,-0.000738495,-2.23749,-0.118327,-0.49862,112.601,0.127597,
2,0,0,1,0,66201.6,0.125947,0.125628,-6.01382,34,0.0102276,10,-0.000755502,-2.22085,-0.116886,-0.504767,118.552,0.125628,
2,0,0,1,0,66201.6,0.12395,0.123661,-6.2544,34,0.0101057,10,-0.000773424,-2.20381,-0.124012,-0.475762,115.911,0.123661,
2,0,0,1,0,66201.6,0.121952,0.12163,-6.47724,34,0.00997839,10,-0.000787824,-2.18861,-0.137561,-0.428901,108.32,0.12163,
2,0,0,1,0,66201.6,0.119955,0.119611,-6.69305,34,0.00984668,10,-0.000800563,-2.17438,-0.142597,-0.413753,108.052,0.119611,
2,0,0,1,0,66201.6,0.117957,0.11762,-6.91054,34,0.00971064,10,-0.000812814,-2.16049,-0.146873,-0.401707,108.294,0.11762,
2,0,0,1,0,66201.7,0.115955,0.115606,-7.12675,34,0.00957024,10,-0.000823897,-2.14711,-0.1599,-0.36898,102.45,0.115606,
2,0,0,1,0,66201.7,0.113962,0.113599,-7.32248,34,0.00942638,10,-0.000831824,-2.13534,-0.172363,-0.3423,97.7683,0.113599,
2,0,0,1,0,66201.7,0.111964,0.111647,-7.51383,34,0.00927799,10,-0.000838898,-2.12414,-0.179373,-0.328923,96.4236,0.111647,
2,0,0,1,0,66201.7,0.109967,0.109645,-7.7037,34,0.00912581,10,-0.000844672,-2.1133,-0.198684,-0.296954,89.1328,0.109645,
2,0,0,1,0,66201.7,0.107969,0.10764,-7.871,34,0.00897006,10,-0.000847234,-2.10397,-0.217594,-0.271147,83.2598,0.10764,
2,0,0,1,0,66201.8,0.105971,0.10567,-8.03469,34,0.00881178,10,-0.000849023,-2.09503,-0.234632,-0.251458,78.769,0.10567,
2,0,0,1,0,66201.8,0.103974,0.103666,-8.18404,34,0.00864956,10,-0.000848405,-2.08703,-0.263797,-0.223657,71.381,0.103666,
2,0,0,1,0,66201.8,0.101976,0.101637,-8.32258,34,0.00848446,10,-0.000845878,-2.07974,-0.307108,-0.192115,62.2934,0.101637,
2,0,0,1,0,66201.8,0.0999786,0.0996527,-8.43403,34,0.00831697,10,-0.000840474,-2.07396,-0.355185,-0.166111,54.6561,0.0996527,
2,0,0,1,0,66201.8,0.0979811,0.0976532,-8.54029,34,0.00814806,10,-0.000833987,-2.06853,-0.416372,-0.1417,47.1565,0.0976532,
2,0,0,1,0,66201.9,0.0959835,0.0956864,-8.62107,34,0.0079764,10,-0.000824919,-2.06444,-0.540811,-0.109095,36.6749,0.0956864,
2,0,0,1,0,66201.9,0.0939859,0.0936283,-8.68791,34,0.0078033,10,-0.000813433,-2.06108,-0.703324,-0.0838873,28.4111,0.0936283,
2,0,0,1,0,66201.9,0.0919883,0.0916573,-8.73554,34,0.0076291,10,-0.000800676,-2.05871,-0.927209,-0.0636318,21.6812,0.0916573,
2,0,0,1,0,66201.9,0.0899907,0.0896809,-8.77349,34,0.00745489,10,-0.000786814,-2.05683,-1.81016,-0.0325937,11.1402,0.08968091,
2,0,0,1,0,66201.9,0.0879931,0.0876642,-8.78002,34,0.00727936,10,-0.000769693,-2.0565,-13.2724,-0.00444531,1.52262,0.0876642,
2,0,0,1,0,66202,0.0859955,0.085637,-8.77965,34,0.00710379,10,-0.000751863,-2.05652,5.2195,0.0113038,-3.86991,0.085637,
2,0,0,1,0,66202,0.083998,0.0836749,-8.76458,34,0.00692839,10,-0.000733376,-2.05727,1.9479,0.0302891,-10.3539,0.0836749,
2,0,0,1,0,66202,0.0820004,0.0816501,-8.73837,34,0.00675425,10,-0.000713489,-2.05857,1.25074,0.0471721,-16.076,0.0816501,
2,0,0,1,0,66202,0.0800028,0.0796663,-8.70014,34,0.00657988,10,-0.000693108,-2.06047,1.11431,0.0529476,-17.9827,0.0796663,
2,0,0,1,0,66202,0.0780052,0.0776696,-8.66679,34,0.00640625,10,-0.000673146,-2.06214,0.966892,0.0610203,-20.6199,0.0776696,
2,0,0,1,0,66202.1,0.0760076,0.0756463,-8.61725,34,0.00623348,10,-0.000651864,-2.06463,0.925505,0.063749,-21.4559,0.0756463,
2,0,0,1,0,66202.1,0.07401,0.0736896,-8.58139,34,0.00606249,10,-0.00063236,-2.06644,0.924994,0.0637842,-21.3448,0.0736896,
2,0,0,1,0,66202.1,0.0720124,0.0716577,-8.53211,34,0.00589145,10,-0.000611392,-2.06894,0.824672,0.0715436,-23.8264,0.0716577,
2,0,0,1,0,66202.1,0.0700148,0.0696731,-8.48569,34,0.00572136,10,-0.000591224,-2.07131,0.813008,0.07257,-24.0298,0.0696731,
2,0,0,1,0,66202.1,0.0680173,0.0677079,-8.4372,34,0.0055522,10,-0.000571266,-2.0738,1.09068,0.0540948,-17.8391,0.0677079,
2,0,0,1,0,66202.2,0.0660106,0.0656725,-8.41433,34,0.00538383,10,-0.00055259,-2.07498,1.14087,0.0517148,-16.96,0.0656725,
2,0,0,1,0,66202.2,0.0640221,0.0637081,-8.36936,34,0.00521692,10,-0.000533196,-2.07731,0.900799,0.0654974,-21.3998,0.0637081,
2,0,0,1,0,66202.2,0.0620245,0.0617114,-8.32956,34,0.00505,10,-0.000514028,-2.07938,1.01881,0.0579107,-18.8304,0.06171136,
2,0,0,1,0,66202.2,0.0600269,0.059718,-8.29423,34,0.00488383,10,-0.000495315,-2.08122,1.20131,0.0491129,-15.9035,0.059718,
2,0,0,1,0,66202.2,0.0580361,0.057655,-8.26505,34,0.00471917,10,-0.000476521,-2.08275,1.07216,0.055029,-17.7361,0.057655,
2,0,0,1,0,66202.3,0.0560317,0.0556955,-8.22289,34,0.00455432,10,-0.000457978,-2.08498,1.01777,0.0579696,-18.6153,0.0556955,
2,0,0,1,0,66202.3,0.0540342,0.0537048,-8.19151,34,0.00439023,10,-0.000439923,-2.08664,1.10591,0.0533498,-17.0488,0.0537048,
2,0,0,1,0,66202.3,0.0520366,0.0516503,-8.15392,34,0.00422681,10,-0.000421153,-2.08863,0.918924,0.0642055,-20.4243,0.0516503,
2,0,0,1,0,66202.3,0.050039,0.0497463,-8.11066,34,0.00406421,10,-0.000403476,-2.09094,0.966977,0.0610149,-19.3253,0.0497463,
2,0,0,1,0,66202.3,0.0480414,0.0477042,-8.07766,34,0.00390314,10,-0.000385338,-2.09271,0.967992,0.0609509,-19.2012,0.0477042,
2,0,0,1,0,66202.4,0.0460438,0.0457311,-8.03357,34,0.00374207,10,-0.000367384,-2.09509,0.834206,0.070726,-22.1734,0.0457311,
2,0,0,1,0,66202.4,0.0440462,0.0437046,-7.98898,34,0.0035819,10,-0.000349155,-2.09751,0.863493,0.0683271,-21.3093,0.0437046,
2,0,0,1,0,66202.4,0.0420486,0.0417614,-7.94897,34,0.00342264,10,-0.00033196,-2.09969,0.881952,0.0668971,-20.7484,0.04176138,
2,0,0,1,0,66202.4,0.040051,0.0396852,-7.90558,34,0.00326495,10,-0.000313734,-2.10207,0.787103,0.0749584,-23.1167,0.0396852,
2,0,0,1,0,66202.4,0.0380535,0.0377118,-7.85536,34,0.00310739,10,-0.00029624,-2.10483,0.6787,0.086931,-26.6411,0.0377118,
2,0,0,1,0,66202.5,0.0360559,0.0357172,-7.79987,34,0.00295092,10,-0.000278589,-2.10791,0.685795,0.0860315,-26.1985,0.0357172,
2,0,0,1,0,66202.5,0.0340583,0.0337143,-7.75063,34,0.00279549,10,-0.000261307,-2.11066,0.697118,0.0846341,-25.5939,0.0337143,
2,0,0,1,0,66202.5,0.0320607,0.0317248,-7.69769,34,0.00264178,10,-0.000244207,-2.11364,0.5945,0.099243,-29.7897,0.03172477,
2,0,0,1,0,66202.5,0.0300631,0.0297434,-7.63234,34,0.00248853,10,-0.000227012,-2.11734,0.567162,0.104027,-31.0007,0.0297434,
2,0,0,1,0,66202.5,0.0280655,0.0277521,-7.57453,34,0.00233649,10,-0.000210209,-2.12064,0.605646,0.0974167,-28.7955,0.02775212,
2,0,0,1,0,66202.6,0.0260679,0.025704,-7.51602,34,0.00218561,10,-0.000193192,-2.12401,0.549782,0.107315,-31.4586,0.025704,
2,0,0,1,0,66202.6,0.0240704,0.0237416,-7.44837,34,0.00203673,10,-0.000176836,-2.12794,0.518478,0.113795,-33.0846,0.0237416,
2,0,0,1,0,66202.6,0.0220728,0.0217079,-7.38382,34,0.00188842,10,-0.000160288,-2.13172,0.514655,0.11464,-33.026,0.0217079,
2,0,0,1,0,66202.6,0.0200752,0.0197168,-7.31544,34,0.00174145,10,-0.000144237,-2.13576,0.477043,0.123679,-35.3037,0.0197168,
2,0,0,1,0,66202.6,0.0180776,0.0177721,-7.24487,34,0.00159587,10,-0.000128756,-2.13997,0.499539,0.118109,-33.4139,0.0177721,
2,0,0,1,0,66202.7,0.01608,0.0157549,-7.18306,34,0.00145238,10,-0.000113168,-2.14369,0.526144,0.112137,-31.4288,0.0157549,
2,0,0,1,0,66202.7,0.0140824,0.0137532,-7.11856,34,0.00130942,10,-9.79032e-05,-2.14761,0.48377,0.121959,-33.869,0.0137532,
2,0,0,1,0,66202.7,0.0120848,0.0117976,-7.04903,34,0.00116778,10,-8.31617e-05,-2.15187,0.478479,0.123307,-33.9273,0.0117976,
2,0,0,1,0,66202.7,0.0100873,0.00973245,-6.98214,34,0.00102755,10,-6.79534e-05,-2.15601,0.533721,0.110545,-30.1494,0.00973245,
2,0,0,1,0,66202.7,0.00809193,0.00778679,-6.92811,34,0.000889206,10,-5.39477e-05,-2.15939,0.563698,0.104666,-28.2884,0.00778679,
2,0,0,1,0,66202.8,0.00609208,0.00572536,-6.86879,34,0.000751277,10,-3.93263e-05,-2.16312,0.540621,0.109134,-29.2562,0.00572536,
2,0,0,1,0,66202.8,0.00409449,0.00375893,-6.81027,34,0.000614572,10,-2.55993e-05,-2.16684,0.867989,0.0679732,-18.1254,0.00375893,
2,0,0,1,0,66202.8,0.0020969,0.00173697,-6.7965,34,0.000478854,10,-1.18053e-05,-2.16771,0.812113,0.07265,-19.1994,0.00173697,
2,0,0,1,0,66202.8,9.14991e-05,-0.000264157,-6.73303,34,0.000343681,10,1.77858e-06,-2.17179,0.560073,0.105343,-27.7122,-0.0002641574,
2,0,0,1,0,66202.8,-0.00189827,-0.00228426,-6.68506,34,0.00021019,10,1.52704e-05,-2.17489,0.683769,0.0862865,-22.5219,-0.00228426,
2,0,0,1,0,66202.9,-0.00389586,-0.00425067,-6.64324,34,7.69443e-05,10,2.82383e-05,-2.17762,0.753346,0.0783173,-20.3093,-0.00425067,
2,0,0,1,0,66202.9,-0.00589345,-0.00625443,-6.60443,34,-5.55045e-05,10,4.13069e-05,-2.18016,0.84356,0.0699417,-18.0346,-0.00625443,
2,0,0,1,0,66202.9,-0.00789103,-0.00825735,-6.57098,34,-0.000187236,10,5.42589e-05,-2.18237,1.13697,0.0518923,-13.3217,-0.00825735,
2,0,0,1,0,66202.9,-0.00988862,-0.010216,-6.55166,34,-0.000317807,10,6.69319e-05,-2.18365,1.54728,0.0381314,-9.74936,-0.010216,
2,0,0,1,0,66202.9,-0.0118862,-0.0122822,-6.53174,34,-0.000448638,10,8.02244e-05,-2.18497,1.31783,0.0447707,-11.4075,-0.0122822,
2,0,0,1,0,66203,-0.0138838,-0.0142196,-6.50598,34,-0.000579032,10,9.25125e-05,-2.18669,1.67019,0.0353253,-8.98047,-0.0142196,
2,0,0,1,0,66203,-0.0158814,-0.0162251,-6.49634,34,-0.000709065,10,0.000105403,-2.18733,10.4949,0.00562179,-1.42679,-0.0162251,
2,0,0,1,0,66203,-0.017879,-0.0182222,-6.50027,34,-0.000838356,10,0.000118449,-2.18707,12.8624,0.00458703,-1.16254,-0.0182222,
2,0,0,1,0,66203,-0.0198766,-0.0201994,-6.49171,34,-0.000968217,10,0.000131129,-2.18764,7.10583,0.00830304,-2.10496,-0.0201994,
2,0,0,1,0,66203,-0.0218741,-0.0223181,-6.49165,34,-0.00109793,10,0.000144881,-2.18764,-13.8213,-0.00426878,1.08187,-0.0223181,
2,0,0,1,0,66203.1,-0.0238717,-0.0242828,-6.49613,34,-0.00122776,10,0.000157744,-2.18735,-3.21604,-0.0183455,4.65439,-0.0242828,
2,0,0,1,0,66203.1,-0.0258693,-0.0262685,-6.51004,34,-0.00135714,10,0.000171009,-2.18642,-2.64741,-0.0222859,5.65962,-0.0262685,
2,0,0,1,0,66203.1,-0.0278669,-0.0281906,-6.51825,34,-0.00148733,10,0.000183754,-2.18587,-2.51361,-0.0234722,5.97438,-0.0281906,
2,0,0,1,0,66203.1,-0.0298645,-0.0302486,-6.53382,34,-0.00161775,10,0.000197639,-2.18483,-1.8133,-0.0325374,8.29832,-0.03024861,
2,0,0,1,0,66203.1,-0.0318621,-0.0322224,-6.55171,34,-0.00174854,10,0.000211112,-2.18365,-1.45644,-0.0405097,10.3628,-0.0322224,
2,0,0,1,0,66203.2,-0.0338597,-0.0342821,-6.57562,34,-0.00187909,10,0.000225426,-2.18206,-1.22886,-0.0480119,12.3224,-0.0342821,
2,0,0,1,0,66203.2,-0.0358573,-0.0362207,-6.60097,34,-0.00201078,10,0.000239092,-2.18039,-1.11724,-0.0528085,13.6076,-0.0362207,
2,0,0,1,0,66203.2,-0.0378548,-0.038251,-6.62962,34,-0.00214304,10,0.00025359,-2.17851,-1.17952,-0.0500205,12.9366,-0.038251,
2,0,0,1,0,66203.2,-0.0398524,-0.0402303,-6.65285,34,-0.00227581,10,0.000267646,-2.17699,-0.918447,-0.0642389,16.704,-0.0402303,
2,0,0,1,0,66203.2,-0.04185,-0.0422324,-6.69613,34,-0.00240855,10,0.000282794,-2.17418,-0.812618,-0.0726048,18.9587,-0.0422324,
2,0,0,1,0,66203.3,-0.0438476,-0.0442453,-6.72896,34,-0.00254273,10,0.000297725,-2.17205,-0.994178,-0.0593455,15.5802,-0.0442453,
2,0,0,1,0,66203.3,-0.0458452,-0.0462039,-6.758,34,-0.00267759,10,0.000312246,-2.17018,-0.912928,-0.0646272,17.0572,-0.0462039,
2,0,0,1,0,66203.3,-0.0478428,-0.0482232,-6.79682,34,-0.00281313,10,0.000327764,-2.16769,-0.658781,-0.0895594,23.7872,-0.0482232,
2,0,0,1,0,66203.3,-0.0498495,-0.0502183,-6.8535,34,-0.00294958,10,0.000344171,-2.16409,-0.647869,-0.0910678,24.3287,-0.0502183,
2,0,0,1,0,66203.3,-0.051838,-0.0522163,-6.89396,34,-0.0030863,10,0.000359977,-2.16153,-0.811717,-0.0726854,19.5518,-0.0522163,
2,0,0,1,0,66203.4,-0.0538355,-0.054213,-6.9316,34,-0.00322453,10,0.000375783,-2.15917,-0.704264,-0.0837754,22.6872,-0.054213,
2,0,0,1,0,66203.4,-0.0558331,-0.0561997,-6.98434,34,-0.00336369,10,0.000392518,-2.15587,-0.604449,-0.0976095,26.6055,-0.0561997,
2,0,0,1,0,66203.4,-0.0578216,-0.0581764,-7.03705,34,-0.00350317,10,0.00040939,-2.15261,-0.597684,-0.0987144,27.1171,-0.0581764,
2,0,0,1,0,66203.4,-0.0598283,-0.0602274,-7.09356,34,-0.00364445,10,0.000427227,-2.14914,-0.570195,-0.103473,28.6509,-0.0602274,
2,0,0,1,0,66203.4,-0.0618259,-0.0622255,-7.15306,34,-0.00378682,10,0.000445103,-2.14551,-0.579925,-0.101737,28.3903,-0.0622255,
2,0,0,1,0,66203.5,-0.0638235,-0.0642371,-7.20739,34,-0.00393037,10,0.000462982,-2.14222,-0.591538,-0.09974,28.0595,-0.0642371,
2,0,0,1,0,66203.5,-0.0658211,-0.0661905,-7.26431,34,-0.00407504,10,0.000480828,-2.13881,-0.530581,-0.111199,31.55,-0.0661905,
2,0,0,1,0,66203.5,-0.0678187,-0.0682185,-7.33301,34,-0.0042203,10,0.000500247,-2.13472,-0.496795,-0.118761,33.9851,-0.0682185,
2,0,0,1,0,66203.5,-0.0698163,-0.0702144,-7.40107,34,-0.00436755,10,0.000519662,-2.13071,-0.531509,-0.111005,32.0475,-0.0702144,
2,0,0,1,0,66203.5,-0.0718138,-0.0722588,-7.46249,34,-0.00451613,10,0.00053923,-2.12712,-0.507214,-0.116322,33.9027,-0.0722588,
2,0,0,1,0,66203.6,-0.0738114,-0.0741808,-7.53554,34,-0.00466606,10,0.000558993,-2.12289,-0.448919,-0.131427,38.66,-0.0741808,
2,0,0,1,0,66203.6,-0.075809,-0.0761406,-7.61256,34,-0.00481678,10,0.000579625,-2.11847,-0.475093,-0.124186,36.8787,-0.0761406,
2,0,0,1,0,66203.6,-0.0778066,-0.0781873,-7.68329,34,-0.00496975,10,0.000600736,-2.11445,-0.465102,-0.126854,38.0621,-0.0781873,
2,0,0,1,0,66203.6,-0.0798042,-0.0801281,-7.76433,34,-0.00512421,10,0.000622141,-2.1099,-0.439068,-0.134376,40.719,-0.0801281,
2,0,0,1,0,66203.6,-0.0818018,-0.0821896,-7.84626,34,-0.00528028,10,0.000644881,-2.10534,-0.435473,-0.135485,41.5,-0.0821896,
2,0,0,1,0,66203.7,-0.0837994,-0.0842046,-7.9335,34,-0.0054373,10,0.000668037,-2.10054,-0.409723,-0.144,44.5872,-0.0842046,
2,0,0,1,0,66203.7,-0.0857969,-0.0861332,-8.0221,34,-0.00559676,10,0.000690969,-2.09571,-0.414287,-0.142413,44.5775,-0.0861332,
2,0,0,1,0,66203.7,-0.0877945,-0.0881216,-8.10811,34,-0.00575801,10,0.0007145,-2.09108,-0.425228,-0.138749,43.9142,-0.08812163,
2,0,0,1,0,66203.7,-0.0897921,-0.0901432,-8.1982,34,-0.00592107,10,0.000739012,-2.08628,-0.411927,-0.143229,45.8397,-0.0901432,
2,0,0,1,0,66203.7,-0.0917897,-0.0921727,-8.29381,34,-0.00608509,10,0.000764463,-2.08125,-0.412123,-0.143161,46.3234,-0.0921727,
2,0,0,1,0,66203.8,-0.0937873,-0.0941686,-8.38466,34,-0.00625181,10,0.000789572,-2.07651,-0.418252,-0.141063,46.1619,-0.0941686,
2,0,0,1,0,66203.8,-0.0957849,-0.0961407,-8.47698,34,-0.00642039,10,0.000814983,-2.07176,-0.421706,-0.139908,46.2816,-0.0961407,
2,0,0,1,0,66203.8,-0.0977825,-0.0981401,-8.56847,34,-0.00659079,10,0.00084091,-2.0671,-0.418492,-0.140982,47.1572,-0.0981401,
2,0,0,1,0,66203.8,-0.0997501,-0.100132,-8.66523,34,-0.00675959,10,0.00086767,-2.06222,0.0111424,5.29509,-1603.95,-0.100132,
2,0,0,1,1,66203.8,-0.0987313,-0.0991135,-7.00712,34,-0.00687894,10,0.0006945,-2.15446,-0.0151106,-3.90454,1053.95,-0.0991135,
2,0,0,1,1,66203.9,-0.0967337,-0.0970538,-5.42048,34,-0.00700208,10,0.000526078,-2.26596,-0.0181213,-3.25584,697.587,-0.0970538,
2,0,0,1,1,66203.9,-0.0947362,-0.095103,-4.20945,34,-0.00709777,10,0.000400331,-2.37577,-0.0173213,-3.40622,559.738,-0.095103,
2,0,0,1,1,66203.9,-0.0927386,-0.0930793,-3.19581,34,-0.00717139,10,0.000297463,-2.49542,-0.0156649,-3.76638,467.946,-0.0930793,
2,0,0,1,1,66203.9,-0.090741,-0.0911071,-2.3396,34,-0.00722619,10,0.000213154,-2.63086,-0.0131791,-4.47679,402.654,-0.0911071,
2,0,0,1,1,66203.9,-0.0887434,-0.0891084,-1.59688,34,-0.00726529,10,0.000142296,-2.79673,-0.0101123,-5.83448,348.796,-0.0891084,
2,0,0,1,1,66204,-0.0867458,-0.0870818,-0.935569,34,-0.00729037,10,8.1471e-05,-3.02892,-0.00607807,-9.70703,311.053,-0.0870818,
2,0,0,1,1,66204,-0.0847482,-0.0850984,-0.349562,34,-0.00730298,10,2.97471e-05,-3.45648,-0.00538928,-10.9477,278.418,-0.0850984,
2,1,0,1,1,66204,-0.0827529,-0.0831066,0.171187,34,-0.00730461,10,-1.42268e-05,-3.76653,0.015015,3.9294,249.485,-0.0831066,
2,1,0,1,1,66204,-0.080753,-0.0811172,0.643679,34,-0.00729629,10,-5.22134e-05,-3.19133,0.00501699,11.76,224.146,-0.0811172,
2,1,0,1,1,66204,-0.0787555,-0.0791278,1.06303,34,-0.00727903,10,-8.41149e-05,-2.97346,0.0112209,5.25805,203.843,-0.0791278,
2,1,0,1,1,66204.1,-0.0767579,-0.0771553,1.45129,34,-0.00725375,10,-0.000111975,-2.83825,0.0173389,3.40275,185.867,-0.0771553,
2,1,0,1,1,66204.1,-0.0747603,-0.0751589,1.80071,34,-0.00722116,10,-0.000135339,-2.74456,0.0242939,2.42859,167.532,-0.0751589,
2,1,0,1,1,66204.1,-0.0727627,-0.0731231,2.1268,34,-0.00718189,10,-0.000155518,-2.67227,0.0314393,1.87663,153.168,-0.0731231,
2,1,0,1,1,66204.1,-0.0707651,-0.07117,2.41168,34,-0.00713636,10,-0.000171639,-2.61768,0.0394359,1.4961,139.779,-0.07117001,
2,1,0,1,1,66204.1,-0.0687675,-0.0691468,2.68262,34,-0.00708528,10,-0.000185494,-2.57144,0.047908,1.23153,127.875,-0.0691468,
2,1,0,1,1,66204.2,-0.0667699,-0.0671476,2.92605,34,-0.00702906,10,-0.000196477,-2.53372,0.05685,1.03782,117.913,-0.06714756,
2,1,0,1,1,66204.2,-0.0647723,-0.0651619,3.15248,34,-0.00696838,10,-0.000205422,-2.50135,0.066548,0.886579,108.577,-0.0651619,
2,1,0,1,1,66204.2,-0.0627747,-0.0631508,3.36,34,-0.0069032,10,-0.000212187,-2.47366,0.0776218,0.760096,99.2705,-0.0631508,
2,1,0,1,1,66204.2,-0.0607772,-0.0611749,3.54828,34,-0.00683402,10,-0.000217065,-2.44998,0.0899885,0.655639,90.5465,-0.0611749,
2,1,0,1,1,66204.2,-0.0587796,-0.0591351,3.72361,34,-0.0067612,10,-0.000220196,-2.42904,0.103937,0.567651,82.2237,-0.0591351,
2,1,0,1,1,66204.3,-0.056782,-0.0571441,3.8797,34,-0.00668546,10,-0.000221702,-2.4112,0.11859,0.497511,75.1614,-0.0571441,
2,1,0,1,1,66204.3,-0.0547844,-0.0551607,4.02233,34,-0.00660632,10,-0.000221875,-2.39552,0.134955,0.437182,68.5145,-0.05516072,
2,1,0,1,1,66204.3,-0.0527868,-0.0531296,4.15475,34,-0.00652444,10,-0.00022074,-2.38145,0.154797,0.381145,61.6723,-0.05312958,
2,1,0,1,1,66204.3,-0.0507892,-0.0511076,4.2723,34,-0.0064401,10,-0.000218347,-2.36934,0.164398,0.358885,59.8455,-0.0511076,
2,1,0,1,1,66204.3,-0.0487916,-0.0491472,4.39308,34,-0.00635383,10,-0.000215908,-2.35723,0.187974,0.313873,53.6309,-0.04914723,
2,1,0,1,1,66204.4,-0.046794,-0.0471253,4.48588,34,-0.00626496,10,-0.000211398,-2.34815,0.226464,0.260527,45.5774,-0.0471253,
2,1,0,1,1,66204.4,-0.0447965,-0.0451905,4.57342,34,-0.0061743,10,-0.000206675,-2.33976,0.244317,0.24149,43.0741,-0.0451905,
2,1,0,1,1,66204.4,-0.0427989,-0.0431764,4.65597,34,-0.00608192,10,-0.000201028,-2.33199,0.258701,0.228063,41.4458,-0.0431764,
2,1,0,1,1,66204.4,-0.0408013,-0.0411552,4.74066,34,-0.00598841,10,-0.000195103,-2.32416,0.307566,0.191829,35.3778,-0.0411552,
2,1,0,1,1,66204.4,-0.0388037,-0.0392228,4.79584,34,-0.005893,10,-0.000188106,-2.31914,0.374743,0.157441,29.4875,-0.0392228,
2,1,0,1,1,66204.5,-0.0368061,-0.037178,4.85794,34,-0.0057964,10,-0.000180608,-2.31355,0.392224,0.150424,28.4928,-0.037178,
2,1,0,1,1,66204.5,-0.0348085,-0.0351601,4.9116,34,-0.0056986,10,-0.000172692,-2.30878,0.419097,0.140779,26.9854,-0.0351601,
2,1,0,1,1,66204.5,-0.0328109,-0.0331833,4.96574,34,-0.0056003,10,-0.00016478,-2.30402,0.503959,0.117073,22.6458,-0.0331833,
2,1,0,1,1,66204.5,-0.0308134,-0.0311891,5.00152,34,-0.00550061,10,-0.000155993,-2.3009,0.606062,0.0973498,19.0102,-0.0311891,
2,1,0,1,1,66204.5,-0.0288158,-0.0291836,5.04177,34,-0.00540017,10,-0.000147137,-2.29742,0.686227,0.0859774,16.8956,-0.0291836,
2,1,0,1,1,66204.6,-0.0268182,-0.0271816,5.06923,34,-0.00529905,10,-0.00013779,-2.29506,0.806285,0.0731751,14.4809,-0.0271816,
2,1,0,1,1,66204.6,-0.0248138,-0.0251822,5.09972,34,-0.0051974,10,-0.000128422,-2.29245,0.890018,0.0662908,13.182,-0.0251822,
2,1,0,1,1,66204.6,-0.022823,-0.023228,5.12135,34,-0.00509569,10,-0.000118959,-2.29062,1.18181,0.0499234,9.97532,-0.02322804,
2,1,0,1,1,66204.6,-0.0208254,-0.0211363,5.14008,34,-0.00499304,10,-0.000108642,-2.28903,1.63148,0.0361636,7.24864,-0.0211363,
2,1,0,1,1,66204.6,-0.0188278,-0.0191936,5.15059,34,-0.00489014,10,-9.88582e-05,-2.28814,1.99228,0.0296143,5.95425,-0.0191936,
2,1,0,1,1,66204.7,-0.0168393,-0.0171864,5.1636,34,-0.00478746,10,-8.87435e-05,-2.28705,1.57248,0.0375202,7.56417,-0.0171864,
2,1,0,1,1,66204.7,-0.0148326,-0.0151861,5.18091,34,-0.00468392,10,-7.86778e-05,-2.28559,2.97602,0.0198251,4.00131,-0.0151861,
2,1,0,1,1,66204.7,-0.0128351,-0.013198,5.17955,34,-0.00458028,10,-6.83597e-05,-2.28571,5.8516,0.0100827,2.04028,-0.013198,
2,1,0,1,1,66204.7,-0.0108375,-0.0111795,5.18908,34,-0.00447654,10,-5.80114e-05,-2.28491,3.53855,0.0166735,3.37481,-0.0111795,
2,1,0,1,1,66204.7,-0.00883989,-0.00919312,5.19307,34,-0.00437264,10,-4.77405e-05,-2.28458,6.56895,0.00898165,1.82018,-0.00919312,
2,1,0,1,1,66204.8,-0.0068423,-0.00717311,5.19637,34,-0.00426917,10,-3.72741e-05,-2.2843,11.2922,0.00522483,1.05934,-0.00717311,
2,1,0,1,1,66204.8,-0.00484471,-0.00519467,5.19731,34,-0.00416517,10,-2.69983e-05,-2.28422,-28.7624,-0.00205129,-0.415931,-0.00519467,
2,1,0,1,1,66204.8,-0.00284713,-0.00320046,5.19472,34,-0.0040612,10,-1.66255e-05,-2.28444,-10.0348,-0.00587957,-1.19204,-0.00320046,
2,1,0,1,1,66204.8,-0.000849538,-0.00123903,5.19259,34,-0.00395722,10,-6.43375e-06,-2.28462, , , ,-0.00123903,
2,1,0,1,1,66204.8,-2.55332e-05,-0.000306236,5.20575,34,-0.00391513,10,-1.59419e-06,-2.28352, , , ,-0.000306236,