File: Figure_codes/Fig_3-5/rawdata_trumpetplot_data/after 10th/20221101_1-115_003_TrumpetPlot_ParaChange_from10_every3_11_CV_C01_23.csv
mode,ox/red,error,control changes,counter inc.,time/s,control/V,Ewe/V,<I>/mA,cycle number,(Q-Qo)/C,I Range,P/W,log(|I|),Tafel slope mV/dec,alpha_eff,dI/d(E-IR),E-IR/V,
2,1,0,1,0,46507.5,2.44065e-05,-0.000363498,9.53903,24,0.0000000E+000,10,-3.46742e-06,-2.0205, , , ,-0.000363498,
2,1,0,1,0,46507.5,0.00214129,0.00178064,10.6243,24,5.2026e-05,10,1.89181e-05,-1.9737, , , ,0.00178064,
2,1,0,1,0,46507.5,0.0045495,0.00423336,11.4445,24,0.000118445,10,4.84488e-05,-1.9414,0.0827388,0.713088,313.264,0.00423336,
2,1,0,1,0,46507.5,0.0069466,0.00663306,12.0924,24,0.000189157,10,8.02095e-05,-1.91749,0.108869,0.541934,253.564,0.00663306,
2,1,0,1,0,46507.5,0.0093437,0.00901262,12.6545,24,0.000263497,10,0.00011405,-1.89775,0.128505,0.459125,225.495,0.00901262,
2,1,0,1,0,46507.5,0.0117408,0.0113498,13.1561,24,0.000340988,10,0.000149319,-1.88087,0.14967,0.3942,201.809,0.0113498,
2,1,0,1,0,46507.6,0.0141462,0.0137972,13.6208,24,0.000421377,10,0.000187929,-1.8658,0.16912,0.348864,184.866,0.01379717,
2,1,0,1,0,46507.6,0.0165433,0.0162085,14.059,24,0.000504472,10,0.000227876,-1.85205,0.19144,0.30819,168.44,0.0162085,
2,1,0,1,0,46507.6,0.0189404,0.0185838,14.423,24,0.00058998,10,0.000268035,-1.84094,0.209416,0.281736,158.437,0.0185838,
2,1,0,1,0,46507.6,0.0213486,0.0210154,14.8022,24,0.000677715,10,0.000311074,-1.82967,0.229542,0.257034,148.243,0.0210154,
2,1,0,1,0,46507.6,0.0237457,0.0234002,15.1469,24,0.000767623,10,0.00035444,-1.81968,0.252347,0.233805,137.931,0.02340021,
2,1,0,1,0,46507.6,0.0261429,0.0257978,15.46,24,0.000859492,10,0.000398833,-1.81079,0.27352,0.215707,130.081,0.0257978,
2,1,0,1,0,46507.6,0.02854,0.0282049,15.7595,24,0.000953194,10,0.000444494,-1.80246,0.292784,0.201514,123.882,0.0282049,
2,1,0,1,0,46507.6,0.0309482,0.0306089,16.0693,24,0.00104873,10,0.000491864,-1.794,0.308191,0.19144,119.859,0.0306089,
2,1,0,1,0,46507.6,0.0333453,0.0330329,16.3395,24,0.00114598,10,0.000539741,-1.78676,0.33616,0.175512,111.825,0.0330329,
2,1,0,1,0,46507.6,0.0357424,0.0354061,16.6014,24,0.00124484,10,0.00058779,-1.77986,0.350469,0.168346,109.058,0.0354061,
2,1,0,1,0,46507.6,0.0381478,0.0377952,16.8659,24,0.00134527,10,0.000637452,-1.77299,0.358066,0.164774,108.414,0.0377952,
2,1,0,1,0,46507.6,0.0405449,0.0402172,17.1263,24,0.00144727,10,0.000688773,-1.76634,0.386581,0.15262,101.904,0.0402172,
2,1,0,1,0,46507.6,0.042942,0.0425766,17.3647,24,0.00155078,10,0.00073933,-1.76033,0.38698,0.152463,103.339,0.0425766,
2,1,0,1,0,46507.6,0.0453391,0.0449922,17.5981,24,0.00165569,10,0.000791778,-1.75453,0.40142,0.146978,101.002,0.0449922,
2,1,0,1,0,46507.6,0.0477473,0.0473718,17.8592,24,0.00176214,10,0.000846022,-1.74814,0.410638,0.143679,100.005,0.04737176,
2,1,0,1,0,46507.6,0.0501444,0.0498298,18.0853,24,0.00186999,10,0.000901188,-1.74267,0.431032,0.136881,96.6289,0.0498298,
2,1,0,1,0,46507.7,0.0525415,0.0521924,18.3152,24,0.0019792,10,0.000955914,-1.73719,0.423979,0.139158,99.5474,0.0521924,
2,1,0,1,0,46507.7,0.0549469,0.0545963,18.57,24,0.00208989,10,0.00101385,-1.73119,0.423944,0.139169,100.761,0.0545963,
2,1,0,1,0,46507.7,0.057344,0.0569928,18.794,24,0.00220202,10,0.00107112,-1.72598,0.450011,0.131108,96.1801,0.0569928,
2,1,0,1,0,46507.7,0.0597412,0.0594095,19.0265,24,0.0023155,10,0.00113036,-1.72064,0.44116,0.133738,99.3596,0.0594095,
2,1,0,1,0,46507.7,0.0621438,0.0618336,19.2719,24,0.0024304,10,0.00119165,-1.71507,0.440646,0.133894,100.659,0.06183359,
2,1,0,1,0,46507.7,0.0645465,0.0642153,19.5113,24,0.00254679,10,0.00125292,-1.70971,0.445062,0.132566,100.895,0.0642153,
2,1,0,1,0,46507.7,0.0669436,0.0666298,19.7521,24,0.00266458,10,0.00131608,-1.70439,0.460264,0.128187,98.7724,0.0666298,
2,1,0,1,0,46507.7,0.0693407,0.069038,19.9799,24,0.0027838,10,0.00137937,-1.69941,0.447737,0.131774,102.796,0.069038,
2,1,0,1,0,46507.7,0.0717489,0.0713921,20.2391,24,0.00290448,10,0.00144491,-1.69381,0.46275,0.127499,100.646,0.0713921,
2,1,0,1,0,46507.7,0.074146,0.0738119,20.4698,24,0.00302664,10,0.00151091,-1.68889,0.47902,0.123168,98.4075,0.0738119,
2,1,0,1,0,46507.7,0.0765431,0.0761607,20.7074,24,0.0031502,10,0.00157709,-1.68387,0.4712,0.125212,101.263,0.0761607,
2,1,0,1,0,46507.7,0.0789485,0.0786124,20.9742,24,0.00327524,10,0.00164884,-1.67831,0.468032,0.12606,103.126,0.0786124,
2,1,0,1,0,46507.7,0.0813456,0.0809729,21.218,24,0.00340184,10,0.00171808,-1.6733,0.474293,0.124396,102.962,0.0809729,
2,1,0,1,0,46507.7,0.0837427,0.0834341,21.4534,24,0.00352987,10,0.00178994,-1.6685,0.468251,0.126001,105.584,0.0834341,
2,1,0,1,0,46507.7,0.0861398,0.0858051,21.7239,24,0.00365942,10,0.00186402,-1.66306,0.465571,0.126726,107.376,0.0858051,
2,1,0,1,0,46507.7,0.088548,0.0882165,21.9781,24,0.00379057,10,0.00193883,-1.65801,0.48854,0.120768,103.516,0.0882165,
2,1,0,1,0,46507.7,0.0909451,0.0905823,22.2177,24,0.00392317,10,0.00201253,-1.6533,0.506118,0.116574,101.113,0.0905823,
2,1,0,1,0,46507.8,0.0933422,0.0929523,22.4638,24,0.00405725,10,0.00208806,-1.64852,0.498253,0.118414,103.831,0.0929523,
2,1,0,1,0,46507.8,0.0957477,0.095422,22.7211,24,0.00419283,10,0.0021681,-1.64357,0.518593,0.113769,100.815,0.095422,
2,1,0,1,0,46507.8,0.0981448,0.0977951,22.9617,24,0.00432991,10,0.00224555,-1.639,0.531532,0.111,99.396,0.0977951,
2,1,0,1,0,46507.8,0.100542,0.100159,23.1887,24,0.00446836,10,0.00232256,-1.63472,0.526057,0.112155,101.567,0.100159,
2,1,0,1,0,46507.8,0.102939,0.102536,23.4356,24,0.00460822,10,0.002403,-1.63012,0.520727,0.113303,103.665,0.102536,
2,1,0,1,0,46507.8,0.105347,0.104966,23.7022,24,0.00474967,10,0.00248791,-1.62521,0.51115,0.115426,106.671,0.104966,
2,1,0,1,0,46507.8,0.107744,0.107375,23.9472,24,0.00489264,10,0.00257133,-1.62074,0.526661,0.112027,104.714,0.107375,
2,1,0,1,0,46507.8,0.110141,0.109775,24.2055,24,0.0050371,10,0.00265715,-1.61609,0.513927,0.114802,108.46,0.109775,
2,1,0,1,0,46507.8,0.11255,0.112209,24.4764,24,0.00518316,10,0.00274648,-1.61125,0.523681,0.112664,107.523,0.112209,
2,1,0,1,0,46507.8,0.114947,0.114613,24.7111,24,0.00533075,10,0.00283222,-1.60711,0.534082,0.11047,106.607,0.114613,
2,1,0,1,0,46507.8,0.117344,0.116952,24.9767,24,0.00547982,10,0.00292109,-1.60246,0.508452,0.116038,113.204,0.116952,
2,1,0,1,0,46507.8,0.119744,0.119385,25.2616,24,0.00563056,10,0.00301585,-1.59754,0.501632,0.117616,115.911,0.119385,
2,1,0,1,0,46507.8,0.122146,0.121807,25.5367,24,0.00578301,10,0.00311055,-1.59283,0.501692,0.117602,117.235,0.121807,
2,1,0,1,0,46507.8,0.124543,0.124194,25.8208,24,0.00593709,10,0.00320678,-1.58803,0.484544,0.121764,122.747,0.124194,
2,1,0,1,0,46507.8,0.126941,0.126567,26.1256,24,0.00609296,10,0.00330664,-1.58293,0.470462,0.125409,127.876,0.126567,
2,1,0,1,0,46507.8,0.129349,0.128981,26.4374,24,0.00625067,10,0.00340991,-1.57778,0.471403,0.125158,129.129,0.128981,
2,1,0,1,0,46507.8,0.131746,0.131421,26.7533,24,0.00641024,10,0.00351593,-1.57262,0.462445,0.127583,133.206,0.131421,
2,1,0,1,0,46507.9,0.134143,0.13378,27.0619,24,0.0065717,10,0.00362035,-1.56764,0.458233,0.128756,136.043,0.13378,
2,1,0,1,0,46507.9,0.13654,0.136207,27.3907,24,0.00673511,10,0.00373081,-1.5624,0.463938,0.127172,135.928,0.136207,
2,1,0,1,0,46507.9,0.138945,0.138607,27.7215,24,0.00690052,10,0.00384239,-1.55718,0.473513,0.124601,134.773,0.138607,
2,1,0,1,0,46507.9,0.141343,0.140999,28.0371,24,0.00706781,10,0.00395321,-1.55227,0.480996,0.122662,134.265,0.140999,
2,1,0,1,0,46507.9,0.14374,0.143407,28.373,24,0.0072371,10,0.00406889,-1.5471,0.477274,0.123619,136.812,0.143407,
2,1,0,1,0,46507.9,0.146148,0.145792,28.6902,24,0.00740836,10,0.00418281,-1.54227,0.513134,0.11498,128.7,0.145792,
2,1,0,1,0,46507.9,0.148545,0.148251,28.9985,24,0.00758145,10,0.00429906,-1.53763,0.524858,0.112411,127.228,0.148251,
2,1,0,1,0,46507.9,0.150942,0.150625,29.3111,24,0.0077564,10,0.00441497,-1.53297,0.530433,0.11123,127.151,0.1506246,
2,1,0,1,0,46507.9,0.153345,0.152989,29.6037,24,0.00793317,10,0.00452905,-1.52865,0.565263,0.104376,120.544,0.1529893,
2,1,0,1,0,46507.9,0.155747,0.155388,29.8851,24,0.00811166,10,0.00464379,-1.52454,0.5896,0.100068,116.686,0.155388,
2,1,0,1,0,46507.9,0.158144,0.157806,30.1684,24,0.00829185,10,0.00476075,-1.52045,0.624577,0.0944639,111.133,0.157806,
2,1,0,1,0,46507.9,0.160542,0.160215,30.4211,24,0.00847364,10,0.00487391,-1.51683,0.689918,0.0855173,101.466,0.160215,
2,1,0,1,0,46507.9,0.162947,0.162606,30.657,24,0.00865691,10,0.00498501,-1.51347,0.761586,0.0774699,92.6111,0.162606,
2,1,0,1,0,46507.9,0.165344,0.165014,30.8571,24,0.00884151,10,0.00509187,-1.51064,0.856662,0.0688719,82.9094,0.165014,
2,1,0,1,0,46507.9,0.167741,0.167387,31.0507,24,0.00902729,10,0.0051975,-1.50793,1.01886,0.0579081,70.1115,0.1673875,
2,1,0,1,0,46507.9,0.170149,0.169824,31.214,24,0.00921412,10,0.0053009,-1.50565,1.36756,0.0431424,52.4654,0.169824,
2,1,0,1,0,46508,0.172547,0.172248,31.3072,24,0.00940171,10,0.00539261,-1.50436,2.04785,0.0288107,35.1652,0.172248,
2,1,0,1,0,46508,0.174944,0.17464,31.3767,24,0.00958977,10,0.00547961,-1.50339,4.18586,0.0140951,17.2354,0.17464,
2,1,0,1,0,46508,0.177341,0.176972,31.3972,24,0.00977812,10,0.00555643,-1.50311,-14.5161,-0.00406446,-4.97197,0.176972,
2,1,0,1,0,46508,0.179746,0.179397,31.356,24,0.00996639,10,0.00562516,-1.50368,-2.84228,-0.020758,-25.3679,0.1793966,
2,1,0,1,0,46508,0.182143,0.181832,31.2707,24,0.0101543,10,0.00568603,-1.50486,-1.47541,-0.039989,-48.7209,0.181832,
2,1,0,1,0,46508,0.18454,0.184253,31.1296,24,0.0103415,10,0.00573574,-1.50683,-1.01312,-0.0582357,-70.6258,0.184253,
2,1,0,1,0,46508,0.186949,0.186621,30.9275,24,0.0105277,10,0.00577173,-1.50965,-0.751712,-0.0784875,-94.5885,0.186621,
2,1,0,1,0,46508,0.189346,0.188993,30.6701,24,0.0107125,10,0.00579644,-1.51328,-0.613622,-0.0961504,-114.926,0.188993,
2,1,0,1,0,46508,0.191743,0.191441,30.3623,24,0.0108956,10,0.00581257,-1.51767,-0.515206,-0.114517,-135.51,0.1914407,
2,1,0,1,0,46508,0.19414,0.193823,30.0047,24,0.0110767,10,0.00581561,-1.52281,-0.433168,-0.136206,-159.268,0.193823,
2,1,0,1,0,46508,0.196548,0.196206,29.6029,24,0.0112555,10,0.00580828,-1.52867,-0.390739,-0.150996,-174.2,0.196206,
2,1,0,1,0,46508,0.198945,0.198624,29.1537,24,0.0114317,10,0.00579062,-1.53531,-0.343612,-0.171705,-195.123,0.198624,
2,1,0,1,0,46508,0.201342,0.200993,28.6718,24,0.0116052,10,0.00576283,-1.54255,-0.315574,-0.186961,-208.914,0.200993,
2,1,0,1,0,46508,0.203748,0.203411,28.1518,24,0.0117756,10,0.00572638,-1.55049,-0.298606,-0.197585,-216.895,0.203411,
2,1,0,1,0,46508,0.206145,0.2058,27.6019,24,0.0119428,10,0.00568046,-1.55906,-0.27482,-0.214686,-231.176,0.2058,
2,1,0,1,0,46508,0.208542,0.208227,27.0532,24,0.0121068,10,0.0056332,-1.56778,-0.266503,-0.221386,-233.56,0.2082269,
2,1,0,1,0,46508,0.210939,0.210603,26.4713,24,0.0122673,10,0.00557495,-1.57722,-0.253102,-0.233108,-240.845,0.210603,
2,1,0,1,0,46508.1,0.213347,0.213002,25.9029,24,0.0124244,10,0.00551736,-1.58665,-0.251551,-0.234545,-237.024,0.213002,
2,1,0,1,0,46508.1,0.215744,0.215448,25.3381,24,0.0125781,10,0.00545904,-1.59623,-0.244915,-0.2409,-238.097,0.215448,
2,1,0,1,0,46508.1,0.218141,0.217827,24.7612,24,0.0127283,10,0.00539365,-1.60623,-0.2427,-0.243098,-235.022,0.217827,
2,1,0,1,0,46508.1,0.220547,0.220249,24.2109,24,0.0128752,10,0.00533241,-1.61599,-0.248716,-0.237218,-224.156,0.220249,
2,1,0,1,0,46508.1,0.222944,0.222686,23.6677,24,0.0130187,10,0.00527045,-1.62584,-0.242955,-0.242844,-224.416,0.222686,
2,1,0,1,0,46508.1,0.225341,0.225032,23.1429,24,0.0131591,10,0.0052079,-1.63558,-0.249277,-0.236684,-213.931,0.225032,
2,1,0,1,0,46508.1,0.227744,0.227443,22.6443,24,0.0132964,10,0.00515028,-1.64504,-0.257316,-0.22929,-202.754,0.227443,
2,1,0,1,0,46508.1,0.230146,0.229873,22.1617,24,0.0134308,10,0.00509437,-1.6544,-0.263461,-0.223942,-193.829,0.229873,
2,1,0,1,0,46508.1,0.232543,0.2322,21.7094,24,0.0135623,10,0.00504092,-1.66335,-0.2659,-0.221888,-188.014,0.2322,
2,1,0,1,0,46508.1,0.234941,0.23464,21.26,24,0.0136912,10,0.00498845,-1.67244,-0.275461,-0.214186,-177.921,0.23464,
2,1,0,1,0,46508.1,0.237349,0.237014,20.8509,24,0.0138175,10,0.00494194,-1.68088,-0.29005,-0.203413,-165.701,0.237014,
2,1,0,1,0,46508.1,0.239746,0.239415,20.4612,24,0.0139414,10,0.00489871,-1.68907,-0.289562,-0.203756,-162.775,0.239415,
2,1,0,1,0,46508.1,0.242143,0.24179,20.08,24,0.014063,10,0.00485514,-1.69724,-0.304604,-0.193694,-151.972,0.24179,
2,1,0,1,0,46508.1,0.244548,0.244233,19.7327,24,0.0141824,10,0.00481938,-1.70481,-0.320237,-0.184238,-142.038,0.244233,
2,1,0,1,0,46508.1,0.246946,0.24661,19.4076,24,0.0142998,10,0.00478612,-1.71203,-0.329921,-0.178831,-135.473,0.24661,
2,1,0,1,0,46508.1,0.249343,0.248987,19.0844,24,0.0144152,10,0.00475177,-1.71932,-0.340928,-0.173057,-129.005,0.248987,
2,1,0,1,0,46508.1,0.25174,0.25138,18.7842,24,0.0145288,10,0.00472199,-1.72621,-0.361344,-0.16328,-119.82,0.25138,
2,1,0,1,0,46508.2,0.254148,0.253814,18.5161,24,0.0146407,10,0.00469965,-1.73245,-0.378475,-0.155889,-112.645,0.2538138,
2,1,0,1,0,46508.2,0.256545,0.256261,18.2471,24,0.0147509,10,0.00467603,-1.73881,-0.387455,-0.152276,-108.497,0.256261,
2,1,0,1,0,46508.2,0.258942,0.258594,17.9845,24,0.0148596,10,0.00465069,-1.7451,-0.406197,-0.14525,-102.068,0.258594,
2,1,0,1,0,46508.2,0.261348,0.261024,17.754,24,0.0149668,10,0.00463422,-1.7507,-0.425863,-0.138542,-96.0594,0.261024,
2,1,0,1,0,46508.2,0.263745,0.263373,17.5285,24,0.0150726,10,0.00461653,-1.75626,-0.441599,-0.133605,-91.4141,0.263373,
2,1,0,1,0,46508.2,0.266142,0.265829,17.3184,24,0.0151771,10,0.00460374,-1.76149,-0.462432,-0.127586,-86.2698,0.265829,
2,1,0,1,0,46508.2,0.268539,0.268227,17.1,24,0.0152803,10,0.00458668,-1.767,-0.484106,-0.121874,-81.4306,0.268227,
2,1,0,1,0,46508.2,0.270947,0.270601,16.9226,24,0.0153824,10,0.00457928,-1.77153,-0.506571,-0.116469,-76.9035,0.270601,
2,1,0,1,0,46508.2,0.273344,0.273043,16.7393,24,0.0154834,10,0.00457054,-1.77626,-0.510084,-0.115667,-75.5636,0.273043,
2,1,0,1,0,46508.2,0.275741,0.275415,16.5541,24,0.0155832,10,0.00455926,-1.78109,-0.543844,-0.108487,-70.1766,0.275415,
2,1,0,1,0,46508.2,0.278149,0.277809,16.4014,24,0.015682,10,0.00455646,-1.78512,-0.567063,-0.104045,-66.5733,0.2778087,
2,1,0,1,0,46508.2,0.280547,0.280223,16.234,24,0.0157799,10,0.00454916,-1.78957,-0.573516,-0.102874,-65.2035,0.280223,
2,1,0,1,0,46508.2,0.282944,0.282608,16.0794,24,0.0158769,10,0.00454417,-1.79373,-0.59463,-0.0992214,-62.3216,0.282608,
2,1,0,1,0,46508.2,0.285344,0.28503,15.9367,24,0.0159729,10,0.00454244,-1.7976,-0.615898,-0.0957951,-59.6073,0.28503,
2,1,0,1,0,46508.2,0.287746,0.287441,15.7988,24,0.0160681,10,0.00454124,-1.80138,-0.639817,-0.0922139,-56.8614,0.287441,
2,1,0,1,0,46508.2,0.290143,0.28982,15.665,24,0.0161625,10,0.00454002,-1.80507,-0.645149,-0.0914517,-55.9068,0.28982,
2,1,0,1,0,46508.3,0.29254,0.292229,15.5329,24,0.0162561,10,0.00453915,-1.80875,-0.702235,-0.0840174,-50.9768,0.292229,
2,1,0,1,0,46508.3,0.294949,0.294621,15.4229,24,0.0163489,10,0.0045439,-1.81184,-0.722369,-0.0816757,-49.1394,0.294621,
2,1,0,1,0,46508.3,0.297346,0.297053,15.3032,24,0.0164411,10,0.00454586,-1.81522,-0.751811,-0.0784772,-46.9119,0.297053,
2,1,0,1,0,46508.3,0.299621,0.299336,15.1828,24,0.016528,10,0.00454476,-1.81865,-0.0845805,-0.69756,-401.189,0.299336,
2,1,0,1,0,46508.3,0.299962,0.299708,15.0572,24,0.0165461,10,0.00451278,-1.82225,0.0125566,4.69872,2376.17,0.299708,
2,1,0,1,0,46508.3,0.297903,0.29765,11.8379,24,0.0166133,10,0.00352355,-1.92673,0.0216989,2.71904,1229.78,0.29765,
2,1,0,1,0,46508.3,0.295506,0.295218,9.33776,24,0.0166763,10,0.00275668,-2.02976,0.0230875,2.55549,946.992,0.295218,
2,1,0,1,0,46508.3,0.293101,0.292811,7.34034,24,0.0167259,10,0.00214934,-2.13428,0.0221511,2.66353,766.459,0.292811,
2,1,0,1,0,46508.3,0.290704,0.290421,5.68648,24,0.0167647,10,0.00165147,-2.24516,0.020043,2.94367,648.641,0.290421,
2,1,0,1,0,46508.3,0.288307,0.288019,4.26099,24,0.0167943,10,0.00122725,-2.37049,0.0172195,3.42634,557.551,0.2880193,
2,1,0,1,0,46508.3,0.28591,0.28564,3.02829,24,0.016816,10,0.000865001,-2.5188,0.0136282,4.32926,487.257,0.28564,
2,1,0,1,0,46508.3,0.283501,0.283173,1.93375,24,0.0168307,10,0.000547587,-2.7136,0.00910709,6.47847,431.578,0.283173,
2,1,0,1,0,46508.3,0.281104,0.280776,0.975535,24,0.0168393,10,0.000273907,-3.01076,0.00531794,11.0945,380.157,0.280776,
2,1,0,1,0,46508.3,0.278707,0.278394,0.125161,24,0.0168425,10,3.48439e-05,-3.90253,0.0392616,1.50274,337.856,0.278394,
2,0,0,1,0,46508.3,0.276302,0.275987,-0.652777,24,0.0168408,10,-0.000180158,-3.18524,-0.011047,-5.34081,303.909,0.275987,
2,0,0,1,0,46508.3,0.273905,0.273632,-1.33365,24,0.0168347,10,-0.000364929,-2.87496,-0.00879185,-6.71076,273.786,0.273632,
2,0,0,1,0,46508.3,0.271508,0.271216,-1.95329,24,0.0168248,10,-0.000529763,-2.70923,-0.0166423,-3.54517,249.217,0.271216,
2,0,0,1,0,46508.3,0.269105,0.268817,-2.53384,24,0.0168112,10,-0.000681141,-2.59622,-0.0242405,-2.43394,229.046,0.268817,
2,0,0,1,0,46508.4,0.266702,0.266403,-3.05327,24,0.0167944,10,-0.0008134,-2.51524,-0.0332865,-1.77249,205.008,0.266403,
2,0,0,1,0,46508.4,0.264305,0.26403,-3.52538,24,0.0167746,10,-0.000930805,-2.45279,-0.0416493,-1.41659,191.285,0.2640298,
2,0,0,1,0,46508.4,0.261908,0.261591,-3.97194,24,0.016752,10,-0.00103902,-2.401,-0.0505351,-1.1675,178.108,0.261591,
2,0,0,1,0,46508.4,0.2595,0.25919,-4.37805,24,0.016727,10,-0.00113475,-2.35872,-0.0611856,-0.964279,162.748,0.25919,
2,0,0,1,0,46508.4,0.257103,0.256773,-4.74914,24,0.0166995,10,-0.00121945,-2.32338,-0.0726173,-0.812479,149.286,0.256773,
2,0,0,1,0,46508.4,0.254706,0.254424,-5.09525,24,0.01667,10,-0.00129635,-2.29283,-0.0828124,-0.712454,140.943,0.254424,
2,0,0,1,0,46508.4,0.2523,0.25194,-5.43464,24,0.0166384,10,-0.0013692,-2.26483,-0.0947099,-0.622955,131.097,0.25194,
2,0,0,1,0,46508.4,0.249903,0.249612,-5.73177,24,0.0166048,10,-0.00143072,-2.24171,-0.107484,-0.548918,122.101,0.249612,
2,0,0,1,0,46508.4,0.247506,0.247184,-6.0058,24,0.0165696,10,-0.00148454,-2.22143,-0.119698,-0.492909,115.429,0.247184,
2,0,0,1,0,46508.4,0.245109,0.244784,-6.28237,24,0.0165327,10,-0.00153783,-2.20188,-0.132291,-0.445986,108.992,0.244784,
2,0,0,1,0,46508.4,0.242701,0.242385,-6.54197,24,0.0164941,10,-0.00158567,-2.18429,-0.146157,-0.403674,102.669,0.242385,
2,0,0,1,0,46508.4,0.240304,0.23997,-6.77858,24,0.0164541,10,-0.00162666,-2.16886,-0.161745,-0.364772,96.3802,0.23997,
2,0,0,1,0,46508.4,0.237906,0.237564,-7.0073,24,0.0164128,10,-0.00166468,-2.15445,-0.173909,-0.339258,92.6158,0.237564,
2,0,0,1,0,46508.4,0.235501,0.235175,-7.23334,24,0.01637,10,-0.0017011,-2.14066,-0.187604,-0.314492,88.4703,0.235175,
2,0,0,1,0,46508.4,0.233104,0.232784,-7.42634,24,0.016326,10,-0.00172873,-2.12923,-0.20151,-0.292789,84.8075,0.232784,
2,0,0,1,0,46508.4,0.230707,0.230428,-7.62312,24,0.0162808,10,-0.00175658,-2.11787,-0.214049,-0.275637,81.992,0.230428,
2,0,0,1,0,46508.4,0.22831,0.228009,-7.81068,24,0.0162345,10,-0.0017809,-2.10731,-0.23092,-0.2555,77.8691,0.228009,
2,0,0,1,0,46508.5,0.225902,0.225575,-8.00053,24,0.016187,10,-0.00180472,-2.09688,-0.251338,-0.234743,73.1819,0.225575,
2,0,0,1,0,46508.5,0.223504,0.223217,-8.16873,24,0.0161384,10,-0.0018234,-2.08785,-0.262569,-0.224703,71.654,0.223217,
2,0,0,1,0,46508.5,0.221107,0.22083,-8.34049,24,0.0160889,10,-0.00184183,-2.07881,-0.272882,-0.216211,70.387,0.22083,
2,0,0,1,0,46508.5,0.218699,0.218373,-8.52593,24,0.0160383,10,-0.00186183,-2.06926,-0.294628,-0.200253,66.3817,0.2183729,
2,0,0,1,0,46508.5,0.216302,0.215968,-8.66508,24,0.0159867,10,-0.00187138,-2.06223,-0.311098,-0.189651,64.1403,0.215968,
2,0,0,1,0,46508.5,0.213905,0.213619,-8.81646,24,0.0159343,10,-0.00188336,-2.05471,-0.313116,-0.188429,64.8804,0.213619,
2,0,0,1,0,46508.5,0.211505,0.211161,-8.97236,24,0.0158809,10,-0.00189461,-2.04709,-0.340274,-0.17339,60.6037,0.211161,
2,0,0,1,0,46508.5,0.209102,0.208822,-9.10705,24,0.0158266,10,-0.00190175,-2.04062,-0.346147,-0.170448,60.6377,0.208822,
2,0,0,1,0,46508.5,0.206705,0.206371,-9.26083,24,0.0157715,10,-0.00191117,-2.03335,-0.363485,-0.162317,58.6183,0.206371,
2,0,0,1,0,46508.5,0.204308,0.203959,-9.4026,24,0.0157155,10,-0.00191774,-2.02675,-0.364209,-0.161995,59.3485,0.203959,
2,0,0,1,0,46508.5,0.2019,0.201565,-9.5392,24,0.0156587,10,-0.00192277,-2.02049,-0.395412,-0.149211,55.5056,0.201565,
2,0,0,1,0,46508.5,0.199503,0.199227,-9.66595,24,0.015601,10,-0.00192572,-2.01476,-0.405922,-0.145348,54.8349,0.199227,
2,0,0,1,0,46508.5,0.197106,0.196799,-9.80256,24,0.0155426,10,-0.00192913,-2.00866,-0.409065,-0.144232,55.1904,0.196799,
2,0,0,1,0,46508.5,0.194709,0.194414,-9.92994,24,0.0154834,10,-0.00193052,-2.00305,-0.415388,-0.142036,55.0561,0.194414,
2,0,0,1,0,46508.5,0.192303,0.191968,-10.0661,24,0.0154234,10,-0.00193236,-1.99714,-0.430736,-0.136975,53.7915,0.191968,
2,0,0,1,0,46508.5,0.189906,0.189609,-10.1916,24,0.0153626,10,-0.00193241,-1.99176,-0.435639,-0.135433,53.8986,0.189609,
2,0,0,1,0,46508.6,0.187509,0.187216,-10.322,24,0.0153011,10,-0.00193245,-1.98624,-0.445129,-0.132546,53.3741,0.187216,
2,0,0,1,0,46508.6,0.185101,0.184796,-10.4537,24,0.0152387,10,-0.00193181,-1.98073,-0.440373,-0.133977,54.6509,0.1847962,
2,0,0,1,0,46508.6,0.182704,0.182394,-10.5827,24,0.0151756,10,-0.00193023,-1.9754,-0.452346,-0.130431,53.9083,0.182394,
2,0,0,1,0,46508.6,0.180307,0.180012,-10.7155,24,0.0151117,10,-0.00192891,-1.96999,-0.440116,-0.134055,56.066,0.180012,
2,0,0,1,0,46508.6,0.177904,0.177581,-10.8428,24,0.0150469,10,-0.00192547,-1.96486,-0.460095,-0.128234,54.303,0.177581,
2,0,0,1,0,46508.6,0.175501,0.175169,-10.9851,24,0.0149814,10,-0.00192424,-1.9592,-0.446924,-0.132014,56.6393,0.175169,
2,0,0,1,0,46508.6,0.173104,0.172809,-11.1295,24,0.0149151,10,-0.00192328,-1.95352,-0.440741,-0.133866,58.0981,0.172809,
2,0,0,1,0,46508.6,0.170707,0.170401,-11.2636,24,0.0148479,10,-0.00191932,-1.94832,-0.438778,-0.134464,59.1474,0.170401,
2,0,0,1,0,46508.6,0.168302,0.167974,-11.4111,24,0.0147799,10,-0.00191676,-1.94267,-0.42395,-0.139167,61.979,0.167974,
2,0,0,1,0,46508.6,0.165905,0.165574,-11.5658,24,0.014711,10,-0.00191501,-1.93682,-0.413831,-0.14257,64.3622,0.165574,
2,0,0,1,0,46508.6,0.163507,0.163218,-11.7225,24,0.0146411,10,-0.00191333,-1.93098,-0.399386,-0.147727,67.6245,0.163218,
2,0,0,1,0,46508.6,0.161099,0.160815,-11.8923,24,0.0145702,10,-0.00191246,-1.92474,-0.384044,-0.153628,71.3032,0.160815,
2,0,0,1,0,46508.6,0.158702,0.158377,-12.0594,24,0.0144984,10,-0.00190994,-1.91867,-0.361892,-0.163032,76.8073,0.158377,
2,0,0,1,0,46508.6,0.156305,0.155938,-12.2529,24,0.0144254,10,-0.0019107,-1.91176,-0.348874,-0.169115,80.9352,0.1559383,
2,0,0,1,0,46508.6,0.153908,0.153592,-12.4488,24,0.0143513,10,-0.00191203,-1.90487,-0.337694,-0.174714,84.953,0.1535916,
2,0,0,1,0,46508.6,0.151503,0.151188,-12.6623,24,0.0142759,10,-0.00191438,-1.89749,-0.311821,-0.189211,93.6247,0.151188,
2,0,0,1,0,46508.6,0.149105,0.148788,-12.8958,24,0.0141993,10,-0.00191874,-1.88955,-0.296449,-0.199023,100.243,0.148788,
2,0,0,1,0,46508.7,0.146708,0.14639,-13.1515,24,0.0141211,10,-0.00192525,-1.88102,-0.276617,-0.213291,109.607,0.14639,
2,0,0,1,0,46508.7,0.1443,0.144001,-13.4188,24,0.0140414,10,-0.00193233,-1.87229,-0.254628,-0.23171,121.609,0.144001,
2,0,0,1,0,46508.7,0.141903,0.141649,-13.7281,24,0.0139599,10,-0.00194458,-1.86239,-0.235655,-0.250366,134.326,0.141649,
2,0,0,1,0,46508.7,0.139506,0.139191,-14.059,24,0.0138765,10,-0.00195689,-1.85204,-0.220877,-0.267117,146.852,0.1391913,
2,0,0,1,0,46508.7,0.137109,0.136799,-14.4233,24,0.0137911,10,-0.0019731,-1.84093,-0.2072,-0.284749,160.698,0.136799,
2,0,0,1,0,46508.7,0.134701,0.134388,-14.836,24,0.0137032,10,-0.00199378,-1.82868,-0.194682,-0.303058,175.756,0.134388,
2,0,0,1,0,46508.7,0.132303,0.132007,-15.2779,24,0.0136129,10,-0.00201679,-1.81594,-0.186337,-0.316631,189.062,0.132007,
2,0,0,1,0,46508.7,0.129906,0.129629,-15.751,24,0.0135197,10,-0.00204178,-1.80269,-0.177937,-0.331579,204.161,0.129629,
2,0,0,1,0,46508.7,0.127501,0.127159,-16.2721,24,0.0134236,10,-0.00206915,-1.78856,-0.170749,-0.345537,219.601,0.127159,
2,0,0,1,0,46508.7,0.125104,0.124805,-16.8096,24,0.0133244,10,-0.00209792,-1.77444,-0.169379,-0.348332,228.664,0.124805,
2,0,0,1,0,46508.7,0.122707,0.122355,-17.3777,24,0.0132218,10,-0.00212625,-1.76001,-0.166201,-0.354992,240.725,0.122355,
2,0,0,1,0,46508.7,0.12031,0.120015,-17.9428,24,0.0131157,10,-0.00215341,-1.74611,-0.167605,-0.352018,246.78,0.120015,
2,0,0,1,0,46508.7,0.117901,0.117592,-18.5555,24,0.0130062,10,-0.00218197,-1.73153,-0.167174,-0.352926,255.564,0.117592,
2,0,0,1,0,46508.7,0.115504,0.115194,-19.1764,24,0.0128929,10,-0.00220902,-1.71723,-0.175364,-0.336443,251.47,0.115194,
2,0,0,1,0,46508.7,0.113107,0.112789,-19.7689,24,0.012776,10,-0.00222972,-1.70402,-0.182811,-0.322739,248.902,0.1127893,
2,0,0,1,0,46508.7,0.110702,0.110424,-20.386,24,0.0126555,10,-0.0022511,-1.69067,-0.188751,-0.312581,248.268,0.110424,
2,0,0,1,0,46508.7,0.108305,0.108038,-20.9538,24,0.0125315,10,-0.0022638,-1.67874,-0.195603,-0.301631,246.643,0.108038,
2,0,0,1,0,46508.8,0.105908,0.105633,-21.5499,24,0.0124039,10,-0.00227637,-1.66655,-0.198155,-0.297747,250.347,0.1056326,
2,0,0,1,0,46508.8,0.103505,0.103246,-22.1532,24,0.0122727,10,-0.00228722,-1.65456,-0.208642,-0.282781,244.159,0.103246,
2,0,0,1,0,46508.8,0.101102,0.100778,-22.7288,24,0.012138,10,-0.00229056,-1.64342,-0.221172,-0.266761,236.217,0.100778,
2,0,0,1,0,46508.8,0.0987052,0.0983964,-23.2764,24,0.0119999,10,-0.00229032,-1.63308,-0.239516,-0.24633,223.589,0.0983964,
2,0,0,1,0,46508.8,0.0963081,0.0960306,-23.8061,24,0.0118586,10,-0.00228612,-1.62331,-0.250928,-0.235127,218.333,0.0960306,
2,0,0,1,0,46508.8,0.0938999,0.0936129,-24.333,24,0.0117141,10,-0.00227788,-1.61381,-0.262889,-0.224429,212.863,0.0936129,
2,0,0,1,0,46508.8,0.0915028,0.091192,-24.835,24,0.0115666,10,-0.00226475,-1.60494,-0.288281,-0.204662,197.955,0.091192,
2,0,0,1,0,46508.8,0.0891057,0.0888082,-25.2828,24,0.0114162,10,-0.00224532,-1.59718,-0.307827,-0.191666,188.966,0.0888082,
2,0,0,1,0,46508.8,0.0867002,0.0864138,-25.729,24,0.0112632,10,-0.00222334,-1.58958,-0.334335,-0.17647,177.025,0.0864138,
2,0,0,1,0,46508.8,0.0843031,0.0839908,-26.1463,24,0.0111075,10,-0.00219605,-1.58259,-0.360738,-0.163554,166.612,0.0839908,
2,0,0,1,0,46508.8,0.081906,0.0816282,-26.518,24,0.0109494,10,-0.00216461,-1.57646,-0.395912,-0.149023,154.138,0.0816282,
2,0,0,1,0,46508.8,0.0795089,0.0792009,-26.8781,24,0.0107892,10,-0.00212877,-1.5706,-0.427371,-0.138053,144.739,0.0792009,
2,0,0,1,0,46508.8,0.0771007,0.0768023,-27.2289,24,0.0106268,10,-0.00209124,-1.56497,-0.475174,-0.124165,131.722,0.0768023,
2,0,0,1,0,46508.8,0.0747036,0.0744482,-27.5229,24,0.0104625,10,-0.00204903,-1.56031,-0.543538,-0.108548,116.473,0.0744482,
2,0,0,1,0,46508.8,0.0723065,0.0720008,-27.7887,24,0.0102965,10,-0.00200081,-1.55613,-0.604066,-0.0976714,105.835,0.0720008,
2,0,0,1,0,46508.8,0.0699011,0.0696127,-28.0383,24,0.0101291,10,-0.00195182,-1.55225,-0.691499,-0.0853219,93.2289,0.0696127,
2,0,0,1,0,46508.9,0.067504,0.0672109,-28.2346,24,0.0099602,10,-0.00189767,-1.54922,-0.809121,-0.0729187,80.2623,0.0672109,
2,0,0,1,0,46508.9,0.0651069,0.0647571,-28.4054,24,0.00979025,10,-0.00183945,-1.5466,-0.962072,-0.061326,67.9443,0.0647571,
2,0,0,1,0,46508.9,0.0627098,0.0624083,-28.5459,24,0.00961936,10,-0.0017815,-1.54446,-1.13567,-0.0519515,57.8536,0.0624083,
2,0,0,1,0,46508.9,0.0603016,0.0599758,-28.6798,24,0.00944763,10,-0.00172009,-1.54242,-1.39013,-0.0424421,47.4626,0.0599758,
2,0,0,1,0,46508.9,0.0579045,0.057592,-28.7777,24,0.00927521,10,-0.00165737,-1.54094,-1.8765,-0.0314414,35.2829,0.057592,
2,0,0,1,0,46508.9,0.0555074,0.0551785,-28.8502,24,0.00910232,10,-0.00159191,-1.53985,-2.16523,-0.0272489,30.6832,0.0551785,
2,0,0,1,0,46508.9,0.0530992,0.0527629,-28.9334,24,0.00892899,10,-0.00152661,-1.5386,-2.93885,-0.0200759,22.6394,0.0527629,
2,0,0,1,0,46508.9,0.0507021,0.05043,-28.975,24,0.00875526,10,-0.00146121,-1.53798,-4.76087,-0.0123927,14.0004,0.05042997,
2,0,0,1,0,46508.9,0.048305,0.0479709,-28.9858,24,0.0085814,10,-0.00139047,-1.53782,-7.88442,-0.00748311,8.46661,0.0479709,
2,0,0,1,0,46508.9,0.0459051,0.0455935,-29.0074,24,0.00840744,10,-0.00132255,-1.53749,-20.735,-0.00284544,3.21974,0.0455935,
2,0,0,1,0,46508.9,0.0435024,0.0432044,-29.0069,24,0.00823335,10,-0.00125322,-1.5375,61.6474,0.000957057,-1.0829,0.04320436,
2,0,0,1,0,46508.9,0.0411053,0.0407771,-28.9929,24,0.00805934,10,-0.00118224,-1.53771,9.94994,0.00592968,-6.70983,0.0407771,
2,0,0,1,0,46508.9,0.0387082,0.0383509,-28.9755,24,0.00788542,10,-0.00111124,-1.53797,9.31944,0.00633085,-7.15974,0.03835088,
2,0,0,1,0,46508.9,0.0363,0.0359713,-28.9643,24,0.00771161,10,-0.00104188,-1.53814,5.76911,0.0102269,-11.5532,0.0359713,
2,0,0,1,0,46508.9,0.0339029,0.0335886,-28.9276,24,0.00753794,10,-0.000971637,-1.53869,3.81367,0.0154706,-17.4549,0.0335886,
2,0,0,1,0,46508.9,0.0315058,0.0311741,-28.8804,24,0.00736453,10,-0.000900318,-1.5394,3.73467,0.0157979,-17.8074,0.0311741,
2,0,0,1,0,46508.9,0.0291087,0.0287977,-28.8297,24,0.00719143,10,-0.000830229,-1.54016,3.1716,0.0186026,-20.9275,0.0287977,
2,0,0,1,0,46509,0.0267033,0.0263768,-28.7868,24,0.00701855,10,-0.000759303,-1.54081,2.63572,0.0223848,-25.1312,0.0263768,
2,0,0,1,0,46509,0.0243062,0.0239972,-28.7081,24,0.00684607,10,-0.000688916,-1.54199,2.23479,0.0264007,-29.5827,0.0239972,
2,0,0,1,0,46509,0.0219091,0.0216092,-28.641,24,0.00667402,10,-0.000618909,-1.54301,2.29224,0.025739,-28.7731,0.0216092,
2,0,0,1,0,46509,0.0195009,0.0191671,-28.5815,24,0.00650236,10,-0.000547824,-1.54391,1.88962,0.0312232,-34.7969,0.0191671,
2,0,0,1,0,46509,0.0171038,0.0167854,-28.4791,24,0.00633118,10,-0.000478033,-1.54547,1.64038,0.0359673,-39.9813,0.0167854,
2,0,0,1,0,46509,0.0147067,0.014356,-28.3828,24,0.00616061,10,-0.000407463,-1.54695,1.67527,0.0352182,-39.0154,0.014356,
2,0,0,1,0,46509,0.012304,0.0119892,-28.293,24,0.00599058,10,-0.000339209,-1.54832,1.45128,0.0406537,-44.8563,0.0119892,
2,0,0,1,0,46509,0.00990136,0.00965416,-28.1742,24,0.00582116,10,-0.000271999,-1.55015,1.28426,0.0459407,-50.4926,0.00965416,
2,0,0,1,0,46509,0.00750426,0.00724492,-28.0467,24,0.00565253,10,-0.000203196,-1.55212,1.1352,0.0519733,-56.8854,0.007244919,
2,0,0,1,0,46509,0.00510715,0.00480068,-27.9067,24,0.00548467,10,-0.000133971,-1.55429,1.28466,0.0459266,-50.0576,0.00480068,
2,0,0,1,0,46509,0.00270173,0.00238295,-27.777,24,0.00531761,10,-6.61912e-05,-1.55632,1.09691,0.0537874,-58.2973,0.00238295,
2,0,0,1,0,46509,0.000304623,-4.85574e-05,-27.6451,24,0.00515124,10,1.34237e-06,-1.55838,0.98555,0.0598651,-64.5252,-4.85574e-05,
2,0,0,1,0,46509,-0.00209248,-0.00249173,-27.4682,24,0.00498594,10,6.84434e-05,-1.56117,0.874474,0.0674691,-72.3492,-0.00249173,
2,0,0,1,0,46509,-0.00450068,-0.00487871,-27.3117,24,0.00482165,10,0.000133246,-1.56365,0.827705,0.0712815,-75.8832,-0.00487871,
2,0,0,1,0,46509,-0.00689779,-0.00722433,-27.1138,24,0.0046584,10,0.000195879,-1.56681,0.796555,0.074069,-78.3408,-0.00722433,
2,0,0,1,0,46509,-0.00929489,-0.00968235,-26.9127,24,0.00449637,10,0.000260578,-1.57004,0.781407,0.0755048,-79.3389,-0.00968235,
2,0,0,1,0,46509,-0.011692,-0.0120927,-26.7308,24,0.00433545,10,0.000323247,-1.57299,0.757238,0.0779148,-81.2366,-0.0120927,
2,0,0,1,0,46509.1,-0.0140974,-0.0144181,-26.5263,24,0.00417565,10,0.00038246,-1.57632,0.734876,0.0802857,-83.119,-0.0144181,
2,0,0,1,0,46509.1,-0.0164945,-0.0168295,-26.3252,24,0.00401713,10,0.00044304,-1.57963,0.724581,0.0814263,-83.7043,-0.0168295,
2,0,0,1,0,46509.1,-0.0188916,-0.0192557,-26.1375,24,0.00385976,10,0.000503296,-1.58274,0.75561,0.0780826,-79.6363,-0.0192557,
2,0,0,1,0,46509.1,-0.0212998,-0.0216522,-25.9464,24,0.00370353,10,0.000561798,-1.58592,0.745988,0.0790897,-80.0832,-0.0216522,
2,0,0,1,0,46509.1,-0.0236969,-0.0240636,-25.757,24,0.00354846,10,0.000619806,-1.5891,0.762013,0.0774265,-77.84,-0.0240636,
2,0,0,1,0,46509.1,-0.026094,-0.0264135,-25.5748,24,0.0033945,10,0.00067552,-1.59219,0.821767,0.0717965,-71.6926,-0.0264135,
2,0,0,1,0,46509.1,-0.0284912,-0.0288545,-25.3996,24,0.0032416,10,0.000732894,-1.59517,0.842214,0.0700535,-69.4753,-0.0288545,
2,0,0,1,0,46509.1,-0.0308994,-0.0313094,-25.2415,24,0.00308967,10,0.000790294,-1.59789,0.883738,0.0667618,-65.7726,-0.0313094,
2,0,0,1,0,46509.1,-0.0332965,-0.03369,-25.074,24,0.00293873,10,0.000844741,-1.60078,0.913349,0.0645974,-63.2788,-0.03369,
2,0,0,1,0,46509.1,-0.0356936,-0.0360504,-24.9346,24,0.00278872,10,0.000898902,-1.6032,0.998311,0.0590998,-57.5438,-0.0360504,
2,0,0,1,0,46509.1,-0.038099,-0.0384512,-24.8071,24,0.00263947,10,0.000953863,-1.60542,1.03994,0.056734,-54.9233,-0.0384512,
2,0,0,1,0,46509.1,-0.0404961,-0.0408764,-24.6696,24,0.00249106,10,0.0010084,-1.60784,1.11476,0.0529264,-51.0087,-0.0408764,
2,0,0,1,0,46509.1,-0.0428932,-0.0432273,-24.5609,24,0.00234337,10,0.0010617,-1.60976,1.28214,0.0460167,-44.1272,-0.04322727,
2,0,0,1,0,46509.1,-0.0452903,-0.0456662,-24.4669,24,0.00219629,10,0.00111731,-1.61142,1.42244,0.0414781,-39.6135,-0.0456662,
2,0,0,1,0,46509.1,-0.0476985,-0.0480627,-24.3737,24,0.00204979,10,0.00117147,-1.61308,1.62572,0.0362917,-34.5411,-0.0480627,
2,0,0,1,0,46509.1,-0.0500956,-0.0504539,-24.2984,24,0.00190379,10,0.00122595,-1.61442,1.82944,0.0322503,-30.592,-0.0504539,
2,0,0,1,0,46509.2,-0.0524927,-0.0528876,-24.2276,24,0.0017582,10,0.00128134,-1.61569,2.1624,0.0272845,-25.8141,-0.0528876,
2,0,0,1,0,46509.2,-0.0548981,-0.0552427,-24.1748,24,0.00161301,10,0.00133548,-1.61664,2.50991,0.0235068,-22.1908,-0.05524274,
2,0,0,1,0,46509.2,-0.0572953,-0.0576499,-24.1198,24,0.00146812,10,0.0013905,-1.61763,3.21772,0.0183359,-17.2709,-0.0576499,
2,0,0,1,0,46509.2,-0.0596924,-0.0600644,-24.088,24,0.00132348,10,0.00144683,-1.6182,4.77747,0.0123496,-11.6162,-0.0600644,
2,0,0,1,0,46509.2,-0.062095,-0.0624737,-24.0649,24,0.00117903,10,0.00150342,-1.61862,5.20993,0.0113245,-10.6365,-0.0624737,
2,0,0,1,0,46509.2,-0.0644977,-0.0648744,-24.0459,24,0.00103469,10,0.00155996,-1.61896,11.7088,0.00503894,-4.73002,-0.0648744,
2,0,0,1,0,46509.2,-0.0668948,-0.0672656,-24.0338,24,0.000890455,10,0.00161665,-1.61918,22.5539,0.00261596,-2.45494,-0.06726563,
2,0,0,1,0,46509.2,-0.0692919,-0.0696441,-24.0392,24,0.000746228,10,0.00167419,-1.61908,-30.7601,-0.00191807,1.80014,-0.0696441,
2,0,0,1,0,46509.2,-0.0717001,-0.0720332,-24.0488,24,0.000601964,10,0.00173231,-1.61891,-9.54326,-0.00618238,5.80479,-0.0720332,
2,0,0,1,0,46509.2,-0.0740972,-0.0744563,-24.0658,24,0.000457638,10,0.00179185,-1.6186,-7.01869,-0.00840613,7.89928,-0.0744563,
2,0,0,1,0,46509.2,-0.0764943,-0.0768655,-24.1016,24,0.000313148,10,0.00185258,-1.61795,-4.29388,-0.0137405,12.9214,-0.0768655,
2,0,0,1,0,46509.2,-0.0788997,-0.0792673,-24.125,24,0.000168515,10,0.00191233,-1.61753,-3.68917,-0.0159927,15.0637,-0.0792673,
2,0,0,1,0,46509.2,-0.0812968,-0.0816554,-24.1642,24,2.36413e-05,10,0.00197313,-1.61683,-2.9136,-0.0202499,19.0978,-0.0816554,
2,0,0,1,0,46509.2,-0.0836939,-0.0840688,-24.2183,24,-0.000121521,10,0.002036,-1.61586,-2.4867,-0.0237262,22.4275,-0.0840688,
2,0,0,1,0,46509.2,-0.086091,-0.086442,-24.2722,24,-0.000266967,10,0.00209814,-1.61489,-2.18897,-0.0269534,25.5437,-0.086442,
2,0,0,1,0,46509.2,-0.0884992,-0.088863,-24.3375,24,-0.000412811,10,0.00216271,-1.61372,-1.94069,-0.0304015,28.8786,-0.088863,
2,0,0,1,0,46509.2,-0.0908963,-0.0912319,-24.4084,24,-0.000559063,10,0.00222682,-1.61246,-1.87252,-0.0315084,30.0235,-0.09123189,
2,0,0,1,0,46509.3,-0.0932935,-0.093674,-24.4867,24,-0.000705742,10,0.00229377,-1.61107,-1.66762,-0.0353798,33.8219,-0.093674,
2,0,0,1,0,46509.3,-0.0956989,-0.0960748,-24.5743,24,-0.000852911,10,0.00236097,-1.60952,-1.48452,-0.0397435,38.1232,-0.0960748,
2,0,0,1,0,46509.3,-0.098096,-0.0984575,-24.661,24,-0.00100063,10,0.00242806,-1.60799,-1.85692,-0.0317731,30.5243,-0.0984575,
2,0,0,0,0,46509.3,-0.0999548,-0.100324,-24.7246,24,-0.00111673,10,0.00248047,-1.60687,0.0283272,2.0828,-1890.47,-0.1003238,
2,0,0,1,1,46509.3,-0.0994555,-0.0998912,-23.4149,24,-0.00115735,10,0.00233894,-1.63051,-0.0263371,-2.24018,1878.69,-0.0998912,
2,0,0,1,1,46509.3,-0.0970583,-0.0974416,-19.562,24,-0.00128514,10,0.00190615,-1.70859,-0.032091,-1.83852,1428.23,-0.0974416,
2,0,0,1,1,46509.3,-0.0946501,-0.0950483,-16.6875,24,-0.00139336,10,0.00158611,-1.77761,-0.035219,-1.67523,1102.14,-0.0950483,
2,0,0,1,1,46509.3,-0.092253,-0.0926178,-14.2708,24,-0.00148586,10,0.00132173,-1.84555,-0.0344453,-1.71286,957.461,-0.0926178,
2,0,0,1,1,46509.3,-0.0898559,-0.0902818,-12.1518,24,-0.00156481,10,0.00109708,-1.91536,-0.0330327,-1.78611,845.715,-0.09028177,
2,0,0,1,1,46509.3,-0.0874588,-0.0878662,-10.2362,24,-0.00163169,10,0.000899418,-1.98986,-0.030674,-1.92345,765.079,-0.0878662,
2,0,0,1,1,46509.3,-0.0850534,-0.0854453,-8.48894,24,-0.00168758,10,0.000725339,-2.07115,-0.0279593,-2.11021,693.333,-0.0854453,
2,0,0,1,1,46509.3,-0.0826563,-0.0830402,-6.88607,24,-0.0017335,10,0.000571821,-2.16203,-0.0240959,-2.44854,647.8,-0.0830402,
2,0,0,1,1,46509.3,-0.0802592,-0.0806257,-5.39839,24,-0.00177015,10,0.000435249,-2.26774,-0.0203668,-2.89687,595.607,-0.0806257,
2,0,0,1,1,46509.3,-0.077851,-0.0782271,-4.01686,24,-0.0017982,10,0.000314227,-2.39611,-0.0157897,-3.73661,558.418,-0.0782271,
2,0,0,1,1,46509.3,-0.0754539,-0.0758263,-2.73306,24,-0.00181831,10,0.000207238,-2.56335,-0.0107054,-5.51125,523.263,-0.0758263,
2,0,0,1,1,46509.3,-0.0730568,-0.0734531,-1.51831,24,-0.00183091,10,0.000111525,-2.81864,-0.00304701,-19.3633,492.02,-0.0734531,
2,0,0,1,1,46509.3,-0.0706597,-0.0710375,-0.398506,24,-0.0018365,10,2.83088e-05,-3.39957,-0.0228959,-2.57688,461.691,-0.0710375,
2,1,0,1,1,46509.3,-0.0682542,-0.0686463,0.680204,24,-0.00183551,10,-4.66935e-05,-3.16736,0.0150632,3.91683,434.282,-0.0686463,
2,1,0,1,1,46509.4,-0.0658571,-0.0662137,1.68439,24,-0.00182831,10,-0.00011153,-2.77356,0.00668688,8.82325,407.474,-0.0662137,
2,1,0,1,1,46509.4,-0.06346,-0.063867,2.62904,24,-0.00181524,10,-0.000167909,-2.5802,0.014186,4.15903,385.726,-0.063867,
2,1,0,1,1,46509.4,-0.0610518,-0.0614843,3.52987,24,-0.00179665,10,-0.000217032,-2.45224,0.0208661,2.82755,369.654,-0.0614843,
2,1,0,1,1,46509.4,-0.0586547,-0.059075,4.37774,24,-0.00177283,10,-0.000258615,-2.35875,0.0279796,2.10868,349.324,-0.05907505,
2,1,0,1,1,46509.4,-0.0562576,-0.0566913,5.17896,24,-0.00174406,10,-0.000293602,-2.28576,0.035635,1.65568,327.904,-0.0566913,
2,1,0,1,1,46509.4,-0.053855,-0.0542682,5.96033,24,-0.00171057,10,-0.000323456,-2.22473,0.0431961,1.36587,312.319,-0.0542682,
2,1,0,1,1,46509.4,-0.0514523,-0.0518516,6.67071,24,-0.00167257,10,-0.000345886,-2.17583,0.0515102,1.14541,295.024,-0.0518516,
2,1,0,1,1,46509.4,-0.0490552,-0.0494678,7.37066,24,-0.00163034,10,-0.00036461,-2.13249,0.0598381,0.985995,281.211,-0.0494678,
2,1,0,1,1,46509.4,-0.0466581,-0.0470744,8.02574,24,-0.00158405,10,-0.000377807,-2.09552,0.0691705,0.852964,265.22,-0.0470744,
2,1,0,1,1,46509.4,-0.0442527,-0.0446355,8.64739,24,-0.00153394,10,-0.00038598,-2.06312,0.0787238,0.749455,251.49,-0.0446355,
2,1,0,1,1,46509.4,-0.0418556,-0.0422708,9.23748,24,-0.00148022,10,-0.000390476,-2.03445,0.0887422,0.664847,238.297,-0.04227078,
2,1,0,1,1,46509.4,-0.0394585,-0.0398626,9.80207,24,-0.00142302,10,-0.000390736,-2.00868,0.0985279,0.598815,227.988,-0.0398626,
2,1,0,1,1,46509.4,-0.0370558,-0.0374523,10.3278,24,-0.0013626,10,-0.0003868,-1.98599,0.111122,0.530948,213.281,-0.0374523,
2,1,0,1,1,46509.4,-0.0346532,-0.0350335,10.833,24,-0.00129905,10,-0.000379519,-1.96525,0.121822,0.484312,203.897,-0.0350335,
2,1,0,1,1,46509.4,-0.0322561,-0.032619,11.3042,24,-0.00123256,10,-0.00036873,-1.94676,0.13505,0.436877,192.092,-0.032619,
2,1,0,1,1,46509.4,-0.0298589,-0.0302203,11.7423,24,-0.00116335,10,-0.000354856,-1.93025,0.149083,0.395754,181.079,-0.0302203,
2,1,0,1,1,46509.5,-0.0274535,-0.0278079,12.1768,24,-0.00109152,10,-0.000338612,-1.91447,0.163335,0.36122,171.233,-0.0278079,
2,1,0,1,1,46509.5,-0.0250564,-0.0254411,12.5803,24,-0.00101721,10,-0.000320056,-1.90031,0.179693,0.328338,160.836,-0.0254411,
2,1,0,1,1,46509.5,-0.0226593,-0.0230498,12.9558,24,-0.000940543,10,-0.000298629,-1.88754,0.196066,0.300919,151.806,-0.0230498,
2,1,0,1,1,46509.5,-0.0202511,-0.0206258,13.3175,24,-0.000861699,10,-0.000274684,-1.87558,0.212407,0.277768,144.107,-0.0206258,
2,1,0,1,1,46509.5,-0.017854,-0.0182504,13.6494,24,-0.000780775,10,-0.000249108,-1.86489,0.228277,0.258458,137.467,-0.0182504,
2,1,0,1,1,46509.5,-0.0154569,-0.0158189,13.9752,24,-0.000697848,10,-0.000221073,-1.85464,0.249936,0.23606,128.514,-0.0158189,
2,1,0,1,1,46509.5,-0.0130598,-0.0134415,14.2606,24,-0.000613092,10,-0.000191684,-1.84586,0.267428,0.22062,122.792,-0.0134415,
2,1,0,1,1,46509.5,-0.0106516,-0.0110365,14.5599,24,-0.000526575,10,-0.00016069,-1.83684,0.289324,0.203924,115.734,-0.0110365,
2,1,0,1,1,46509.5,-0.00825448,-0.0086633,14.8321,24,-0.000438354,10,-0.000128495,-1.8288,0.317329,0.185927,107.439,-0.0086633,
2,1,0,1,1,46509.5,-0.00585738,-0.00622225,15.0736,24,-0.000348609,10,-9.37915e-05,-1.82178,0.342471,0.172277,101.309,-0.00622225,
2,1,0,1,1,46509.5,-0.00345195,-0.00381724,15.3132,24,-0.000257424,10,-5.84541e-05,-1.81493,0.361302,0.163298,97.4622,-0.00381724,
2,1,0,1,1,46509.5,-0.00105485,-0.00138043,15.5393,24,-0.000164822,10,-2.14509e-05,-1.80857, , , ,-0.00138043,
2,1,0,0,1,46509.5,-7.54729e-05,-0.000382585,15.6348,24,-0.000125869,10,-5.98163e-06,-1.80591, , , ,-0.000382585,