File: Figure_codes/Fig_3-5/rawdata_trumpetplot_data/after 10th/20221101_1-115_003_TrumpetPlot_ParaChange_from10_every3_03_CV_C01_24.csv
mode,ox/red,error,control changes,counter inc.,time/s,control/V,Ewe/V,<I>/mA,cycle number,(Q-Qo)/C,I Range,P/W,log(|I|),Tafel slope mV/dec,alpha_eff,dI/d(E-IR),E-IR/V,
2,0,0,1,0,48223.1,2.44065e-05,-0.00042076,-0.101938,25,0.0000000E+000,10,4.28915e-08,-3.99166, , , ,-0.00042076,
2,1,0,0,0,48223.4,0.00129787,0.000901567,0.12669,25,2.00684e-05,10,1.1422e-07,-3.89726, , , ,0.000901567,
2,1,0,0,0,48223.7,0.00279606,0.00246355,0.169647,25,6.98706e-05,10,4.17934e-07,-3.77045,0.0143048,4.12448,21.798,0.00246355,
2,1,0,1,0,48224,0.00429469,0.00400788,0.180549,25,0.000126123,10,7.23618e-07,-3.74341,0.0564079,1.04595,7.30366,0.00400788,
2,1,0,1,0,48224.3,0.00579255,0.00546783,0.189092,25,0.000185622,10,1.03392e-06,-3.72333,0.0705722,0.836024,6.15773,0.00546783,
2,1,0,1,0,48224.6,0.00729041,0.00695632,0.199564,25,0.000248009,10,1.38823e-06,-3.69992,0.0816238,0.722828,5.5926,0.00695632,
2,1,0,1,0,48224.9,0.00878882,0.00842833,0.206985,25,0.000312927,10,1.74454e-06,-3.68406,0.0980884,0.601499,4.84274,0.00842833,
2,1,0,1,0,48225.2,0.010287,0.00999031,0.213512,25,0.000379961,10,2.13305e-06,-3.67058,0.12551,0.470082,3.90077,0.00999031,
2,1,0,1,0,48225.5,0.0117852,0.0115088,0.219454,25,0.000448862,10,2.52565e-06,-3.65866,0.125013,0.471949,4.04456,0.0115088,
2,1,0,1,0,48225.8,0.0132836,0.0129447,0.226013,25,0.000519413,10,2.92568e-06,-3.64587,0.128988,0.457407,4.02998,0.0129447,
2,1,0,1,0,48226.1,0.0147815,0.0144748,0.230829,25,0.000591912,10,3.3412e-06,-3.63671,0.147272,0.400619,3.61247,0.0144748,
2,1,0,1,0,48226.4,0.0162793,0.0159642,0.236666,25,0.000666164,10,3.77818e-06,-3.62586,0.175518,0.336148,3.09832,0.0159642,
2,1,0,0,0,48226.7,0.017778,0.0174269,0.241565,25,0.000741814,10,4.20973e-06,-3.61697,0.18175,0.324622,3.06324,0.0174269,
2,1,0,0,0,48227,0.0192761,0.0189359,0.246827,25,0.000818674,10,4.67388e-06,-3.60761,0.169052,0.349006,3.35257,0.0189359,
2,1,0,1,0,48227.3,0.0207747,0.0204358,0.251212,25,0.000897298,10,5.13371e-06,-3.59996,0.150204,0.3928,3.84416,0.0204358,
2,1,0,1,0,48227.6,0.0222725,0.0219388,0.257153,25,0.000977454,10,5.64163e-06,-3.58981,0.177129,0.333091,3.32695,0.02193884,
2,1,0,1,0,48227.9,0.0237704,0.0234538,0.261427,25,0.00105917,10,6.13147e-06,-3.58265,0.183005,0.322396,3.29189,0.0234538,
2,1,0,1,0,48228.2,0.0252689,0.0249548,0.266052,25,0.00114211,10,6.63926e-06,-3.57503,0.182914,0.322556,3.3631,0.0249548,
2,1,0,1,0,48228.5,0.0267671,0.0264924,0.27176,25,0.0012268,10,7.19956e-06,-3.56581,0.150465,0.392118,4.15254,0.0264924,
2,1,0,1,0,48228.8,0.0282657,0.0279012,0.277492,25,0.00131324,10,7.74236e-06,-3.55675,0.190238,0.310138,3.35336,0.0279012,
2,1,0,1,0,48229.1,0.0297635,0.0294605,0.282175,25,0.0014012,10,8.313e-06,-3.54948,0.185767,0.317603,3.50015,0.0294605,
2,1,0,1,0,48229.4,0.0312613,0.0309595,0.285278,25,0.00149046,10,8.83205e-06,-3.54473,0.192444,0.306583,3.43664,0.03095947,
2,1,0,0,0,48229.7,0.0327599,0.0324455,0.293699,25,0.00158132,10,9.52919e-06,-3.5321,0.165851,0.355742,4.06507,0.0324455,
2,1,0,0,0,48230,0.034258,0.0339587,0.299162,25,0.00167397,10,1.01592e-05,-3.52409,0.190818,0.309195,3.59825,0.0339587,
2,1,0,1,0,48230.3,0.0357567,0.035432,0.30373,25,0.00176833,10,1.07618e-05,-3.51751,0.223345,0.264166,3.12569,0.035432,
2,1,0,1,0,48230.6,0.0372545,0.0369235,0.308947,25,0.00186417,10,1.14074e-05,-3.51012,0.194357,0.303566,3.66306,0.0369235,
2,1,0,1,0,48230.9,0.0387524,0.0383951,0.314465,25,0.00196138,10,1.20739e-05,-3.50243,0.193094,0.305551,3.75883,0.0383951,
2,1,0,1,0,48231.2,0.0402508,0.0399118,0.319172,25,0.00206034,10,1.27387e-05,-3.49597,0.209982,0.280977,3.50627,0.0399118,
2,1,0,1,0,48231.5,0.041749,0.0414579,0.32522,25,0.002161,10,1.34829e-05,-3.48782,0.239564,0.24628,3.11052,0.0414579,
2,1,0,1,0,48231.8,0.0432472,0.0429287,0.329689,25,0.00226298,10,1.41531e-05,-3.4819,0.258125,0.228571,2.93938,0.0429287,
2,1,0,1,0,48232.1,0.0447456,0.0443871,0.334422,25,0.00236626,10,1.4844e-05,-3.4757,0.233604,0.252564,3.28726,0.0443871,
2,1,0,1,0,48232.4,0.0462435,0.0459041,0.340215,25,0.00247117,10,1.56173e-05,-3.46825,0.226732,0.260219,3.44494,0.0459041,
2,1,0,1,0,48232.7,0.0477413,0.0474328,0.343772,25,0.0025776,10,1.63061e-05,-3.46373,0.219949,0.268244,3.60719,0.0474328,
2,1,0,0,0,48233,0.0492399,0.048939,0.349025,25,0.00268551,10,1.70809e-05,-3.45714,0.275885,0.213857,2.91343,0.048939,
2,1,0,0,0,48233.3,0.0507381,0.0504183,0.352112,25,0.00279465,10,1.77529e-05,-3.45332,0.28151,0.209584,2.89173,0.0504183,
2,1,0,1,0,48233.6,0.0522367,0.0519001,0.357764,25,0.00290523,10,1.8568e-05,-3.4464,0.220589,0.267466,3.73548,0.0519001,
2,1,0,1,0,48233.9,0.0537345,0.0534267,0.364908,25,0.00301733,10,1.94958e-05,-3.43782,0.251264,0.234813,3.3266,0.0534267,
2,1,0,1,0,48234.2,0.0552323,0.0549001,0.36719,25,0.00313101,10,2.01588e-05,-3.43511,0.325903,0.181035,2.58857,0.0549001,
2,1,0,1,0,48234.5,0.0567309,0.056434,0.36983,25,0.00324582,10,2.0871e-05,-3.432,0.323876,0.182169,2.6429,0.056434,
2,1,0,1,0,48234.8,0.0582291,0.0579313,0.376658,25,0.0033617,10,2.18203e-05,-3.42405,0.301195,0.195886,2.87716,0.0579313,
2,1,0,1,0,48235.1,0.0597277,0.05941,0.38022,25,0.00347911,10,2.25888e-05,-3.41997,0.312178,0.188995,2.80168,0.05941,
2,1,0,1,0,48235.4,0.0612255,0.060912,0.383904,25,0.00359776,10,2.33844e-05,-3.41578,0.433336,0.136153,2.03756,0.060912,
2,1,0,1,0,48235.7,0.0627233,0.0624069,0.388102,25,0.0037176,10,2.42203e-05,-3.41105,0.353718,0.1668,2.52359,0.0624069,
2,1,0,0,0,48236,0.0642218,0.0638929,0.391539,25,0.00383828,10,2.50165e-05,-3.40723,0.340358,0.173347,2.65401,0.0638929,
2,1,0,0,0,48236.3,0.06572,0.0653976,0.39513,25,0.00396037,10,2.58405e-05,-3.40326,0.349681,0.168725,2.60115,0.0653976,
2,1,0,1,0,48236.6,0.0672187,0.0669313,0.400346,25,0.00408382,10,2.67957e-05,-3.39756,0.420823,0.140202,2.18063,0.0669313,
2,1,0,1,0,48236.9,0.0687165,0.0684305,0.40346,25,0.0042081,10,2.76089e-05,-3.3942,0.462297,0.127624,2.00358,0.0684305,
2,1,0,1,0,48237.2,0.0702144,0.0699198,0.405761,25,0.00433312,10,2.83707e-05,-3.39173,0.369529,0.159663,2.5314,0.0699198,
2,1,0,1,0,48237.5,0.0717128,0.0713783,0.409322,25,0.00445934,10,2.92167e-05,-3.38793,0.352663,0.167299,2.66646,0.0713783,
2,1,0,1,0,48237.8,0.073211,0.0729021,0.412232,25,0.0045867,10,3.00526e-05,-3.38486,0.506359,0.116518,1.87612,0.0729021,
2,1,0,1,0,48238.1,0.0747092,0.0743899,0.415623,25,0.00471482,10,3.09181e-05,-3.3813,0.580071,0.101712,1.64747,0.0743899,
2,1,0,1,0,48238.4,0.0762076,0.0758639,0.416849,25,0.00484378,10,3.16238e-05,-3.38002,0.510239,0.115632,1.88875,0.0758639,
2,1,0,1,0,48238.7,0.0777054,0.077393,0.421076,25,0.00497342,10,3.25883e-05,-3.37564,0.517081,0.114102,1.87597,0.07739298,
2,1,0,1,0,48239,0.0792033,0.0789151,0.424703,25,0.00510409,10,3.35155e-05,-3.37191,0.50187,0.11756,1.94532,0.0789151,
2,1,0,0,0,48239.3,0.0807019,0.0803504,0.427857,25,0.00523584,10,3.43785e-05,-3.3687,0.585105,0.100837,1.67668,0.0803504,
2,1,0,0,0,48239.6,0.0822001,0.081871,0.428769,25,0.00536828,10,3.51037e-05,-3.36778,0.498949,0.118249,1.98719,0.081871,
2,1,0,1,0,48239.9,0.0836986,0.0834047,0.433451,25,0.00550154,10,3.61519e-05,-3.36306,0.450797,0.130879,2.21522,0.08340475,
2,1,0,1,0,48240.2,0.0851965,0.0848582,0.436508,25,0.00563599,10,3.70413e-05,-3.36001,0.365038,0.161627,2.76334,0.0848582,
2,1,0,1,0,48240.5,0.0866944,0.0863997,0.440665,25,0.00577147,10,3.80733e-05,-3.35589,0.481593,0.12251,2.10787,0.0863997,
2,1,0,1,0,48240.8,0.0881929,0.0879058,0.444878,25,0.00590833,10,3.91074e-05,-3.35176,0.310186,0.190208,3.3045,0.0879058,
2,1,0,1,0,48241.1,0.0896911,0.0893935,0.449144,25,0.00604607,10,4.01505e-05,-3.34761,0.313389,0.188264,3.31332,0.0893935,
2,1,0,1,0,48241.4,0.0911897,0.0909114,0.455208,25,0.00618566,10,4.13836e-05,-3.34179,0.254785,0.231567,4.0986,0.0909114,
2,1,0,1,0,48241.7,0.0926875,0.0923819,0.461374,25,0.00632707,10,4.26226e-05,-3.33595,0.27814,0.212124,3.81507,0.0923819,
2,1,0,1,0,48242,0.0941853,0.093935,0.46697,25,0.00647,10,4.38649e-05,-3.33071,0.27428,0.215109,3.9209,0.093935,
2,1,0,0,0,48242.3,0.0956838,0.0953732,0.471157,25,0.00661462,10,4.49358e-05,-3.32683,0.23595,0.250053,4.62433,0.0953732,
2,1,0,0,0,48242.6,0.097182,0.0968068,0.479862,25,0.00676135,10,4.64539e-05,-3.31888,0.204691,0.288239,5.3918,0.0968068,
2,1,0,1,0,48242.9,0.0986807,0.0983564,0.485751,25,0.00691051,10,4.77768e-05,-3.31359,0.213291,0.276618,5.26509,0.0983564,
2,1,0,1,0,48243.2,0.100179,0.0998494,0.493972,25,0.00706179,10,4.93228e-05,-3.3063,0.226809,0.26013,5.03088,0.0998494,
2,1,0,1,0,48243.5,0.101676,0.101406,0.500759,25,0.00721536,10,5.07797e-05,-3.30037,0.203073,0.290535,5.71183,0.101406,
2,1,0,1,0,48243.8,0.103175,0.102916,0.512212,25,0.00737129,10,5.27148e-05,-3.29055,0.212839,0.277204,5.52811,0.102916,
2,1,0,1,0,48244.1,0.104673,0.104371,0.521329,25,0.00752993,10,5.44115e-05,-3.28289,0.217545,0.271208,5.49125,0.104371,
2,1,0,1,0,48244.4,0.106171,0.105869,0.527518,25,0.00769111,10,5.58478e-05,-3.27776,0.23974,0.2461,5.05484,0.105869,
2,1,0,1,0,48244.7,0.10767,0.107405,0.53407,25,0.00785439,10,5.73617e-05,-3.2724,0.267134,0.220863,4.61634,0.107405,
2,1,0,1,0,48245,0.109167,0.108831,0.541699,25,0.00801963,10,5.89535e-05,-3.26624,0.278533,0.211824,4.48733,0.108831,
2,1,0,1,0,48245.3,0.110665,0.110324,0.549051,25,0.00818722,10,6.05738e-05,-3.26039,0.271314,0.21746,4.66274,0.110324,
2,1,0,0,0,48245.6,0.112164,0.111815,0.556642,25,0.00835696,10,6.22408e-05,-3.25442,0.33712,0.175012,3.7892,0.111815,
2,1,0,0,0,48245.9,0.113662,0.11336,0.561749,25,0.00852847,10,6.36798e-05,-3.25046,0.381261,0.15475,3.38704,0.11336,
2,1,0,1,0,48246.2,0.115161,0.114806,0.567602,25,0.00870129,10,6.51639e-05,-3.24596,0.334745,0.176254,3.8975,0.114806,
2,1,0,1,0,48246.5,0.116658,0.11631,0.572505,25,0.00887587,10,6.6588e-05,-3.24222,0.325615,0.181195,4.03158,0.11631,
2,1,0,1,0,48246.8,0.118156,0.117827,0.576899,25,0.00905236,10,6.79741e-05,-3.2389,0.428621,0.137651,3.09691,0.1178267,
2,1,0,1,0,48247.1,0.119655,0.119326,0.581329,25,0.00923005,10,6.93675e-05,-3.23558,0.634394,0.0930021,2.11241,0.119326,
2,1,0,1,0,48247.4,0.121153,0.120844,0.583229,25,0.00940854,10,7.04798e-05,-3.23416,0.576108,0.102411,2.33955,0.120844,
2,1,0,1,0,48247.7,0.122652,0.122297,0.58922,25,0.00958835,10,7.20601e-05,-3.22972,0.45883,0.128588,2.94941,0.122297,
2,1,0,1,0,48248,0.124149,0.123808,0.592505,25,0.00976954,10,7.33569e-05,-3.22731,0.566331,0.104179,2.40738,0.123808,
2,1,0,1,0,48248.3,0.125647,0.125302,0.595024,25,0.0099516,10,7.45575e-05,-3.22547,1.06118,0.0555983,1.29189,0.125302,
2,1,0,0,0,48248.6,0.127146,0.126816,0.595957,25,0.0101345,10,7.5577e-05,-3.22479,0.831509,0.0709553,1.65459,0.126816,
2,1,0,0,0,48248.9,0.128644,0.128367,0.599568,25,0.0103178,10,7.69645e-05,-3.22216,1.04691,0.0563566,1.31823,0.128367,
2,1,0,1,0,48249.2,0.130143,0.129799,0.60253,25,0.010502,10,7.82075e-05,-3.22002,6.62368,0.00890743,0.208474,0.129799,
2,1,0,1,0,48249.5,0.131641,0.131297,0.60125,25,0.0106864,10,7.89421e-05,-3.22094,-0.768323,-0.0767907,-1.79527,0.131297,
2,1,0,1,0,48249.8,0.133138,0.132847,0.597969,25,0.0108701,10,7.94383e-05,-3.22332,-0.555529,-0.106205,-2.47325,0.132847,
2,1,0,1,0,48250.1,0.134637,0.134281,0.593555,25,0.0110525,10,7.97029e-05,-3.22654,-0.348025,-0.169528,-3.91814,0.134281,
2,1,0,1,0,48250.4,0.136135,0.135827,0.586999,25,0.0112333,10,7.97301e-05,-3.23136,-0.256086,-0.230392,-5.24771,0.1358266,
2,1,0,1,0,48250.7,0.137633,0.13735,0.578052,25,0.0114118,10,7.93958e-05,-3.23803,-0.175876,-0.335464,-7.51232,0.13735,
2,1,0,1,0,48251,0.139132,0.138856,0.563754,25,0.0115869,10,7.82808e-05,-3.24891,-0.135861,-0.434268,-9.51786,0.138856,
2,1,0,1,0,48251.3,0.140629,0.140306,0.548576,25,0.0117573,10,7.69683e-05,-3.26076,-0.112416,-0.524835,-11.2006,0.140306,
2,1,0,1,0,48251.6,0.142127,0.141801,0.531738,25,0.011923,10,7.54007e-05,-3.2743,-0.10159,-0.580766,-11.9808,0.1418006,
2,1,0,0,0,48251.9,0.143626,0.143306,0.512318,25,0.0120835,10,7.34181e-05,-3.29046,-0.0835795,-0.705914,-14.0502,0.143306,
2,1,0,0,0,48252.2,0.145124,0.144825,0.490372,25,0.0122376,10,7.10183e-05,-3.30947,-0.0774937,-0.761352,-14.5827,0.144825,
2,1,0,1,0,48252.5,0.146623,0.146326,0.467801,25,0.0123851,10,6.84514e-05,-3.32994,-0.0783181,-0.753338,-13.7998,0.146326,
2,1,0,1,0,48252.8,0.14812,0.147794,0.448147,25,0.0125263,10,6.62335e-05,-3.34858,-0.0816122,-0.722931,-12.6421,0.147794,
2,1,0,1,0,48253.1,0.149618,0.149297,0.428471,25,0.0126616,10,6.39693e-05,-3.36808,-0.0805726,-0.732259,-12.2846,0.149297,
2,1,0,1,0,48253.4,0.151117,0.150821,0.411725,25,0.0127913,10,6.20967e-05,-3.38539,-0.0819734,-0.719746,-11.5573,0.150821,
2,1,0,1,0,48253.7,0.152615,0.15228,0.393388,25,0.0129159,10,5.99051e-05,-3.40518,-0.0909932,-0.6484,-10.036,0.15228,
2,1,0,1,0,48254,0.154114,0.153799,0.381001,25,0.0130359,10,5.85975e-05,-3.41907,-0.105046,-0.561657,-8.39914,0.153799,
2,1,0,1,0,48254.3,0.155612,0.155263,0.370511,25,0.0131525,10,5.75266e-05,-3.4312,-0.125253,-0.471048,-6.8269,0.155263,
2,1,0,1,0,48254.6,0.157109,0.156832,0.360922,25,0.013266,10,5.6604e-05,-3.44259,-0.126847,-0.465129,-6.55617,0.1568318,
2,1,0,0,0,48254.9,0.158608,0.158292,0.352392,25,0.0133767,10,5.57809e-05,-3.45297,-0.156202,-0.377717,-5.21589,0.1582924,
2,1,0,0,0,48255.2,0.160106,0.159835,0.345335,25,0.0134849,10,5.51967e-05,-3.46176,-0.186813,-0.315825,-4.26555,0.159835,
2,1,0,1,0,48255.5,0.161605,0.161293,0.340912,25,0.0135914,10,5.49867e-05,-3.46736,-0.229436,-0.257152,-3.41599,0.161293,
2,1,0,1,0,48255.8,0.163102,0.162794,0.335217,25,0.0136962,10,5.45712e-05,-3.47467,-0.257999,-0.228683,-2.98637,0.162794,
2,1,0,1,0,48256.1,0.1646,0.164293,0.330246,25,0.0137996,10,5.4257e-05,-3.48116,-0.285891,-0.206373,-2.66347,0.164293,
2,1,0,1,0,48256.4,0.166099,0.165816,0.32665,25,0.0139017,10,5.41638e-05,-3.48592,-0.343399,-0.171812,-2.19297,0.165816,
2,1,0,1,0,48256.7,0.167597,0.167273,0.323449,25,0.0140027,10,5.41043e-05,-3.49019,-0.391716,-0.150619,-1.89701,0.167273,
2,1,0,1,0,48257,0.169095,0.168824,0.320013,25,0.014103,10,5.4026e-05,-3.49483,-0.433878,-0.135983,-1.70271,0.168824,
2,1,0,1,0,48257.3,0.170594,0.170319,0.317323,25,0.0142024,10,5.4046e-05,-3.4985,-0.344284,-0.17137,-2.12702,0.170319,
2,1,0,1,0,48257.6,0.172091,0.171753,0.315016,25,0.0143009,10,5.41049e-05,-3.50167,-0.480872,-0.122694,-1.50807,0.171753,
2,1,0,1,0,48257.9,0.173589,0.173281,0.312902,25,0.0143986,10,5.42199e-05,-3.50459,-0.609328,-0.096828,-1.18278,0.173281,
2,1,0,0,0,48258.2,0.175088,0.174786,0.311675,25,0.0144958,10,5.44765e-05,-3.5063,-0.639472,-0.0922637,-1.1207,0.174786,
2,1,0,0,0,48258.5,0.176586,0.176254,0.309507,25,0.0145926,10,5.45517e-05,-3.50933,-0.517771,-0.11395,-1.36942,0.176254,
2,1,0,1,0,48258.8,0.178085,0.177766,0.30684,25,0.0146888,10,5.45457e-05,-3.51309,-0.743671,-0.0793362,-0.953468,0.177766,
2,1,0,1,0,48259.1,0.179582,0.179239,0.306768,25,0.0147844,10,5.49847e-05,-3.51319,-0.739114,-0.0798253,-0.953248,0.179239,
2,1,0,1,0,48259.4,0.18108,0.180784,0.304419,25,0.0148798,10,5.50341e-05,-3.51653,-1.03949,-0.0567583,-0.676854,0.180784,
2,1,0,1,0,48259.7,0.182579,0.182263,0.302456,25,0.0149748,10,5.51265e-05,-3.51934,-0.60788,-0.0970586,-1.14978,0.182263,
2,1,0,1,0,48260,0.184077,0.183757,0.302425,25,0.0150694,10,5.55727e-05,-3.51938,-1.1218,-0.052594,-0.621846,0.183757,
2,1,0,1,0,48260.3,0.185576,0.185293,0.301997,25,0.0151635,10,5.59578e-05,-3.52,-1.05392,-0.0559813,-0.659672,0.1852928,
2,1,0,1,0,48260.6,0.187074,0.186773,0.300513,25,0.0152575,10,5.61276e-05,-3.52214,-0.999664,-0.0590198,-0.691464,0.1867729,
2,1,0,1,0,48260.9,0.188571,0.188243,0.300096,25,0.0153514,10,5.6491e-05,-3.52274,-0.987549,-0.0597439,-0.698761,0.188243,
2,1,0,0,0,48261.2,0.19007,0.18978,0.300004,25,0.015445,10,5.69349e-05,-3.52287,-1.53452,-0.0384484,-0.449095,0.1897801,
2,1,0,0,0,48261.5,0.191568,0.191268,0.298569,25,0.0155381,10,5.71067e-05,-3.52496,-1.57926,-0.0373593,-0.435662,0.191268,
2,1,0,1,0,48261.8,0.193067,0.192732,0.297531,25,0.0156312,10,5.73436e-05,-3.52647,3.4953,0.0168798,0.19606,0.192732,
2,1,0,1,0,48262.1,0.194564,0.194257,0.296703,25,0.0157241,10,5.76367e-05,-3.52768,-3.12046,-0.0189075,-0.219537,0.194257,
2,1,0,1,0,48262.4,0.196062,0.195765,0.295929,25,0.0158168,10,5.79324e-05,-3.52881,-0.94087,-0.0627079,-0.726563,0.195765,
2,1,0,1,0,48262.7,0.197561,0.197218,0.294179,25,0.0159092,10,5.80172e-05,-3.53139,-0.996757,-0.059192,-0.682974,0.197218,
2,1,0,1,0,48263,0.199059,0.198748,0.294536,25,0.0160013,10,5.85385e-05,-3.53086,-1.59706,-0.036943,-0.424515,0.198748,
2,1,0,1,0,48263.3,0.200557,0.200187,0.294966,25,0.0160933,10,5.90483e-05,-3.53023,-1.07992,-0.0546335,-0.626016,0.200187,
2,1,0,1,0,48263.6,0.202056,0.201737,0.293884,25,0.0161852,10,5.92872e-05,-3.53182,-1.37698,-0.0428474,-0.489947,0.201737,
2,1,0,1,0,48263.9,0.203553,0.203285,0.292348,25,0.0162769,10,5.94302e-05,-3.5341,-1.40171,-0.0420915,-0.481876,0.203285,
2,1,0,1,0,48264.1,0.205051,0.204751,0.292727,25,0.0163683,10,5.99362e-05,-3.53354,11.4092,0.00517128,0.0595545,0.204751,
2,1,0,0,0,48264.4,0.20655,0.206226,0.293016,25,0.0164597,10,6.04274e-05,-3.53311,-2.5625,-0.0230244,-0.262847,0.206226,
2,1,0,0,0,48264.7,0.208048,0.207726,0.291936,25,0.0165513,10,6.06429e-05,-3.53471,-1.1035,-0.0534663,-0.60764,0.207726,
2,1,0,1,0,48265,0.209547,0.209262,0.2929,25,0.0166424,10,6.12928e-05,-3.53328,-0.933655,-0.0631925,-0.718482,0.209262,
2,1,0,1,0,48265.3,0.211044,0.210776,0.29095,25,0.0167332,10,6.13255e-05,-3.53618,-11.2812,-0.00522994,-0.0593707,0.210776,
2,1,0,1,0,48265.6,0.212542,0.212292,0.291097,25,0.0168239,10,6.17977e-05,-3.53596,16.7316,0.00352626,0.0399364,0.212292,
2,1,0,1,0,48265.9,0.214041,0.213746,0.289935,25,0.0169146,10,6.19726e-05,-3.5377,-1.62763,-0.036249,-0.409752,0.213746,
2,1,0,1,0,48266.2,0.215539,0.215244,0.28952,25,0.0170051,10,6.23174e-05,-3.53832,-1.83653,-0.0321258,-0.363124,0.215244,
2,1,0,1,0,48266.5,0.217038,0.216686,0.288454,25,0.0170953,10,6.25039e-05,-3.53992,-1.65046,-0.0357477,-0.404484,0.216686,
2,1,0,1,0,48266.8,0.218535,0.218232,0.289075,25,0.0171855,10,6.30853e-05,-3.53899,36.2398,0.00162804,0.0183111,0.218232,
2,1,0,1,0,48267.1,0.220033,0.219711,0.289209,25,0.0172758,10,6.35423e-05,-3.53879,-2.50071,-0.0235933,-0.265306,0.2197109,
2,1,0,0,0,48267.4,0.221532,0.221242,0.287589,25,0.0173658,10,6.36268e-05,-3.54123,-1.38492,-0.0426016,-0.47893,0.221242,
2,1,0,0,0,48267.7,0.22303,0.222725,0.285545,25,0.0174556,10,6.3598e-05,-3.54433,-2.35469,-0.0250564,-0.280968,0.222725,
2,1,0,1,0,48268,0.224529,0.224214,0.287311,25,0.0175452,10,6.44192e-05,-3.54165,-1.83862,-0.0320893,-0.359235,0.224214,
2,1,0,1,0,48268.3,0.226026,0.225706,0.286646,25,0.0176348,10,6.46977e-05,-3.54265,-3.39716,-0.0173674,-0.194009,0.225706,
2,1,0,1,0,48268.6,0.227524,0.227231,0.286817,25,0.0177243,10,6.51739e-05,-3.54239,-1.12821,-0.052295,-0.584159,0.227231,
2,1,0,1,0,48268.9,0.229023,0.228738,0.286352,25,0.0178137,10,6.54997e-05,-3.5431,-2.74989,-0.0214554,-0.239564,0.228738,
2,1,0,1,0,48269.2,0.230521,0.230246,0.28586,25,0.0179028,10,6.58182e-05,-3.54385,-5.34238,-0.0110438,-0.123164,0.230246,
2,1,0,1,0,48269.5,0.232019,0.231734,0.28467,25,0.0179918,10,6.59677e-05,-3.54566,-3.19907,-0.0184428,-0.205314,0.231734,
2,1,0,1,0,48269.8,0.233518,0.233227,0.285556,25,0.0180808,10,6.65994e-05,-3.54431,-0.896521,-0.0658099,-0.728236,0.233227,
2,1,0,1,0,48270.1,0.235015,0.234699,0.284005,25,0.0181696,10,6.66557e-05,-3.54667,-1.20111,-0.0491212,-0.54444,0.234699,
2,1,0,1,0,48270.4,0.236513,0.236201,0.283261,25,0.0182581,10,6.69066e-05,-3.54781,14.5721,0.00404883,0.0447961,0.236201,
2,1,0,0,0,48270.7,0.238012,0.237707,0.283605,25,0.0183466,10,6.74149e-05,-3.54729,-3.11894,-0.0189167,-0.208671,0.2377073,
2,1,0,0,0,48271,0.23951,0.239179,0.283022,25,0.0184351,10,6.76929e-05,-3.54818,-1.73078,-0.0340887,-0.3765,0.239179,
2,1,0,1,0,48271.3,0.241009,0.240711,0.282875,25,0.0185235,10,6.80911e-05,-3.54841,-6.33311,-0.00931612,-0.102762,0.240711,
2,1,0,1,0,48271.6,0.242506,0.242196,0.280679,25,0.0186115,10,6.79794e-05,-3.55179,-2.12082,-0.0278194,-0.306765,0.242196,
2,1,0,1,0,48271.9,0.244004,0.243683,0.281982,25,0.0186996,10,6.87143e-05,-3.54978,-2.29987,-0.0256537,-0.281822,0.243683,
2,1,0,1,0,48272.2,0.245503,0.245205,0.281773,25,0.0187877,10,6.90923e-05,-3.5501,-1.89442,-0.0311441,-0.341798,0.245205,
2,1,0,1,0,48272.5,0.247001,0.246678,0.280745,25,0.0188755,10,6.92538e-05,-3.55169,-1.74762,-0.0337602,-0.370266,0.246678,
2,1,0,1,0,48272.8,0.2485,0.248213,0.279586,25,0.0189632,10,6.9397e-05,-3.55348,-21.934,-0.00268989,-0.0294614,0.248213,
2,1,0,1,0,48273.1,0.249997,0.249657,0.280058,25,0.0190507,10,6.99183e-05,-3.55275,-1.73179,-0.0340687,-0.373134,0.249657,
2,1,0,1,0,48273.4,0.251495,0.251238,0.280505,25,0.0191383,10,7.04735e-05,-3.55206,-2.524,-0.0233756,-0.255424,0.251238,
2,1,0,0,0,48273.7,0.252994,0.252701,0.28007,25,0.0192257,10,7.0774e-05,-3.55273,-0.767866,-0.0768364,-0.837762,0.252701,
2,1,0,0,0,48274,0.254492,0.254214,0.279372,25,0.019313,10,7.10201e-05,-3.55382,-1.93737,-0.0304537,-0.332237,0.254214,
2,1,0,1,0,48274.3,0.255991,0.255667,0.27914,25,0.0194001,10,7.13668e-05,-3.55418,-10.3857,-0.00568088,-0.0618765,0.255667,
2,1,0,1,0,48274.6,0.257488,0.257205,0.279072,25,0.0194872,10,7.17787e-05,-3.55428,-4.04137,-0.014599,-0.158665,0.257205,
2,1,0,1,0,48274.9,0.258986,0.258709,0.278186,25,0.0195742,10,7.19695e-05,-3.55566,-2.80681,-0.0210203,-0.228095,0.258709,
2,1,0,1,0,48275.2,0.260485,0.260193,0.278574,25,0.0196612,10,7.2483e-05,-3.55506,-1.18471,-0.0498011,-0.540829,0.2601932,
2,1,0,1,0,48275.5,0.261983,0.261715,0.277481,25,0.0197478,10,7.2621e-05,-3.55677,-5.78737,-0.0101946,-0.110504,0.261715,
2,1,0,1,0,48275.8,0.263481,0.26316,0.277442,25,0.0198345,10,7.30116e-05,-3.55683,5.51216,0.0107036,0.115547,0.26316,
2,1,0,1,0,48276.1,0.26498,0.264694,0.277041,25,0.0199212,10,7.33311e-05,-3.55746,-5.8767,-0.0100396,-0.108938,0.2646938,
2,1,0,1,0,48276.4,0.266477,0.266183,0.276318,25,0.0200077,10,7.35511e-05,-3.55859,-2.30484,-0.0255983,-0.276288,0.266183,
2,1,0,0,0,48276.7,0.267976,0.267653,0.275545,25,0.0200941,10,7.37506e-05,-3.55981,-68.8206,-0.000857302,-0.00926274,0.2676532,
2,1,0,0,0,48277,0.269474,0.269179,0.275881,25,0.0201803,10,7.42614e-05,-3.55928,-16.1918,-0.00364382,-0.0392484,0.269179,
2,1,0,0,0,48277.3,0.270972,0.270666,0.276379,25,0.0202666,10,7.48062e-05,-3.5585,1.93835,0.0304383,0.327335,0.270666,
2,1,0,1,0,48277.6,0.27247,0.272201,0.275667,25,0.0203529,10,7.5037e-05,-3.55961,-3.45557,-0.0170739,-0.183508,0.272201,
2,1,0,1,0,48277.9,0.273968,0.273692,0.273793,25,0.020439,10,7.4935e-05,-3.56258,-1.8003,-0.0327723,-0.351774,0.273692,
2,1,0,1,0,48278.2,0.275466,0.275153,0.274859,25,0.0205248,10,7.56283e-05,-3.56089,-2.62261,-0.0224967,-0.241528,0.275153,
2,1,0,1,0,48278.5,0.276965,0.276706,0.274275,25,0.0206106,10,7.58934e-05,-3.56181,-4.41569,-0.0133614,-0.143153,0.276706,
2,1,0,1,0,48278.8,0.278463,0.278177,0.273721,25,0.0206963,10,7.61428e-05,-3.56269,-0.981164,-0.0601327,-0.642096,0.278177,
2,1,0,1,0,48279.1,0.279962,0.279687,0.27435,25,0.0207819,10,7.67322e-05,-3.56169,-10.1872,-0.00579157,-0.0620069,0.2796872,
2,1,0,1,0,48279.4,0.281459,0.281174,0.273193,25,0.0208672,10,7.68149e-05,-3.56353,-10.0637,-0.00586264,-0.0626948,0.281174,
2,1,0,1,0,48279.7,0.282957,0.282646,0.273347,25,0.0209526,10,7.72605e-05,-3.56329,-8.81365,-0.00669416,-0.0712372,0.282646,
2,1,0,0,0,48280,0.284456,0.284114,0.272738,25,0.021038,10,7.74885e-05,-3.56426,-1.85255,-0.031848,-0.338524,0.284114,
2,1,0,0,0,48280.3,0.285954,0.285642,0.272804,25,0.0211232,10,7.79242e-05,-3.56415,-1.7316,-0.0340724,-0.361892,0.285642,
2,1,0,0,0,48280.6,0.287452,0.287145,0.270748,25,0.021208,10,7.77439e-05,-3.56743,-3.27242,-0.0180295,-0.19161,0.287145,
2,1,0,1,0,48280.9,0.28895,0.288674,0.271455,25,0.0212929,10,7.83618e-05,-3.5663,10.3334,0.00570965,0.0604526,0.288674,
2,1,0,1,0,48281.2,0.290448,0.290106,0.271488,25,0.0213777,10,7.87603e-05,-3.56625,-3.49462,-0.0168831,-0.178441,0.290106,
2,1,0,1,0,48281.5,0.291947,0.29164,0.270927,25,0.0214625,10,7.90129e-05,-3.56715,-4.51906,-0.0130558,-0.137954,0.2916396,
2,1,0,1,0,48281.8,0.293445,0.29312,0.269329,25,0.0215468,10,7.89457e-05,-3.56972,-1.59643,-0.0369574,-0.390744,0.29312,
2,1,0,1,0,48282.1,0.294943,0.294607,0.270301,25,0.0216312,10,7.96325e-05,-3.56815,-4.05935,-0.0145344,-0.153212,0.2946066,
2,1,0,1,0,48282.4,0.296442,0.296155,0.27047,25,0.0217157,10,8.01012e-05,-3.56788,-1.56542,-0.0376895,-0.396742,0.296155,
2,1,0,1,0,48282.7,0.297939,0.297682,0.2694,25,0.0218,10,8.01954e-05,-3.5696,-2.09344,-0.0281832,-0.295818,0.297682,
2,1,0,1,0,48283,0.299437,0.299185,0.268623,25,0.021884,10,8.03681e-05,-3.57086,-0.0028086,-21.0069,-115.986,0.299185,
2,1,0,1,0,48283.2,0.299737,0.299417,0.131109,25,0.0219237,10,3.92563e-05,-3.88237,0.00110336,53.4732,197.463,0.299417,
2,1,0,1,0,48283.5,0.29824,0.297909,0.0274616,25,0.0219377,10,8.18106e-06,-4.56127,0.00177854,33.1734,71.1652,0.297909,
2,1,0,0,0,48283.8,0.296741,0.296439,0.00710891,25,0.021939,10,2.10736e-06,-5.1482,0.00631103,9.34871,12.0416,0.296439,
2,1,0,0,0,48284.1,0.295243,0.294958,-0.00537174,25,0.0219356,10,-1.58444e-06,-5.26989,-0.0323721,-1.82256,7.34152,0.294958,
2,0,0,1,0,48284.4,0.293744,0.293419,-0.0156246,25,0.0219291,10,-4.58455e-06,-4.80619,-0.00358191,-16.4716,5.76872,0.293419,
2,0,0,1,0,48284.7,0.292246,0.291948,-0.0228552,25,0.0219202,10,-6.67252e-06,-4.64102,-0.00980371,-6.01813,4.83338,0.291948,
2,0,0,1,0,48285,0.290749,0.290432,-0.0305433,25,0.021909,10,-8.87076e-06,-4.51508,-0.0143208,-4.11989,4.4205,0.2904321,
2,0,0,1,0,48285.3,0.28925,0.288938,-0.0354846,25,0.0218957,10,-1.02528e-05,-4.44996,-0.0210629,-2.80113,3.71468,0.288938,
2,0,0,1,0,48285.6,0.287752,0.287366,-0.0405714,25,0.0218809,10,-1.16588e-05,-4.39178,-0.0270312,-2.18266,3.4527,0.287366,
2,0,0,1,0,48285.9,0.286253,0.285962,-0.0456041,25,0.0218645,10,-1.3041e-05,-4.341,-0.0317436,-1.85864,3.28688,0.285962,
2,0,0,1,0,48286.2,0.284755,0.284473,-0.051285,25,0.0218464,10,-1.45892e-05,-4.29001,-0.0363392,-1.62359,3.14915,0.284473,
2,0,0,1,0,48286.5,0.283257,0.282953,-0.0565686,25,0.021827,10,-1.60063e-05,-4.24742,-0.0473755,-1.24537,2.65466,0.282953,
2,0,0,0,0,48286.8,0.281759,0.281436,-0.0594624,25,0.0218063,10,-1.67349e-05,-4.22576,-0.0479246,-1.2311,2.80888,0.281436,
2,0,0,0,0,48287.1,0.280261,0.279957,-0.0618343,25,0.0217845,10,-1.73109e-05,-4.20877,-0.0598635,-0.985576,2.40723,0.279957,
2,0,0,0,0,48287.4,0.278763,0.278461,-0.0668297,25,0.0217614,10,-1.86094e-05,-4.17503,-0.0631797,-0.933844,2.42243,0.278461,
2,0,0,1,0,48287.7,0.277264,0.276987,-0.0711509,25,0.0217372,10,-1.97078e-05,-4.14782,-0.0662787,-0.89018,2.42846,0.276987,
2,0,0,1,0,48288,0.275766,0.275463,-0.0739838,25,0.0217119,10,-2.03798e-05,-4.13086,-0.0854142,-0.690751,1.97814,0.275463,
2,0,0,1,0,48288.3,0.274269,0.273921,-0.0766654,25,0.0216856,10,-2.10002e-05,-4.1154,-0.0884271,-0.667216,2.00662,0.273921,
2,0,0,1,0,48288.6,0.27277,0.272466,-0.0805693,25,0.0216585,10,-2.19524e-05,-4.09383,-0.0780736,-0.755698,2.39053,0.272466,
2,0,0,1,0,48288.9,0.271272,0.270989,-0.0834079,25,0.0216303,10,-2.26026e-05,-4.07879,-0.0844748,-0.698433,2.26507,0.270989,
2,0,0,1,0,48289.2,0.269773,0.269475,-0.0865245,25,0.021601,10,-2.33162e-05,-4.06286,-0.108471,-0.543926,1.82195,0.269475,
2,0,0,1,0,48289.5,0.268275,0.267924,-0.0907325,25,0.021571,10,-2.43094e-05,-4.04224,-0.114612,-0.514782,1.78797,0.267924,
2,0,0,1,0,48289.8,0.266778,0.266443,-0.0915331,25,0.0215404,10,-2.43883e-05,-4.03842,-0.104194,-0.566251,2.02966,0.266443,
2,0,0,0,0,48290.1,0.265279,0.265006,-0.0943293,25,0.0215087,10,-2.49979e-05,-4.02535,-0.0991348,-0.595149,2.19116,0.265006,
2,0,0,0,0,48290.4,0.263781,0.263468,-0.0970148,25,0.0214762,10,-2.55603e-05,-4.01316,-0.136533,-0.43213,1.64365,0.263468,
2,0,0,1,0,48290.7,0.262282,0.261966,-0.10035,25,0.021443,10,-2.62882e-05,-3.99848,-0.134569,-0.438437,1.71271,0.261966,
2,0,0,1,0,48291,0.260784,0.260495,-0.101937,25,0.0214091,10,-2.65541e-05,-3.99167,-0.1362,-0.433186,1.72864,0.260495,
2,0,0,1,0,48291.3,0.259286,0.25899,-0.10507,25,0.0213743,10,-2.72122e-05,-3.97852,-0.123336,-0.478366,1.95925,0.25899,
2,0,0,1,0,48291.6,0.257788,0.257453,-0.108219,25,0.0213388,10,-2.78613e-05,-3.9657,-0.167877,-0.351447,1.47354,0.257453,
2,0,0,1,0,48291.9,0.25629,0.255985,-0.109416,25,0.0213026,10,-2.80089e-05,-3.96092,-0.189103,-0.311999,1.325,0.2559855,
2,0,0,1,0,48292.2,0.254791,0.25448,-0.110627,25,0.0212659,10,-2.81524e-05,-3.95614,-0.172818,-0.341399,1.48715,0.25448,
2,0,0,1,0,48292.5,0.253293,0.253011,-0.113518,25,0.0212286,10,-2.87213e-05,-3.94494,-0.221446,-0.26643,1.18612,0.253011,
2,0,0,1,0,48292.8,0.251795,0.251495,-0.115878,25,0.0211905,10,-2.91427e-05,-3.936,-0.19328,-0.305257,1.3869,0.251495,
2,0,0,0,0,48293.1,0.250297,0.25,-0.117776,25,0.0211518,10,-2.94439e-05,-3.92894,-0.258266,-0.228446,1.044,0.25,
2,0,0,0,0,48293.4,0.248799,0.248512,-0.120711,25,0.0211124,10,-2.99982e-05,-3.91825,-0.274817,-0.214688,1.00986,0.248512,
2,0,0,0,0,48293.7,0.247301,0.246982,-0.122577,25,0.0210726,10,-3.02742e-05,-3.91159,-0.174084,-0.338917,1.62131,0.246982,
2,0,0,1,0,48294,0.245802,0.245553,-0.125083,25,0.021032,10,-3.07146e-05,-3.9028,-0.2432,-0.242598,1.17026,0.245553,
2,0,0,1,0,48294.3,0.244304,0.243984,-0.126088,25,0.0209907,10,-3.07633e-05,-3.89933,-0.190126,-0.31032,1.52543,0.243984,
2,0,0,1,0,48294.6,0.242806,0.242513,-0.128023,25,0.0209489,10,-3.10472e-05,-3.89271,-0.263701,-0.223738,1.1192,0.242513,
2,0,0,1,0,48294.9,0.241308,0.241023,-0.129611,25,0.0209067,10,-3.12394e-05,-3.88736,-0.218505,-0.270017,1.37077,0.241023,
2,0,0,1,0,48295.2,0.23981,0.23949,-0.13143,25,0.0208639,10,-3.14761e-05,-3.88131,-0.19012,-0.31033,1.59387,0.23949,
2,0,0,1,0,48295.5,0.238311,0.237994,-0.133113,25,0.0208205,10,-3.16802e-05,-3.87578,-0.246486,-0.239365,1.25362,0.237994,
2,0,0,1,0,48295.8,0.236813,0.236529,-0.135967,25,0.0207765,10,-3.21602e-05,-3.86657,-0.289301,-0.20394,1.07969,0.236529,
2,0,0,1,0,48296.1,0.235316,0.235015,-0.13638,25,0.020732,10,-3.20513e-05,-3.86525,-0.250477,-0.23555,1.26617,0.235015,
2,0,0,0,0,48296.4,0.233817,0.233538,-0.139786,25,0.0206869,10,-3.26454e-05,-3.85453,-0.291836,-0.202168,1.10252,0.233538,
2,0,0,0,0,48296.7,0.232319,0.231983,-0.141743,25,0.0206412,10,-3.2882e-05,-3.8485,-0.289725,-0.203642,1.12265,0.231983,
2,0,0,1,0,48297,0.23082,0.230526,-0.143699,25,0.0205948,10,-3.31263e-05,-3.84255,-0.25766,-0.228984,1.2757,0.230526,
2,0,0,1,0,48297.3,0.229322,0.229053,-0.144444,25,0.020548,10,-3.30853e-05,-3.8403,-0.318234,-0.185398,1.04963,0.229053,
2,0,0,1,0,48297.6,0.227825,0.227491,-0.146833,25,0.0205008,10,-3.34032e-05,-3.83318,-0.309421,-0.190679,1.09908,0.227491,
2,0,0,1,0,48297.9,0.226326,0.226049,-0.148613,25,0.0204529,10,-3.35938e-05,-3.82794,-0.286682,-0.205803,1.19535,0.226049,
2,0,0,1,0,48298.2,0.224828,0.224504,-0.149953,25,0.0204044,10,-3.3665e-05,-3.82405,-0.467837,-0.126112,0.737312,0.224504,
2,0,0,1,0,48298.5,0.223329,0.223017,-0.152467,25,0.0203555,10,-3.40027e-05,-3.81683,-0.407651,-0.144732,0.858451,0.223017,
2,0,0,1,0,48298.8,0.221831,0.221519,-0.153578,25,0.0203063,10,-3.40204e-05,-3.81367,-0.280577,-0.210281,1.26014,0.221519,
2,0,0,1,0,48299.1,0.220333,0.220052,-0.155199,25,0.0202564,10,-3.41519e-05,-3.80911,-0.294869,-0.200089,1.21354,0.220052,
2,0,0,0,0,48299.4,0.218835,0.21851,-0.157709,25,0.0202059,10,-3.44609e-05,-3.80214,-0.212384,-0.277799,1.71009,0.2185097,
2,0,0,0,0,48299.7,0.217337,0.21702,-0.160407,25,0.0201546,10,-3.48116e-05,-3.79478,-0.399265,-0.147772,0.913816,0.21702,
2,0,0,0,0,48300,0.215839,0.215506,-0.1594,25,0.0201029,10,-3.43516e-05,-3.79751,-0.698465,-0.084471,0.531416,0.215506,
2,0,0,1,0,48300.3,0.21434,0.214017,-0.161397,25,0.0200509,10,-3.45416e-05,-3.7921,-0.252555,-0.233612,1.47675,0.214017,
2,0,0,1,0,48300.6,0.212842,0.212512,-0.163898,25,0.0199983,10,-3.48304e-05,-3.78543,-0.277256,-0.2128,1.36769,0.212512,
2,0,0,1,0,48300.9,0.211344,0.211068,-0.165368,25,0.0199451,10,-3.49038e-05,-3.78155,-0.336345,-0.175415,1.13359,0.211068,
2,0,0,1,0,48301.2,0.209846,0.20951,-0.166086,25,0.0198916,10,-3.47967e-05,-3.77967,-0.318925,-0.184996,1.20856,0.20951,
2,0,0,1,0,48301.5,0.208348,0.208054,-0.169387,25,0.0198374,10,-3.52417e-05,-3.77112,-0.276786,-0.213161,1.41222,0.208054,
2,0,0,1,0,48301.8,0.206849,0.20654,-0.173657,25,0.0197825,10,-3.58673e-05,-3.76031,-0.314512,-0.187592,1.24683,0.20654,
2,0,0,1,0,48302.1,0.205351,0.205018,-0.173748,25,0.0197269,10,-3.56215e-05,-3.76008,-0.380471,-0.155071,1.04105,0.205018,
2,0,0,1,0,48302.4,0.203854,0.203497,-0.174283,25,0.019671,10,-3.5466e-05,-3.75875,-0.352334,-0.167455,1.14556,0.2034969,
2,0,0,0,0,48302.7,0.202355,0.202052,-0.17559,25,0.0196148,10,-3.54783e-05,-3.7555,-0.303768,-0.194227,1.33854,0.202052,
2,0,0,0,0,48303,0.200857,0.200537,-0.178593,25,0.0195578,10,-3.58145e-05,-3.74813,-0.307348,-0.191965,1.33445,0.200537,
2,0,0,1,0,48303.3,0.199358,0.199028,-0.180756,25,0.0195002,10,-3.59754e-05,-3.74291,-0.45158,-0.130652,0.914337,0.199028,
2,0,0,1,0,48303.6,0.19786,0.197558,-0.18238,25,0.0194421,10,-3.60306e-05,-3.73902,-0.291156,-0.20264,1.43235,0.197558,
2,0,0,1,0,48303.9,0.196363,0.196066,-0.184084,25,0.0193835,10,-3.60927e-05,-3.73498,-0.288393,-0.204582,1.46975,0.196066,
2,0,0,1,0,48304.2,0.194864,0.194537,-0.185547,25,0.0193242,10,-3.60958e-05,-3.73155,-0.373191,-0.158096,1.1439,0.194537,
2,0,0,1,0,48304.5,0.193366,0.193056,-0.188684,25,0.0192641,10,-3.64266e-05,-3.72426,-0.371111,-0.158982,1.1675,0.1930557,
2,0,0,1,0,48304.8,0.191867,0.191531,-0.189863,25,0.0192036,10,-3.63648e-05,-3.72156,-0.422615,-0.139607,1.03858,0.191531,
2,0,0,1,0,48305.1,0.190369,0.190039,-0.1908,25,0.0191425,10,-3.62594e-05,-3.71942,-0.283211,-0.208325,1.56142,0.1900388,
2,0,0,1,0,48305.4,0.188871,0.188547,-0.193936,25,0.0190807,10,-3.6566e-05,-3.71234,-0.255494,-0.230925,1.75273,0.188547,
2,0,0,0,0,48305.7,0.187373,0.187056,-0.196738,25,0.0190183,10,-3.6801e-05,-3.70611,-0.322058,-0.183197,1.40181,0.187056,
2,0,0,0,0,48306,0.185875,0.185512,-0.198184,25,0.0189551,10,-3.67654e-05,-3.70293,-0.35232,-0.167462,1.29386,0.185512,
2,0,0,0,0,48306.3,0.184377,0.184051,-0.199553,25,0.0188914,10,-3.67279e-05,-3.69994,-0.312282,-0.188932,1.4781,0.184051,
2,0,0,1,0,48306.6,0.182878,0.182575,-0.203149,25,0.0188269,10,-3.70899e-05,-3.69219,-0.31275,-0.188649,1.49809,0.182575,
2,0,0,1,0,48306.9,0.181381,0.181105,-0.205468,25,0.0187618,10,-3.72113e-05,-3.68726,-0.333168,-0.177088,1.42449,0.181105,
2,0,0,1,0,48307.2,0.179882,0.179565,-0.207606,25,0.0186958,10,-3.72789e-05,-3.68276,-0.396881,-0.148659,1.19951,0.179565,
2,0,0,1,0,48307.5,0.178384,0.17805,-0.210005,25,0.0186291,10,-3.73913e-05,-3.67777,-0.311317,-0.189517,1.56132,0.17805,
2,0,0,1,0,48307.8,0.176886,0.1766,-0.212306,25,0.0185618,10,-3.74933e-05,-3.67304,-0.287578,-0.205162,1.70216,0.1766,
2,0,0,1,0,48308.1,0.175387,0.175078,-0.21617,25,0.0184935,10,-3.78466e-05,-3.66521,-0.231739,-0.254596,2.14355,0.175078,
2,0,0,1,0,48308.4,0.173889,0.173533,-0.218319,25,0.0184245,10,-3.78855e-05,-3.66091,-0.284569,-0.207331,1.76463,0.173533,
2,0,0,1,0,48308.7,0.172392,0.172079,-0.221317,25,0.0183546,10,-3.8084e-05,-3.65499,-0.271331,-0.217447,1.87811,0.172079,
2,0,0,0,0,48309,0.170893,0.170566,-0.223809,25,0.018284,10,-3.81741e-05,-3.65012,-0.237028,-0.248916,2.18735,0.170566,
2,0,0,0,0,48309.3,0.169395,0.169095,-0.227824,25,0.0182122,10,-3.85238e-05,-3.6424,-0.179093,-0.329439,2.93134,0.169095,
2,0,0,1,0,48309.6,0.167896,0.167604,-0.231618,25,0.0181391,10,-3.88202e-05,-3.63523,-0.240467,-0.245356,2.22087,0.167604,
2,0,0,1,0,48309.9,0.166398,0.16609,-0.235825,25,0.0180651,10,-3.91681e-05,-3.62741,-0.256818,-0.229735,2.11719,0.16609,
2,0,0,1,0,48310.2,0.164901,0.16457,-0.23739,25,0.0179903,10,-3.90673e-05,-3.62454,-0.220485,-0.267591,2.50354,0.16457,
2,0,0,1,0,48310.5,0.163402,0.16305,-0.242972,25,0.017914,10,-3.96167e-05,-3.61444,-0.170532,-0.345975,3.28151,0.16305,
2,0,0,1,0,48310.8,0.161904,0.161564,-0.248069,25,0.0178365,10,-4.0079e-05,-3.60543,-0.180832,-0.32627,3.15403,0.161564,
2,0,0,1,0,48311.1,0.160405,0.160075,-0.252532,25,0.0177576,10,-4.04241e-05,-3.59768,-0.190032,-0.310474,3.04983,0.160075,
2,0,0,1,0,48311.4,0.158907,0.158559,-0.255675,25,0.0176772,10,-4.05398e-05,-3.59231,-0.193786,-0.30446,3.05826,0.158559,
2,0,0,1,0,48311.7,0.157409,0.157084,-0.262206,25,0.0175955,10,-4.11884e-05,-3.58136,-0.152,-0.388159,4.00407,0.157084,
2,0,0,0,0,48312,0.155911,0.155615,-0.269004,25,0.0175118,10,-4.1861e-05,-3.57024,-0.145239,-0.406227,4.27259,0.155615,
2,0,0,0,0,48312.3,0.154413,0.154062,-0.275093,25,0.0174261,10,-4.23816e-05,-3.56052,-0.162676,-0.362685,3.90022,0.154062,
2,0,0,0,0,48312.6,0.152915,0.152573,-0.281836,25,0.0173386,10,-4.30004e-05,-3.55,-0.135243,-0.436253,4.81821,0.152573,
2,0,0,1,0,48312.9,0.151416,0.151101,-0.29036,25,0.0172491,10,-4.38735e-05,-3.53706,-0.124164,-0.475177,5.38506,0.151101,
2,0,0,1,0,48313.2,0.149919,0.149608,-0.29943,25,0.0171569,10,-4.47971e-05,-3.5237,-0.114228,-0.516511,6.02731,0.149608,
2,0,0,1,0,48313.5,0.14842,0.148153,-0.30938,25,0.0170619,10,-4.58355e-05,-3.50951,-0.100214,-0.588739,7.10309,0.148153,
2,0,0,1,0,48313.8,0.146922,0.146607,-0.318375,25,0.0169638,10,-4.66758e-05,-3.49706,-0.0946014,-0.62367,7.77802,0.146607,
2,0,0,1,0,48314.1,0.145424,0.145099,-0.330453,25,0.0168625,10,-4.79484e-05,-3.48089,-0.0885988,-0.665923,8.62746,0.145099,
2,0,0,1,0,48314.4,0.143925,0.143619,-0.343417,25,0.0167571,10,-4.93212e-05,-3.46418,-0.078886,-0.747915,10.0587,0.143619,
2,0,0,1,0,48314.7,0.142427,0.142137,-0.358789,25,0.0166474,10,-5.09973e-05,-3.44516,-0.0811471,-0.727075,10.2113,0.142137,
2,0,0,1,0,48315,0.14093,0.140611,-0.374069,25,0.0165331,10,-5.2598e-05,-3.42705,-0.083051,-0.710407,10.4163,0.140611,
2,0,0,0,0,48315.3,0.139431,0.139131,-0.389348,25,0.0164144,10,-5.41703e-05,-3.40966,-0.0811693,-0.726875,11.1028,0.139131,
2,0,0,0,0,48315.6,0.137933,0.137641,-0.408815,25,0.0162908,10,-5.62697e-05,-3.38847,-0.0798869,-0.738544,11.7635,0.137641,
2,0,0,1,0,48315.9,0.136434,0.136082,-0.425875,25,0.0161617,10,-5.79539e-05,-3.37072,-0.0815255,-0.7237,12.0123,0.136082,
2,0,0,1,0,48316.2,0.134936,0.134636,-0.443594,25,0.0160271,10,-5.97236e-05,-3.35301,-0.0859695,-0.68629,11.8624,0.134636,
2,0,0,1,0,48316.5,0.133439,0.133143,-0.460993,25,0.0158869,10,-6.13781e-05,-3.33631,-0.0856429,-0.688907,12.4411,0.133143,
2,0,0,1,0,48316.8,0.13194,0.131597,-0.480518,25,0.0157414,10,-6.32346e-05,-3.31829,-0.0935745,-0.630514,11.8382,0.131597,
2,0,0,1,0,48317.1,0.130442,0.13017,-0.499944,25,0.0155903,10,-6.50779e-05,-3.30108,-0.0962013,-0.613298,11.9226,0.1301704,
2,0,0,1,0,48317.4,0.128943,0.12867,-0.516346,25,0.0154338,10,-6.64385e-05,-3.28706,-0.111219,-0.530484,10.6165,0.12867,
2,0,0,1,0,48317.7,0.127445,0.127133,-0.533397,25,0.0152725,10,-6.78126e-05,-3.27295,-0.122667,-0.480978,9.94335,0.127133,
2,0,0,1,0,48318,0.125947,0.125574,-0.54578,25,0.015107,10,-6.85356e-05,-3.26298,-0.140305,-0.420512,8.93319,0.125574,
2,0,0,0,0,48318.3,0.124449,0.124103,-0.559264,25,0.0149371,10,-6.94062e-05,-3.25238,-0.153482,-0.384411,8.34673,0.124103,
2,0,0,0,0,48318.6,0.122951,0.122619,-0.570252,25,0.0147634,10,-6.99239e-05,-3.24393,-0.187561,-0.314564,6.97382,0.122619,
2,0,0,0,0,48318.9,0.121453,0.12115,-0.580046,25,0.0145866,10,-7.02723e-05,-3.23654,-0.239433,-0.246416,5.54989,0.12115,
2,0,0,1,0,48319.2,0.119954,0.119637,-0.585467,25,0.0144074,10,-7.00436e-05,-3.2325,-0.280937,-0.210011,4.80583,0.119637,
2,0,0,1,0,48319.5,0.118456,0.118182,-0.593316,25,0.0142262,10,-7.01195e-05,-3.22671,-0.352098,-0.167567,3.87012,0.118182,
2,0,0,1,0,48319.8,0.116958,0.116608,-0.598813,25,0.0140431,10,-6.98263e-05,-3.22271,-0.524636,-0.112459,2.61992,0.116608,
2,0,0,1,0,48320.1,0.11546,0.115157,-0.600231,25,0.013859,10,-6.91209e-05,-3.22168,-0.976085,-0.0604456,1.41309,0.115157,
2,0,0,1,0,48320.4,0.113962,0.113636,-0.599752,25,0.0136745,10,-6.81532e-05,-3.22203,-1.55621,-0.0379126,0.890527,0.1136355,
2,0,0,1,0,48320.7,0.112463,0.112144,-0.605143,25,0.0134895,10,-6.78633e-05,-3.21814,31.0216,0.0019019,-0.0446492,0.112144,
2,0,0,1,0,48321,0.110965,0.110618,-0.60277,25,0.0133043,10,-6.66772e-05,-3.21985,2.07857,0.0283848,-0.666434,0.1106179,
2,0,0,1,0,48321.3,0.109468,0.109183,-0.600532,25,0.0131195,10,-6.5568e-05,-3.22146,0.877439,0.0672412,-1.57477,0.109183,
2,0,0,0,0,48321.6,0.107969,0.107661,-0.599587,25,0.0129351,10,-6.45523e-05,-3.22215,1.19187,0.049502,-1.15971,0.107661,
2,0,0,0,0,48321.9,0.106471,0.106148,-0.597205,25,0.0127515,10,-6.33921e-05,-3.22388,2.61909,0.0225269,-0.52665,0.106148,
2,0,0,1,0,48322.2,0.104972,0.104723,-0.596128,25,0.0125681,10,-6.2428e-05,-3.22466,1.34385,0.0439038,-1.02236,0.104723,
2,0,0,1,0,48322.5,0.103474,0.103169,-0.59613,25,0.0123848,10,-6.15023e-05,-3.22466,0.902276,0.0653902,-1.51752,0.103169,
2,0,0,1,0,48322.7,0.101977,0.101701,-0.592884,25,0.0122023,10,-6.02969e-05,-3.22703,0.950598,0.0620662,-1.4371,0.101701,
2,0,0,1,0,48323,0.100478,0.100165,-0.589825,25,0.0120208,10,-5.90799e-05,-3.22928,0.849276,0.069471,-1.60009,0.100165,
2,0,0,1,0,48323.3,0.0989798,0.0986816,-0.589159,25,0.0118397,10,-5.81392e-05,-3.22977,1.75498,0.0336186,-0.770026,0.0986816,
2,0,0,1,0,48323.6,0.0974812,0.0971882,-0.587387,25,0.0116592,10,-5.70871e-05,-3.23108,0.835772,0.0705934,-1.61508,0.0971882,
2,0,0,1,0,48323.9,0.0959834,0.095667,-0.583636,25,0.0114794,10,-5.58347e-05,-3.23386,0.649465,0.090844,-2.07057,0.095667,
2,0,0,1,0,48324.2,0.0944855,0.0941824,-0.578841,25,0.0113007,10,-5.45167e-05,-3.23744,0.703328,0.0838869,-1.90627,0.0941824,
2,0,0,0,0,48324.5,0.0929871,0.092684,-0.576849,25,0.0111228,10,-5.34647e-05,-3.23894,1.12772,0.0523181,-1.179,0.092684,
2,0,0,0,0,48324.8,0.0914889,0.0911432,-0.577749,25,0.0109453,10,-5.26579e-05,-3.23826,0.682567,0.0864383,-1.93917,0.0911432,
2,0,0,0,0,48325.1,0.0899907,0.0896883,-0.572279,25,0.010769,10,-5.13268e-05,-3.24239,0.489639,0.120497,-2.6837,0.0896883,
2,0,0,1,0,48325.4,0.0884923,0.088174,-0.565778,25,0.0105938,10,-4.98869e-05,-3.24735,0.500897,0.117789,-2.61131,0.08817403,
2,0,0,1,0,48325.7,0.0869946,0.0866857,-0.565594,25,0.01042,10,-4.90289e-05,-3.2475,0.550213,0.107231,-2.366,0.08668565,
2,0,0,1,0,48326,0.0854961,0.0851869,-0.561378,25,0.010247,10,-4.78221e-05,-3.25074,0.524457,0.112497,-2.46535,0.0851869,
2,0,0,1,0,48326.3,0.083998,0.0836992,-0.556844,25,0.010075,10,-4.66074e-05,-3.25427,0.431879,0.136612,-2.96879,0.0836992,
2,0,0,1,0,48326.6,0.0824998,0.0821881,-0.554484,25,0.00990413,10,-4.5572e-05,-3.25611,0.51789,0.113924,-2.46232,0.0821881,
2,0,0,1,0,48326.9,0.0810014,0.0807139,-0.550095,25,0.00973472,10,-4.44003e-05,-3.25956,0.562525,0.104884,-2.25397,0.08071392,
2,0,0,1,0,48327.2,0.0795035,0.0791735,-0.546438,25,0.00956616,10,-4.32634e-05,-3.26246,0.652249,0.0904562,-1.9293,0.0791735,
2,0,0,1,0,48327.5,0.0780056,0.0777146,-0.543828,25,0.00939847,10,-4.22634e-05,-3.26454,0.480148,0.122879,-2.60242,0.0777146,
2,0,0,0,0,48327.8,0.076507,0.0761925,-0.53967,25,0.00923192,10,-4.11188e-05,-3.26787,0.553113,0.106669,-2.24879,0.07619255,
2,0,0,0,0,48328.1,0.0750088,0.0746889,-0.53496,25,0.00906693,10,-3.99555e-05,-3.27168,0.510774,0.115511,-2.41579,0.0746889,
2,0,0,1,0,48328.4,0.0735103,0.0732177,-0.533191,25,0.0089026,10,-3.9039e-05,-3.27312,0.616747,0.0956632,-1.98359,0.0732177,
2,0,0,1,0,48328.7,0.0720124,0.0716871,-0.528549,25,0.00873941,10,-3.78902e-05,-3.27691,0.568397,0.103801,-2.14448,0.0716871,
2,0,0,1,0,48329,0.0705146,0.0702143,-0.525445,25,0.00857719,10,-3.68937e-05,-3.27947,0.536897,0.109891,-2.2559,0.0702143,
2,0,0,1,0,48329.3,0.069016,0.0686838,-0.520309,25,0.0084161,10,-3.57368e-05,-3.28374,0.506655,0.11645,-2.37686,0.0686838,
2,0,0,1,0,48329.6,0.0675179,0.0671908,-0.519717,25,0.00825602,10,-3.49202e-05,-3.28423,0.677463,0.0870897,-1.76418,0.0671908,
2,0,0,1,0,48329.9,0.0660192,0.0657566,-0.517753,25,0.00809667,10,-3.40456e-05,-3.28588,0.558104,0.105715,-2.1265,0.0657566,
2,0,0,1,0,48330.2,0.0645214,0.0641844,-0.513181,25,0.0079382,10,-3.29382e-05,-3.28973,0.487221,0.121095,-2.41826,0.06418439,
2,0,0,1,0,48330.5,0.0630235,0.062733,-0.506806,25,0.00778093,10,-3.17934e-05,-3.29516,0.479671,0.123001,-2.44444,0.062733,
2,0,0,0,0,48330.8,0.0615251,0.0612292,-0.505612,25,0.00762488,10,-3.09582e-05,-3.29618,0.486236,0.12134,-2.39734,0.0612292,
2,0,0,0,0,48331.1,0.0600269,0.0597085,-0.501852,25,0.00746964,10,-2.99648e-05,-3.29942,0.481428,0.122552,-2.40494,0.0597085,
2,0,0,0,0,48331.4,0.0585287,0.0582017,-0.498951,25,0.00731536,10,-2.90398e-05,-3.30194,0.413509,0.142681,-2.78007,0.0582017,
2,0,0,1,0,48331.7,0.0570303,0.0566829,-0.495726,25,0.00716195,10,-2.80992e-05,-3.30476,0.504148,0.117029,-2.26115,0.0566829,
2,0,0,1,0,48332,0.0555325,0.0552252,-0.492152,25,0.00701,10,-2.71792e-05,-3.3079,0.502703,0.117366,-2.25905,0.0552252,
2,0,0,1,0,48332.3,0.0540342,0.0537268,-0.48966,25,0.00685879,10,-2.63078e-05,-3.31011,0.618224,0.0954347,-1.82085,0.0537268,
2,0,0,1,0,48332.6,0.052536,0.0521913,-0.486654,25,0.00670828,10,-2.53991e-05,-3.31278,0.475418,0.124101,-2.35278,0.0521913,
2,0,0,1,0,48332.9,0.0510378,0.0507163,-0.483244,25,0.00655893,10,-2.45083e-05,-3.31583,0.406947,0.144982,-2.73306,0.0507163,
2,0,0,1,0,48333.2,0.0495394,0.0492452,-0.478312,25,0.00641089,10,-2.35546e-05,-3.32029,0.550892,0.107099,-2.00254,0.0492452,
2,0,0,1,0,48333.5,0.0480415,0.0477452,-0.475902,25,0.00626386,10,-2.2722e-05,-3.32248,0.599049,0.0984895,-1.82387,0.0477452,
2,0,0,1,0,48333.8,0.0465436,0.0462313,-0.471073,25,0.00611767,10,-2.17783e-05,-3.32691,0.576623,0.10232,-1.88482,0.0462313,
2,0,0,0,0,48334.1,0.045045,0.0447271,-0.468164,25,0.00597254,10,-2.09396e-05,-3.3296,0.409859,0.143952,-2.63338,0.0447271,
2,0,0,0,0,48334.4,0.0435468,0.0432457,-0.463198,25,0.00582864,10,-2.00313e-05,-3.33423,0.432264,0.136491,-2.47728,0.0432457,
2,0,0,1,0,48334.7,0.0420483,0.0417521,-0.462055,25,0.00568574,10,-1.92918e-05,-3.33531,0.551497,0.106982,-1.92896,0.0417521,
2,0,0,1,0,48335,0.0405504,0.0402236,-0.459696,25,0.00554375,10,-1.84906e-05,-3.33753,0.528728,0.111589,-1.99413,0.0402236,
2,0,0,1,0,48335.3,0.0390526,0.0387659,-0.454456,25,0.0054027,10,-1.76174e-05,-3.34251,0.429073,0.137506,-2.43718,0.0387659,
2,0,0,1,0,48335.6,0.0375541,0.0371813,-0.449823,25,0.00526279,10,-1.6725e-05,-3.34696,0.43328,0.136171,-2.39592,0.0371813,
2,0,0,1,0,48335.9,0.0360559,0.0357296,-0.446977,25,0.00512422,10,-1.59703e-05,-3.34972,0.467239,0.126274,-2.21196,0.0357296,
2,0,0,1,0,48336.2,0.0345572,0.034268,-0.444359,25,0.00498635,10,-1.52273e-05,-3.35227,0.481805,0.122456,-2.12305,0.034268,
2,0,0,1,0,48336.5,0.0330594,0.0327699,-0.440664,25,0.00484945,10,-1.44405e-05,-3.35589,0.37597,0.156927,-2.69967,0.0327699,
2,0,0,1,0,48336.8,0.0315615,0.0312558,-0.438442,25,0.00471363,10,-1.37039e-05,-3.35809,0.499693,0.118072,-2.0187,0.0312558,
2,0,0,0,0,48337.1,0.0300631,0.0297531,-0.434674,25,0.00457905,10,-1.29329e-05,-3.36184,0.508519,0.116023,-1.96892,0.0297531,
2,0,0,0,0,48337.4,0.0285649,0.0282282,-0.43198,25,0.00444516,10,-1.2194e-05,-3.36454,0.628467,0.0938792,-1.5783,0.0282282,
2,0,0,0,0,48337.7,0.0270667,0.0267341,-0.429886,25,0.00431198,10,-1.14926e-05,-3.36665,0.487226,0.121094,-2.02716,0.0267341,
2,0,0,1,0,48338,0.0255683,0.0252684,-0.426294,25,0.00417967,10,-1.07718e-05,-3.37029,0.446341,0.132186,-2.19929,0.0252684,
2,0,0,1,0,48338.3,0.0240706,0.0237131,-0.422569,25,0.00404842,10,-1.00204e-05,-3.3741,0.672909,0.087679,-1.44986,0.0237131,
2,0,0,1,0,48338.6,0.0225722,0.0223069,-0.421366,25,0.00391779,10,-9.39938e-06,-3.37534,1.00563,0.0586694,-0.964188,0.02230693,
2,0,0,1,0,48338.9,0.021074,0.0207651,-0.419483,25,0.0037878,10,-8.71061e-06,-3.37729,0.67358,0.0875917,-1.43333,0.0207651,
2,0,0,1,0,48339.2,0.0195758,0.0192477,-0.417227,25,0.00365838,10,-8.03065e-06,-3.37963,0.916838,0.0643516,-1.04742,0.01924766,
2,0,0,1,0,48339.5,0.0180774,0.0177523,-0.414681,25,0.00352962,10,-7.36152e-06,-3.38229,0.96362,0.0612274,-0.993842,0.0177523,
2,0,0,1,0,48339.8,0.0165795,0.0162786,-0.414582,25,0.00340135,10,-6.74882e-06,-3.38239,2.68717,0.0219562,-0.354838,0.0162786,
2,0,0,1,0,48340.1,0.0150817,0.0147574,-0.414285,25,0.00327337,10,-6.11378e-06,-3.3827,1.14143,0.0516897,-0.832842,0.0147574,
2,0,0,0,0,48340.4,0.013583,0.0132436,-0.412526,25,0.00314557,10,-5.46335e-06,-3.38455,0.788087,0.0748648,-1.20234,0.0132436,
2,0,0,0,0,48340.7,0.0120848,0.0117601,-0.410016,25,0.00301835,10,-4.82184e-06,-3.3872,1.18805,0.0496611,-0.797868,0.0117601,
2,0,0,1,0,48341,0.0105863,0.0102635,-0.410166,25,0.00289152,10,-4.20975e-06,-3.38704,5.14364,0.0114705,-0.183841,0.0102635,
2,0,0,1,0,48341.3,0.00908846,0.00876222,-0.410868,25,0.00276468,10,-3.60011e-06,-3.3863,-8.02626,-0.00735087,0.117688,0.00876222,
2,0,0,1,0,48341.6,0.0075906,0.0072675,-0.410162,25,0.0026378,10,-2.98085e-06,-3.38704,-12.8168,-0.00460333,0.0737031,0.0072675,
2,0,0,1,0,48341.9,0.00609207,0.00577413,-0.410551,25,0.00251097,10,-2.37057e-06,-3.38663,-6.57756,-0.00896989,0.143685,0.00577413,
2,0,0,1,0,48342.2,0.00459389,0.00429063,-0.411072,25,0.00238424,10,-1.76375e-06,-3.38608,-2.22915,-0.0264674,0.424062,0.00429063,
2,0,0,1,0,48342.5,0.00309525,0.00273789,-0.411699,25,0.00225703,10,-1.12719e-06,-3.38542,-0.696224,-0.0847428,1.36022,0.00273789,
2,0,0,1,0,48342.8,0.00159739,0.00122509,-0.41601,25,0.0021281,10,-5.09647e-07,-3.3809, , , ,0.00122509,
2,0,0,0,0,48343.1,0.000199195,-0.000168808,-0.414285,25,0.00200845,10,6.99345e-08,-3.3827, , , ,-0.000168808,