File: Figure_codes/Fig_3-5/rawdata_trumpetplot_data/after 10th/20221101_1-115_003_TrumpetPlot_ParaChange_from10_every3_12_CV_C01_27.csv
mode,ox/red,error,control changes,counter inc.,time/s,control/V,Ewe/V,<I>/mA,cycle number,(Q-Qo)/C,I Range,P/W,log(|I|),Tafel slope mV/dec,alpha_eff,dI/d(E-IR),E-IR/V,
2,1,0,1,0,54390,2.44065e-05,-0.000344411,14.9122,28,0.0000000E+000,10,-5.13593e-06,-1.82646, , , ,-0.000344411,
2,1,0,1,0,54390,0.00200257,0.0015622,15.8635,28,4.81311e-05,10,2.4782e-05,-1.7996, , , ,0.0015622,
2,1,0,1,0,54390,0.004408,0.00405097,16.6511,28,0.000113316,10,6.74533e-05,-1.77856, , , ,0.00405097,
2,1,0,1,0,54390.1,0.0068051,0.00642947,17.2676,28,0.000181243,10,0.000111022,-1.76277,0.153217,0.385074,256.526,0.00642947,
2,1,0,1,0,54390.1,0.00920221,0.00881538,17.8239,28,0.000251488,10,0.000157125,-1.749,0.18021,0.327396,226.383,0.00881538,
2,1,0,1,0,54390.1,0.0115993,0.0111981,18.3354,28,0.000323874,10,0.000205322,-1.73671,0.199796,0.295301,210.417,0.0111981,
2,1,0,1,0,54390.1,0.0140075,0.0136699,18.8287,28,0.000398262,10,0.000257387,-1.72518,0.221991,0.265776,194.409,0.0136699,
2,1,0,1,0,54390.1,0.0164046,0.0160187,19.2854,28,0.000474547,10,0.000308927,-1.71477,0.239899,0.245937,184.357,0.0160187,
2,1,0,1,0,54390.1,0.0188017,0.018429,19.6929,28,0.000552558,10,0.000362921,-1.70569,0.259747,0.227144,174.201,0.018429,
2,1,0,1,0,54390.1,0.0212099,0.0208075,20.1069,28,0.000632187,10,0.000418376,-1.69665,0.281923,0.209277,163.843,0.02080752,
2,1,0,1,0,54390.1,0.023607,0.0232465,20.4969,28,0.000713427,10,0.000476481,-1.68831,0.295376,0.199745,159.389,0.0232465,
2,1,0,1,0,54390.1,0.0260041,0.0256069,20.8563,28,0.000796177,10,0.000534067,-1.68076,0.316132,0.186631,151.693,0.0256069,
2,1,0,1,0,54390.1,0.0284012,0.0280034,21.2189,28,0.000880357,10,0.000594203,-1.67328,0.336815,0.17517,144.823,0.0280034,
2,1,0,1,0,54390.1,0.0308067,0.0304074,21.5632,28,0.000965973,10,0.00065568,-1.66629,0.353432,0.166935,140.228,0.0304074,
2,1,0,1,0,54390.1,0.0332038,0.0328442,21.8869,28,0.0010529,10,0.000718858,-1.65982,0.370409,0.159283,135.942,0.0328442,
2,1,0,1,0,54390.1,0.0356009,0.0352312,22.2059,28,0.00114111,10,0.000782341,-1.65353,0.386587,0.152618,132.198,0.0352312,
2,1,0,1,0,54390.1,0.0380091,0.0376574,22.5313,28,0.00123061,10,0.000848471,-1.64721,0.398082,0.148211,130.177,0.03765738,
2,1,0,1,0,54390.1,0.0404062,0.0400592,22.8391,28,0.00132137,10,0.000914917,-1.64132,0.416105,0.141791,126.202,0.0400592,
2,1,0,1,0,54390.1,0.0428033,0.0424377,23.1358,28,0.00141335,10,0.000981829,-1.63572,0.431407,0.136762,123.393,0.0424377,
2,1,0,1,0,54390.1,0.0452032,0.0448289,23.4172,28,0.00150648,10,0.00104977,-1.63047,0.444538,0.132722,121.285,0.0448289,
2,1,0,1,0,54390.1,0.0476058,0.0472594,23.7161,28,0.00160079,10,0.00112081,-1.62496,0.457578,0.12894,119.28,0.0472594,
2,1,0,1,0,54390.1,0.0500029,0.049641,24.0013,28,0.00169626,10,0.00119145,-1.61977,0.458132,0.128784,120.585,0.049641,
2,1,0,1,0,54390.1,0.0524,0.0520375,24.2808,28,0.00179285,10,0.00126352,-1.61474,0.473218,0.124678,118.123,0.0520375,
2,1,0,1,0,54390.1,0.0548082,0.0544415,24.5763,28,0.00189059,10,0.00133797,-1.60948,0.484426,0.121794,116.734,0.0544415,
2,1,0,1,0,54390.1,0.0572053,0.0568168,24.8451,28,0.00198947,10,0.00141162,-1.60476,0.486639,0.12124,117.552,0.0568168,
2,1,0,1,0,54390.1,0.0596024,0.0592695,25.1252,28,0.00208943,10,0.00148916,-1.59989,0.49821,0.118424,116.146,0.0592695,
2,1,0,1,0,54390.1,0.0620051,0.0616926,25.4158,28,0.00219054,10,0.00156797,-1.5949,0.500395,0.117907,116.897,0.0616926,
2,1,0,1,0,54390.1,0.0644077,0.0640573,25.6931,28,0.00229278,10,0.00164583,-1.59018,0.504263,0.117003,117.275,0.0640573,
2,1,0,1,0,54390.2,0.0668048,0.0664506,25.9713,28,0.00239614,10,0.00172581,-1.58551,0.513771,0.114837,116.386,0.0664506,
2,1,0,1,0,54390.2,0.0692019,0.0688524,26.2491,28,0.00250061,10,0.00180731,-1.58089,0.513093,0.114989,117.814,0.0688524,
2,1,0,1,0,54390.2,0.0716074,0.071267,26.5301,28,0.00260619,10,0.00189072,-1.57626,0.518496,0.113791,117.821,0.071267,
2,1,0,1,0,54390.2,0.0740045,0.0736295,26.8209,28,0.00271292,10,0.00197481,-1.57153,0.520279,0.113401,118.669,0.0736295,
2,1,0,1,0,54390.2,0.0764016,0.0760176,27.0985,28,0.00282079,10,0.00205996,-1.56706,0.5229,0.112832,119.325,0.0760176,
2,1,0,1,0,54390.2,0.0788042,0.0784353,27.3863,28,0.00292979,10,0.00214805,-1.56247,0.534003,0.110486,118.081,0.0784353,
2,1,0,1,0,54390.2,0.0812069,0.0808499,27.6736,28,0.00303994,10,0.00223741,-1.55793,0.531049,0.111101,119.977,0.0808499,
2,1,0,1,0,54390.2,0.083604,0.0832464,27.9565,28,0.00315122,10,0.00232727,-1.55352,0.529603,0.111404,121.586,0.0832464,
2,1,0,1,0,54390.2,0.0860011,0.0856217,28.2507,28,0.00326366,10,0.00241888,-1.54897,0.536497,0.109973,121.253,0.0856217,
2,1,0,1,0,54390.2,0.0884065,0.0880246,28.5522,28,0.00337732,10,0.00251329,-1.54436,0.53654,0.109964,122.472,0.0880246,
2,1,0,1,0,54390.2,0.0908036,0.0904497,28.8376,28,0.00349211,10,0.00260835,-1.54004,0.543037,0.108648,122.257,0.0904497,
2,1,0,1,0,54390.2,0.0932007,0.0928081,29.1275,28,0.00360808,10,0.00270327,-1.5357,0.54675,0.10791,122.711,0.0928081,
2,1,0,1,0,54390.2,0.0956034,0.0952077,29.4227,28,0.00372521,10,0.00280127,-1.53132,0.546909,0.107879,123.901,0.0952077,
2,1,0,1,0,54390.2,0.098006,0.097635,29.7315,28,0.00384355,10,0.00290283,-1.52678,0.548419,0.107582,124.781,0.097635,
2,1,0,1,0,54390.2,0.100403,0.100059,30.0282,28,0.00396311,10,0.0030046,-1.52247,0.548822,0.107503,125.978,0.100059,
2,1,0,1,0,54390.2,0.1028,0.102364,30.32,28,0.00408383,10,0.00310369,-1.51827,0.554552,0.106392,125.946,0.102364,
2,1,0,1,0,54390.2,0.105208,0.104864,30.6391,28,0.00420579,10,0.00321294,-1.51372,0.551617,0.106958,127.878,0.104864,
2,1,0,1,0,54390.2,0.107606,0.107244,30.9418,28,0.00432898,10,0.00331833,-1.50946,0.54746,0.10777,130.145,0.107244,
2,1,0,1,0,54390.2,0.110003,0.109613,31.25,28,0.0044534,10,0.00342542,-1.50515,0.562481,0.104892,127.909,0.109613,
2,1,0,1,0,54390.2,0.112408,0.112007,31.5749,28,0.00457906,10,0.0035366,-1.50066,0.562413,0.104905,129.193,0.112007,
2,1,0,1,0,54390.2,0.114805,0.114414,31.8607,28,0.00470597,10,0.0036453,-1.49674,0.568087,0.103857,129.167,0.114414,
2,1,0,1,0,54390.2,0.117202,0.116814,32.178,28,0.00483408,10,0.00375883,-1.49244,0.576984,0.102256,128.447,0.116814,
2,1,0,1,0,54390.2,0.119599,0.119239,32.4933,28,0.00496347,10,0.00387446,-1.48821,0.560835,0.1052,133.418,0.119239,
2,1,0,1,0,54390.2,0.122008,0.12159,32.8057,28,0.00509411,10,0.00398884,-1.48405,0.547598,0.107743,138.077,0.12159,
2,1,0,1,0,54390.2,0.124405,0.124004,33.1402,28,0.00522598,10,0.00410952,-1.47964,0.533012,0.110692,143.312,0.124004,
2,1,0,1,0,54390.3,0.126802,0.126429,33.5057,28,0.00535931,10,0.00423611,-1.47488,0.514991,0.114565,149.863,0.1264293,
2,1,0,1,0,54390.3,0.129207,0.12881,33.865,28,0.00549408,10,0.00436214,-1.47025,0.512066,0.115219,152.291,0.12881,
2,1,0,1,0,54390.3,0.131604,0.131164,34.2406,28,0.00563034,10,0.00449114,-1.46546,0.51241,0.115142,153.86,0.131164,
2,1,0,1,0,54390.3,0.134001,0.133627,34.6057,28,0.00576808,10,0.00462427,-1.46085,0.512373,0.115151,155.533,0.133627,
2,1,0,1,0,54390.3,0.136399,0.136037,34.9839,28,0.0059073,10,0.00475909,-1.45613,0.521264,0.113186,154.523,0.136037,
2,1,0,1,0,54390.3,0.138807,0.138452,35.3646,28,0.00604804,10,0.00489631,-1.45143,0.516847,0.114154,157.51,0.1384522,
2,1,0,1,0,54390.3,0.141204,0.140819,35.7325,28,0.00619026,10,0.00503182,-1.44694,0.521657,0.113101,157.748,0.140819,
2,1,0,1,0,54390.3,0.143601,0.143214,36.1158,28,0.00633398,10,0.0051723,-1.4423,0.528454,0.111646,157.348,0.143214,
2,1,0,1,0,54390.3,0.146009,0.145669,36.5035,28,0.00647925,10,0.00531743,-1.43767,0.537524,0.109763,156.263,0.145669,
2,1,0,1,0,54390.3,0.148406,0.148019,36.87,28,0.00662603,10,0.00545747,-1.43333,0.550855,0.107106,154.038,0.148019,
2,1,0,1,0,54390.3,0.150803,0.150435,37.2351,28,0.00677428,10,0.00560146,-1.42905,0.565343,0.104361,151.609,0.150435,
2,1,0,1,0,54390.3,0.153206,0.152826,37.5963,28,0.00692397,10,0.0057457,-1.42485,0.581227,0.101509,148.88,0.152826,
2,1,0,1,0,54390.3,0.155606,0.155234,37.9536,28,0.0070751,10,0.00589169,-1.42075,0.600249,0.0982926,145.502,0.155234,
2,1,0,1,0,54390.3,0.158003,0.157631,38.301,28,0.00722765,10,0.00603741,-1.41679,0.619672,0.0952117,142.228,0.157631,
2,1,0,1,0,54390.3,0.1604,0.160046,38.6336,28,0.00738155,10,0.00618317,-1.41303,0.649113,0.0908933,136.944,0.160046,
2,1,0,1,0,54390.3,0.162808,0.162447,38.9647,28,0.00753678,10,0.00632971,-1.40933,0.683817,0.0862804,131.075,0.162447,
2,1,0,1,0,54390.3,0.165205,0.164805,39.2643,28,0.00769327,10,0.00647097,-1.406,0.708256,0.0833032,127.577,0.164805,
2,1,0,1,0,54390.3,0.167602,0.167226,39.5587,28,0.00785093,10,0.00661526,-1.40276,0.763915,0.0772337,119.158,0.1672263,
2,1,0,1,0,54390.3,0.170008,0.169629,39.8562,28,0.0080098,10,0.00676077,-1.3995,0.820695,0.0718903,111.658,0.1696292,
2,1,0,1,0,54390.3,0.172405,0.172019,40.1053,28,0.00816977,10,0.0068989,-1.3968,0.899287,0.0656076,102.546,0.172019,
2,1,0,1,0,54390.3,0.174802,0.174401,40.3357,28,0.0083307,10,0.00703459,-1.39431,1.02795,0.0573959,90.247,0.174401,
2,1,0,1,0,54390.3,0.177199,0.176845,40.5451,28,0.0084925,10,0.00717021,-1.39206,1.15809,0.0509459,80.5066,0.176845,
2,1,0,1,0,54390.3,0.179607,0.17926,40.7253,28,0.00865505,10,0.00730041,-1.39014,1.39709,0.0422305,67.0079,0.17926,
2,1,0,1,0,54390.3,0.182005,0.181632,40.8792,28,0.00881829,10,0.00742497,-1.3885,1.77503,0.0332389,52.9243,0.181632,
2,1,0,1,0,54390.3,0.184402,0.184017,40.9801,28,0.00898202,10,0.00754102,-1.38743,2.50618,0.0235418,37.5818,0.184017,
2,1,0,1,0,54390.4,0.18681,0.186444,41.0531,28,0.00914609,10,0.00765411,-1.38665,4.68664,0.012589,20.1316,0.186444,
2,1,0,1,0,54390.4,0.189207,0.188825,41.0848,28,0.00931038,10,0.00775782,-1.38632,17.0593,0.00345852,5.53486,0.188825,
2,1,0,1,0,54390.4,0.191604,0.191206,41.072,28,0.0094747,10,0.00785322,-1.38645,-9.79348,-0.00602441,-9.64129,0.191206,
2,1,0,1,0,54390.4,0.194001,0.1936,41.0331,28,0.00963892,10,0.007944,-1.38687,-3.45226,-0.0170902,-27.315,0.1935997,
2,1,0,1,0,54390.4,0.196407,0.196028,40.9607,28,0.00980292,10,0.00802944,-1.38763,-2.19935,-0.0268262,-42.7845,0.196028,
2,1,0,1,0,54390.4,0.198804,0.198441,40.8221,28,0.00996647,10,0.00810079,-1.3891,-1.5871,-0.0371747,-59.1165,0.198441,
2,1,0,1,0,54390.4,0.201201,0.200807,40.6612,28,0.0101294,10,0.00816506,-1.39082,-1.22431,-0.0481906,-76.343,0.200807,
2,1,0,1,0,54390.4,0.203609,0.20325,40.4626,28,0.0102917,10,0.00822404,-1.39295,-1.04234,-0.0566032,-89.2223,0.20325,
2,1,0,1,0,54390.4,0.206006,0.20565,40.2261,28,0.010453,10,0.00827251,-1.39549,-0.868448,-0.0679373,-106.443,0.20565,
2,1,0,1,0,54390.4,0.208403,0.208104,39.96,28,0.0106134,10,0.00831583,-1.39837,-0.760522,-0.0775783,-120.742,0.208104,
2,1,0,1,0,54390.4,0.210803,0.210442,39.6356,28,0.0107726,10,0.00834101,-1.40191,-0.678219,-0.0869926,-134.365,0.210442,
2,1,0,1,0,54390.4,0.213206,0.212857,39.3027,28,0.0109304,10,0.00836584,-1.40558,-0.600894,-0.0981871,-150.361,0.2128567,
2,1,0,1,0,54390.4,0.215603,0.215262,38.9347,28,0.0110869,10,0.00838114,-1.40966,-0.568996,-0.103691,-157.307,0.215262,
2,1,0,1,0,54390.4,0.218,0.217637,38.5266,28,0.0112418,10,0.00838481,-1.41424,-0.513025,-0.115004,-172.664,0.217637,
2,1,0,1,0,54390.4,0.220408,0.220081,38.1193,28,0.011395,10,0.00838935,-1.41885,-0.481905,-0.122431,-181.811,0.220081,
2,1,0,1,0,54390.4,0.222805,0.222431,37.6496,28,0.0115465,10,0.00837443,-1.42424,-0.454931,-0.12969,-190.332,0.222431,
2,1,0,1,0,54390.4,0.225202,0.224909,37.1806,28,0.0116961,10,0.00836227,-1.42968,-0.428028,-0.137842,-199.845,0.224909,
2,1,0,1,0,54390.4,0.227605,0.227246,36.6976,28,0.0118438,10,0.0083394,-1.43536,-0.41166,-0.143322,-205.033,0.2272464,
2,1,0,1,0,54390.4,0.230008,0.229708,36.1956,28,0.0119896,10,0.00831439,-1.44134,-0.393138,-0.150075,-211.803,0.2297076,
2,1,0,1,0,54390.4,0.232405,0.232035,35.6804,28,0.0121333,10,0.00827911,-1.44757,-0.384197,-0.153567,-213.702,0.232035,
2,1,0,1,0,54390.4,0.234802,0.234433,35.1635,28,0.0122749,10,0.00824348,-1.45391,-0.37164,-0.158756,-217.753,0.234433,
2,1,0,1,0,54390.4,0.237207,0.236891,34.6366,28,0.0124145,10,0.00820508,-1.46047,-0.366272,-0.161082,-217.647,0.236891,
2,1,0,1,0,54390.4,0.239604,0.239258,34.116,28,0.0125519,10,0.00816252,-1.46704,-0.36288,-0.162588,-216.438,0.239258,
2,1,0,1,0,54390.4,0.242002,0.241672,33.5829,28,0.0126872,10,0.00811606,-1.47388,-0.358852,-0.164413,-215.535,0.241672,
2,1,0,1,0,54390.4,0.244404,0.244071,33.0775,28,0.0128205,10,0.00807325,-1.48047,-0.353037,-0.167121,-215.707,0.244071,
2,1,0,1,0,54390.5,0.246807,0.246498,32.5659,28,0.0129517,10,0.00802742,-1.48724,-0.355628,-0.165904,-210.823,0.246498,
2,1,0,1,0,54390.5,0.249204,0.248832,32.0507,28,0.0130809,10,0.00797525,-1.49416,-0.356042,-0.165711,-207.409,0.248832,
2,1,0,1,0,54390.5,0.251601,0.251267,31.5602,28,0.0132081,10,0.00793002,-1.50086,-0.353361,-0.166968,-205.739,0.251267,
2,1,0,1,0,54390.5,0.254006,0.253676,31.0853,28,0.0133333,10,0.00788559,-1.50745,-0.360915,-0.163473,-198.329,0.253676,
2,1,0,1,0,54390.5,0.256404,0.256048,30.601,28,0.0134566,10,0.00783534,-1.51426,-0.362873,-0.162591,-194.296,0.256048,
2,1,0,1,0,54390.5,0.258801,0.258455,30.1422,28,0.0135781,10,0.00779041,-1.52083,-0.367579,-0.16051,-188.979,0.258455,
2,1,0,1,0,54390.5,0.261203,0.26085,29.6983,28,0.0136977,10,0.00774678,-1.52727,-0.374746,-0.15744,-182.597,0.2608496,
2,1,0,1,0,54390.5,0.263606,0.263285,29.2693,28,0.0138156,10,0.00770618,-1.53359,-0.380247,-0.155162,-177.325,0.263285,
2,1,0,1,0,54390.5,0.266003,0.26563,28.8514,28,0.0139318,10,0.0076638,-1.53983,-0.389253,-0.151572,-170.775,0.26563,
2,1,0,1,0,54390.5,0.2684,0.26805,28.4408,28,0.0140463,10,0.00762356,-1.54606,-0.394936,-0.149391,-165.97,0.26805,
2,1,0,1,0,54390.5,0.270808,0.270464,28.0563,28,0.0141593,10,0.00758823,-1.55197,-0.40241,-0.146617,-160.624,0.270464,
2,1,0,1,0,54390.5,0.273205,0.272866,27.6792,28,0.0142707,10,0.00755271,-1.55785,-0.418886,-0.14085,-152.267,0.272866,
2,1,0,1,0,54390.5,0.275603,0.275255,27.3054,28,0.0143806,10,0.00751595,-1.56375,-0.421315,-0.140038,-149.391,0.275255,
2,1,0,1,0,54390.5,0.278008,0.277691,26.9728,28,0.0144891,10,0.0074901,-1.56907,-0.430275,-0.137121,-144.395,0.277691,
2,1,0,1,0,54390.5,0.280405,0.280041,26.6257,28,0.0145963,10,0.00745628,-1.5747,-0.447261,-0.131914,-137.15,0.280041,
2,1,0,1,0,54390.5,0.282802,0.282433,26.2978,28,0.0147021,10,0.00742736,-1.58008,-0.450623,-0.13093,-134.511,0.282433,
2,1,0,1,0,54390.5,0.285199,0.284873,25.9863,28,0.0148066,10,0.00740279,-1.58526,-0.467263,-0.126267,-128.15,0.284873,
2,1,0,1,0,54390.5,0.287608,0.287258,25.6859,28,0.0149099,10,0.00737849,-1.5903,-0.483461,-0.122037,-122.423,0.287258,
2,1,0,1,0,54390.5,0.290005,0.289646,25.3948,28,0.0150121,10,0.0073555,-1.59526,-0.489672,-0.120489,-119.494,0.289646,
2,1,0,1,0,54390.5,0.292402,0.292052,25.1202,28,0.0151131,10,0.0073364,-1.59998,-0.5077,-0.11621,-113.992,0.292052,
2,1,0,1,0,54390.5,0.294807,0.294417,24.8459,28,0.015213,10,0.00731504,-1.60475,-0.517836,-0.113936,-110.583,0.294417,
2,1,0,1,0,54390.5,0.297204,0.296867,24.5905,28,0.0153118,10,0.00730013,-1.60923,-0.512216,-0.115186,-111.05,0.296867,
2,1,0,1,0,54390.5,0.299421,0.299083,24.3512,28,0.0154023,10,0.00728303,-1.61348,-0.118225,-0.499049,-462.881,0.299083,
2,1,0,0,0,54390.5,0.300012,0.299517,24.2912,28,0.0154267,10,0.00727562,-1.61455,0.00268556,21.9693,18671.1,0.299517,
2,1,0,1,0,54390.5,0.299243,0.299013,22.7186,28,0.0154566,10,0.00679314,-1.64362,0.0292897,2.01436,1586.73,0.299013,
2,1,0,1,0,54390.5,0.296846,0.296578,19.1858,28,0.0155397,10,0.00569009,-1.71702,0.0334529,1.76368,1295.93,0.2965779,
2,1,0,1,0,54390.6,0.294449,0.294148,16.5214,28,0.0156107,10,0.00485974,-1.78195,0.0362607,1.6271,1077.23,0.2941485,
2,1,0,1,0,54390.6,0.292041,0.291771,14.2524,28,0.0156719,10,0.00415843,-1.84611,0.0368764,1.59994,900.149,0.291771,
2,1,0,1,0,54390.6,0.289644,0.289317,12.2745,28,0.0157247,10,0.00355122,-1.911,0.0357545,1.65014,793.827,0.289317,
2,1,0,1,0,54390.6,0.287247,0.286941,10.5111,28,0.0157701,10,0.00301606,-1.97835,0.0341998,1.72516,705.778,0.2869409,
2,1,0,1,0,54390.6,0.284841,0.28456,8.91003,28,0.0158087,10,0.00253544,-2.05012,0.0316391,1.86478,643.185,0.28456,
2,1,0,1,0,54390.6,0.282444,0.282126,7.44483,28,0.0158413,10,0.00210038,-2.12815,0.028685,2.05682,588.938,0.282126,
2,1,0,1,0,54390.6,0.280047,0.279735,6.11163,28,0.0158682,10,0.00170964,-2.21384,0.0256413,2.30097,534.973,0.279735,
2,1,0,1,0,54390.6,0.27765,0.277374,4.87674,28,0.01589,10,0.00135268,-2.31187,0.0216963,2.71935,495.908,0.277374,
2,1,0,1,0,54390.6,0.275242,0.274901,3.74259,28,0.0159071,10,0.00102884,-2.42683,0.0173979,3.39122,457.205,0.274901,
2,1,0,1,0,54390.6,0.272845,0.272543,2.69261,28,0.0159199,10,0.000733851,-2.56983,0.0121539,4.8544,424.008,0.272543,
2,1,0,1,0,54390.6,0.270448,0.270105,1.70846,28,0.0159286,10,0.000461462,-2.7674,0.00546574,10.7945,396.737,0.270105,
2,1,0,1,0,54390.6,0.26804,0.267719,0.782959,28,0.0159334,10,0.000209613,-3.10626,0.0192617,3.06307,368.004,0.267719,
2,1,0,1,0,54390.6,0.265642,0.265302,-0.0656137,28,0.0159348,10,-1.74075e-05,-4.18301,0.333344,0.176994,345.105,0.265302,
2,0,0,1,0,54390.6,0.263245,0.262912,-0.851502,28,0.0159329,10,-0.00022387,-3.06981,-0.0203736,-2.89591,323.09,0.262912,
2,0,0,1,0,54390.6,0.260843,0.260521,-1.59902,28,0.0159279,10,-0.000416577,-2.79615,-0.00579337,-10.184,302.971,0.260521,
2,0,0,1,0,54390.6,0.258443,0.258146,-2.3101,28,0.01592,10,-0.000596342,-2.63637,-0.0153372,-3.84685,286.304,0.258146,
2,0,0,1,0,54390.6,0.256046,0.255708,-2.97249,28,0.0159093,10,-0.000760089,-2.52688,-0.0230181,-2.5632,269.036,0.255708,
2,0,0,1,0,54390.6,0.253649,0.253306,-3.60181,28,0.0158961,10,-0.000912359,-2.44348,-0.0306993,-1.92187,253.754,0.253306,
2,0,0,1,0,54390.6,0.25124,0.250892,-4.18943,28,0.0158804,10,-0.0010511,-2.37784,-0.038505,-1.53227,239.9,0.250892,
2,0,0,1,0,54390.6,0.248843,0.248546,-4.7461,28,0.0158625,10,-0.00117962,-2.32366,-0.0464492,-1.2702,228.45,0.248546,
2,0,0,1,0,54390.6,0.246446,0.246135,-5.26888,28,0.0158425,10,-0.00129686,-2.27828,-0.0551782,-1.06926,215.012,0.2461354,
2,0,0,1,0,54390.6,0.244041,0.24374,-5.78714,28,0.0158203,10,-0.00141056,-2.23754,-0.0643407,-0.916994,202.847,0.24374,
2,0,0,1,0,54390.6,0.241644,0.241296,-6.25283,28,0.0157961,10,-0.00150878,-2.20392,-0.0730217,-0.807979,194.066,0.241296,
2,0,0,1,0,54390.6,0.239247,0.238901,-6.70243,28,0.0157702,10,-0.00160122,-2.17377,-0.083288,-0.708385,183.313,0.238901,
2,0,0,1,0,54390.6,0.236849,0.236525,-7.13394,28,0.0157424,10,-0.00168736,-2.14667,-0.0916739,-0.643586,177.574,0.236525,
2,0,0,1,0,54390.7,0.234441,0.234109,-7.55256,28,0.015713,10,-0.00176812,-2.12191,-0.101081,-0.583691,170.617,0.234109,
2,0,0,1,0,54390.7,0.232044,0.23171,-7.95506,28,0.0156819,10,-0.00184326,-2.09936,-0.112116,-0.526242,162.011,0.23171,
2,0,0,1,0,54390.7,0.229647,0.229323,-8.33671,28,0.0156493,10,-0.0019118,-2.07901,-0.123137,-0.47914,154.71,0.229323,
2,0,0,1,0,54390.7,0.227239,0.226892,-8.69455,28,0.0156153,10,-0.00197273,-2.06075,-0.135296,-0.436082,147.068,0.226892,
2,0,0,1,0,54390.7,0.224842,0.224501,-9.03907,28,0.0155797,10,-0.00202928,-2.04388,-0.145899,-0.40439,142.052,0.224501,
2,0,0,1,0,54390.7,0.222445,0.222114,-9.36627,28,0.0155429,10,-0.00208038,-2.02843,-0.156072,-0.37803,137.786,0.222114,
2,0,0,1,0,54390.7,0.220047,0.21973,-9.69934,28,0.0155047,10,-0.00213124,-2.01326,-0.168328,-0.350507,132.116,0.21973,
2,0,0,1,0,54390.7,0.217642,0.217307,-10.0152,28,0.0154652,10,-0.00217638,-1.99934,-0.179646,-0.328423,127.752,0.2173072,
2,0,0,1,0,54390.7,0.215245,0.214919,-10.305,28,0.0154246,10,-0.00221474,-1.98695,-0.191507,-0.308083,123.633,0.214919,
2,0,0,1,0,54390.7,0.212848,0.212511,-10.5931,28,0.0153827,10,-0.00225114,-1.97498,-0.205806,-0.286678,118.3,0.212511,
2,0,0,1,0,54390.7,0.21044,0.210109,-10.8888,28,0.0153398,10,-0.00228784,-1.96302,-0.21311,-0.276853,117.315,0.210109,
2,0,0,1,0,54390.7,0.208043,0.207694,-11.1525,28,0.0152957,10,-0.00231631,-1.95263,-0.227715,-0.259096,112.492,0.207694,
2,0,0,1,0,54390.7,0.205645,0.20533,-11.4299,28,0.0152505,10,-0.00234691,-1.94196,-0.243666,-0.242135,107.725,0.2053299,
2,0,0,1,0,54390.7,0.203246,0.202899,-11.6743,28,0.0152042,10,-0.00236871,-1.93277,-0.252055,-0.234076,106.473,0.202899,
2,0,0,1,0,54390.7,0.200843,0.200476,-11.9265,28,0.015157,10,-0.00239098,-1.92349,-0.269827,-0.218659,101.65,0.200476,
2,0,0,1,0,54390.7,0.198446,0.198113,-12.1726,28,0.0151088,10,-0.00241155,-1.91462,-0.273866,-0.215434,102.245,0.198113,
2,0,0,1,0,54390.7,0.196049,0.195717,-12.4071,28,0.0150596,10,-0.00242828,-1.90633,-0.287617,-0.205134,99.2402,0.195717,
2,0,0,1,0,54390.7,0.19364,0.193252,-12.6607,28,0.0150095,10,-0.00244671,-1.89754,-0.303901,-0.194142,95.676,0.193252,
2,0,0,1,0,54390.7,0.191243,0.190889,-12.8779,28,0.0149584,10,-0.00245826,-1.89015,-0.309673,-0.190524,95.621,0.190889,
2,0,0,1,0,54390.7,0.188846,0.188485,-13.0937,28,0.0149064,10,-0.00246798,-1.88294,-0.324662,-0.181728,92.9041,0.188485,
2,0,0,1,0,54390.7,0.186444,0.18613,-13.3238,28,0.0148536,10,-0.00247996,-1.87537,-0.330734,-0.178391,92.7162,0.18613,
2,0,0,1,0,54390.7,0.184041,0.183701,-13.548,28,0.0147998,10,-0.00248879,-1.86812,-0.338209,-0.174448,92.1237,0.1837008,
2,0,0,1,0,54390.7,0.181644,0.181303,-13.7667,28,0.0147451,10,-0.00249595,-1.86117,-0.350099,-0.168524,90.4635,0.181303,
2,0,0,1,0,54390.7,0.179247,0.17888,-13.9786,28,0.0146896,10,-0.00250049,-1.85454,-0.358507,-0.164571,89.7555,0.1788802,
2,0,0,1,0,54390.7,0.176841,0.176504,-14.1946,28,0.0146333,10,-0.00250541,-1.84788,-0.363088,-0.162495,90.0146,0.176504,
2,0,0,1,0,54390.8,0.174444,0.174095,-14.4103,28,0.014576,10,-0.00250875,-1.84133,-0.361884,-0.163036,91.7024,0.174095,
2,0,0,1,0,54390.8,0.172047,0.17171,-14.6303,28,0.0145179,10,-0.00251216,-1.83475,-0.367834,-0.160399,91.5799,0.17171,
2,0,0,1,0,54390.8,0.169644,0.169324,-14.8549,28,0.0144589,10,-0.0025153,-1.82813,-0.37332,-0.158041,91.5684,0.169324,
2,0,0,1,0,54390.8,0.167242,0.166906,-15.0736,28,0.0143991,10,-0.00251587,-1.82178,-0.375936,-0.156942,92.3092,0.166906,
2,0,0,1,0,54390.8,0.164845,0.164481,-15.2906,28,0.0143383,10,-0.00251501,-1.81558,-0.370786,-0.159122,95.0568,0.164481,
2,0,0,1,0,54390.8,0.162448,0.162065,-15.5206,28,0.0142767,10,-0.00251534,-1.80909,-0.370541,-0.159227,96.5297,0.162065,
2,0,0,1,0,54390.8,0.160042,0.159717,-15.7682,28,0.0142141,10,-0.00251844,-1.80222,-0.360911,-0.163475,100.6,0.159717,
2,0,0,1,0,54390.8,0.157645,0.157272,-16.0035,28,0.0141505,10,-0.00251691,-1.79578,-0.351348,-0.167924,104.958,0.157272,
2,0,0,1,0,54390.8,0.155248,0.154887,-16.2557,28,0.014086,10,-0.0025178,-1.789,-0.353423,-0.166939,106.022,0.154887,
2,0,0,1,0,54390.8,0.152845,0.152536,-16.5207,28,0.0140204,10,-0.00252001,-1.78197,-0.339518,-0.173776,112.134,0.1525365,
2,0,0,1,0,54390.8,0.150443,0.150088,-16.789,28,0.0139538,10,-0.00251983,-1.77497,-0.327667,-0.180061,118.163,0.150088,
2,0,0,1,0,54390.8,0.148046,0.147703,-17.0766,28,0.013886,10,-0.00252226,-1.7676,-0.316563,-0.186377,124.475,0.147703,
2,0,0,1,0,54390.8,0.145648,0.145312,-17.3871,28,0.013817,10,-0.00252656,-1.75977,-0.301026,-0.195996,133.248,0.145312,
2,0,0,1,0,54390.8,0.14324,0.142907,-17.7193,28,0.0137468,10,-0.00253221,-1.75155,-0.287812,-0.204995,141.995,0.142907,
2,0,0,1,0,54390.8,0.140843,0.140499,-18.0668,28,0.0136752,10,-0.00253836,-1.74312,-0.273018,-0.216103,152.762,0.140499,
2,0,0,1,0,54390.8,0.138446,0.138113,-18.4383,28,0.0136022,10,-0.00254657,-1.73428,-0.259559,-0.227309,164.062,0.138113,
2,0,0,1,0,54390.8,0.136041,0.135678,-18.8588,28,0.0135275,10,-0.00255873,-1.72449,-0.249083,-0.236869,174.633,0.135678,
2,0,0,1,0,54390.8,0.133644,0.133328,-19.2908,28,0.0134512,10,-0.00257201,-1.71465,-0.237533,-0.248386,187.329,0.133328,
2,0,0,1,0,54390.8,0.131246,0.130918,-19.7399,28,0.0133731,10,-0.00258431,-1.70466,-0.229077,-0.257556,198.993,0.130918,
2,0,0,1,0,54390.8,0.128849,0.1285,-20.2391,28,0.0132931,10,-0.00260072,-1.69381,-0.219449,-0.268855,212.976,0.1285,
2,0,0,1,0,54390.8,0.126441,0.126093,-20.7662,28,0.0132111,10,-0.00261847,-1.68264,-0.210008,-0.280941,228.255,0.126093,
2,0,0,1,0,54390.8,0.124044,0.12371,-21.3392,28,0.0131268,10,-0.00263988,-1.67082,-0.203662,-0.289695,241.67,0.12371,
2,0,0,1,0,54390.8,0.121647,0.121301,-21.935,28,0.0130402,10,-0.00266074,-1.65886,-0.198807,-0.296771,254.317,0.1213012,
2,0,0,1,0,54390.8,0.119241,0.118922,-22.5539,28,0.0129512,10,-0.00268215,-1.64678,-0.199492,-0.295751,260.501,0.118922,
2,0,0,1,0,54390.8,0.116844,0.116545,-23.1943,28,0.0128597,10,-0.00270319,-1.63462,-0.198442,-0.297316,269.203,0.116545,
2,0,0,1,0,54390.9,0.114447,0.114087,-23.846,28,0.0127655,10,-0.00272053,-1.62258,-0.199598,-0.295594,275.17,0.114087,
2,0,0,1,0,54390.9,0.11205,0.111721,-24.5139,28,0.0126687,10,-0.00273873,-1.61059,-0.203198,-0.290357,277.669,0.111721,
2,0,0,1,0,54390.9,0.109642,0.109303,-25.2008,28,0.0125692,10,-0.00275451,-1.59859,-0.205404,-0.287239,282.111,0.109303,
2,0,0,1,0,54390.9,0.107245,0.10694,-25.8614,28,0.012467,10,-0.00276562,-1.58735,-0.20982,-0.281194,283.638,0.1069401,
2,0,0,1,0,54390.9,0.104848,0.104561,-26.5336,28,0.0123622,10,-0.00277437,-1.5762,-0.217695,-0.271021,280.511,0.104561,
2,0,0,1,0,54390.9,0.10244,0.102161,-27.2256,28,0.0122546,10,-0.00278139,-1.56502,-0.224491,-0.262817,278.771,0.102161,
2,0,0,1,0,54390.9,0.100042,0.0997314,-27.8856,28,0.0121443,10,-0.00278107,-1.55462,-0.235879,-0.250128,271.536,0.0997314,
2,0,0,1,0,54390.9,0.0976454,0.0973307,-28.5402,28,0.0120314,10,-0.00277784,-1.54454,-0.248861,-0.23708,263.431,0.0973307,
2,0,0,1,0,54390.9,0.0952427,0.0949617,-29.14,28,0.011916,10,-0.00276719,-1.53551,-0.256115,-0.230365,261.842,0.09496174,
2,0,0,1,0,54390.9,0.0928428,0.092561,-29.7545,28,0.0117981,10,-0.00275411,-1.52645,-0.2651,-0.222557,258.533,0.092561,
2,0,0,1,0,54390.9,0.0904457,0.0901305,-30.3995,28,0.0116778,10,-0.00273993,-1.51713,-0.273902,-0.215405,255.182,0.09013053,
2,0,0,1,0,54390.9,0.0880486,0.0877202,-31.0249,28,0.0115549,10,-0.00272151,-1.50829,-0.284828,-0.207143,250.123,0.0877202,
2,0,0,1,0,54390.9,0.0856404,0.0853089,-31.6033,28,0.0114295,10,-0.00269604,-1.50027,-0.304843,-0.193542,238.147,0.0853089,
2,0,0,1,0,54390.9,0.0832433,0.0829579,-32.1565,28,0.011302,10,-0.00266763,-1.49273,-0.324088,-0.182049,228.107,0.0829579,
2,0,0,1,0,54390.9,0.0808462,0.0805317,-32.6855,28,0.0111723,10,-0.00263222,-1.48565,-0.344154,-0.171435,218.359,0.0805317,
2,0,0,1,0,54390.9,0.0784408,0.078132,-33.212,28,0.0110404,10,-0.00259492,-1.47871,-0.36894,-0.159918,206.826,0.078132,
2,0,0,1,0,54390.9,0.0760437,0.0757397,-33.6928,28,0.0109066,10,-0.00255188,-1.47246,-0.396425,-0.14883,195.259,0.0757397,
2,0,0,1,0,54390.9,0.0736466,0.073356,-34.1424,28,0.0107708,10,-0.00250455,-1.46671,-0.427687,-0.137951,183.494,0.073356,
2,0,0,1,0,54390.9,0.0712495,0.0709032,-34.5655,28,0.0106333,10,-0.00245081,-1.46136,-0.457888,-0.128853,173.586,0.0709032,
2,0,0,1,0,54390.9,0.0688413,0.0685608,-34.9683,28,0.0104942,10,-0.00239745,-1.45633,-0.490423,-0.120304,163.964,0.0685608,
2,0,0,1,0,54390.9,0.0664442,0.0661441,-35.3585,28,0.0103535,10,-0.00233875,-1.45151,-0.519816,-0.113502,156.404,0.0661441,
2,0,0,1,0,54390.9,0.0640471,0.0637688,-35.7144,28,0.0102113,10,-0.00227746,-1.44716,-0.56713,-0.104033,144.77,0.0637688,
2,0,0,1,0,54390.9,0.0616389,0.061331,-36.0627,28,0.0100678,10,-0.00221176,-1.44294,-0.625172,-0.094374,132.571,0.061331,
2,0,0,1,0,54390.9,0.0592417,0.0589832,-36.3548,28,0.00992292,10,-0.00214432,-1.43944,-0.677255,-0.0871164,123.439,0.05898321,
2,0,0,1,0,54390.9,0.0568446,0.0564955,-36.6376,28,0.0097769,10,-0.00206986,-1.43607,-0.737197,-0.0800329,114.349,0.0564955,
2,0,0,1,0,54391,0.0544475,0.0541149,-36.906,28,0.0096298,10,-0.00199717,-1.4329,-0.80363,-0.0734168,105.616,0.0541149,
2,0,0,1,0,54391,0.0520421,0.0517099,-37.1628,28,0.00948161,10,-0.00192168,-1.42989,-0.885154,-0.0666551,96.5046,0.0517099,
2,0,0,1,0,54391,0.049645,0.0493452,-37.3727,28,0.00933251,10,-0.00184416,-1.42745,-0.982054,-0.0600782,87.5158,0.0493452,
2,0,0,1,0,54391,0.0472479,0.0469126,-37.5624,28,0.00918262,10,-0.00176215,-1.42525,-1.11207,-0.0530543,77.7172,0.0469126,
2,0,0,1,0,54391,0.0448397,0.0444917,-37.7482,28,0.00903197,10,-0.00167948,-1.4231,-1.22083,-0.0483277,71.1314,0.0444917,
2,0,0,1,0,54391,0.0424426,0.0421079,-37.909,28,0.00888065,10,-0.00159627,-1.42126,-1.33225,-0.044286,65.4617,0.0421079,
2,0,0,1,0,54391,0.0400455,0.039722,-38.0572,28,0.0087287,10,-0.00151171,-1.41956,-1.53822,-0.0383559,56.9131,0.039722,
2,0,0,1,0,54391,0.0376456,0.0373233,-38.1901,28,0.00857619,10,-0.00142538,-1.41805,-1.75043,-0.033706,50.1829,0.0373233,
2,0,0,1,0,54391,0.035243,0.0349056,-38.2938,28,0.0084232,10,-0.00133667,-1.41687,-2.04409,-0.0288637,43.1023,0.03490562,
2,0,0,1,0,54391,0.0328459,0.0325155,-38.3904,28,0.0082698,10,-0.00124828,-1.41578,-2.25687,-0.0261424,39.1558,0.0325155,
2,0,0,1,0,54391,0.0304488,0.0301327,-38.4706,28,0.00811607,10,-0.00115922,-1.41487,-2.55863,-0.0230592,34.6113,0.0301327,
2,0,0,1,0,54391,0.0280406,0.0276864,-38.5675,28,0.00796199,10,-0.00106779,-1.41378,-3.23381,-0.0182447,27.4289,0.0276864,
2,0,0,1,0,54391,0.0256435,0.0252835,-38.6268,28,0.0078076,10,-0.000976621,-1.41311,-3.73076,-0.0158145,23.8144,0.0252835,
2,0,0,1,0,54391,0.0232464,0.022922,-38.6536,28,0.00765304,10,-0.000886016,-1.41281,-5.3061,-0.0111193,16.7713,0.022922,
2,0,0,1,0,54391,0.0208437,0.0204958,-38.7001,28,0.00749834,10,-0.000793187,-1.41229,-8.30687,-0.00710256,10.7212,0.0204958,
2,0,0,1,0,54391,0.018441,0.0180855,-38.7285,28,0.00734348,10,-0.000700422,-1.41197,-9.19855,-0.00641405,9.68743,0.0180855,
2,0,0,1,0,54391,0.0160439,0.0157091,-38.7295,28,0.00718857,10,-0.000608404,-1.41196,-33.1769,-0.00177835,2.68681,0.0157091,
2,0,0,1,0,54391,0.0136468,0.0133073,-38.7467,28,0.00703362,10,-0.000515613,-1.41177,35.4197,0.00166574,-2.51689,0.0133073,
2,0,0,1,0,54391,0.0112414,0.0108821,-38.7259,28,0.00687865,10,-0.00042142,-1.412,14.5894,0.00404403,-6.10789,0.0108821,
2,0,0,1,0,54391,0.00884431,0.00846863,-38.7043,28,0.00672379,10,-0.000327772,-1.41224,7.80186,0.0075623,-11.4192,0.00846863,
2,0,0,1,0,54391,0.0064472,0.00611134,-38.6708,28,0.00656904,10,-0.000236331,-1.41262,9.8878,0.00596695,-9.00804,0.00611134,
2,0,0,1,0,54391,0.00404455,0.00370846,-38.6371,28,0.00641443,10,-0.000143284,-1.413,5.39711,0.0109318,-16.4788,0.00370846,
2,0,0,1,0,54391,0.0016419,0.00124832,-38.6391,28,0.00625994,10,-4.8234e-05,-1.41297,4.06724,0.0145061,-21.8329,0.00124832,
2,0,0,1,0,54391,-0.000755208,-0.00113123,-38.5461,28,0.00610558,10,4.36046e-05,-1.41402,3.35842,0.0175678,-26.4029,-0.00113123,
2,0,0,1,0,54391,-0.00315231,-0.00354578,-38.46,28,0.00595158,10,0.000136371,-1.41499,2.31594,0.0254756,-38.2341,-0.00354578,
2,0,0,1,0,54391.1,-0.00555774,-0.00592321,-38.3828,28,0.0057979,10,0.000227349,-1.41586,2.28058,0.0258706,-38.7294,-0.005923212,
2,0,0,1,0,54391.1,-0.00795485,-0.00831973,-38.2733,28,0.00564457,10,0.000318423,-1.4171,2.06909,0.0285149,-42.5723,-0.00831973,
2,0,0,1,0,54391.1,-0.010352,-0.010764,-38.173,28,0.00549169,10,0.000410893,-1.41824,1.82126,0.0323951,-48.2338,-0.01076397,
2,0,0,1,0,54391.1,-0.0127546,-0.0131456,-38.0513,28,0.00533925,10,0.000500209,-1.41963,1.69694,0.0347685,-51.5972,-0.0131456,
2,0,0,1,0,54391.1,-0.0151573,-0.0155061,-37.9206,28,0.00518733,10,0.000588001,-1.42113,1.56656,0.0376621,-55.7159,-0.0155061,
2,0,0,1,0,54391.1,-0.0175544,-0.0178984,-37.7791,28,0.00503594,10,0.000676184,-1.42275,1.51888,0.0388444,-57.2667,-0.0178984,
2,0,0,1,0,54391.1,-0.0199515,-0.0203151,-37.6409,28,0.0048851,10,0.000764676,-1.42434,1.44217,0.0409105,-60.0809,-0.0203151,
2,0,0,1,0,54391.1,-0.0223597,-0.022754,-37.5011,28,0.00473482,10,0.000853299,-1.42596,1.39508,0.0422914,-61.8602,-0.022754,
2,0,0,1,0,54391.1,-0.0247568,-0.0251431,-37.3416,28,0.00458515,10,0.000938882,-1.42781,1.36477,0.0432306,-62.993,-0.0251431,
2,0,0,1,0,54391.1,-0.0271539,-0.0275513,-37.1819,28,0.00443611,10,0.00102441,-1.42967,1.30351,0.0452623,-65.6858,-0.0275513,
2,0,0,1,0,54391.1,-0.0295593,-0.0299436,-37.0343,28,0.00428772,10,0.00110894,-1.4314,1.28653,0.0458599,-66.2619,-0.0299436,
2,0,0,1,0,54391.1,-0.0319564,-0.0323401,-36.8714,28,0.00413992,10,0.00119242,-1.43331,1.28482,0.045921,-66.066,-0.0323401,
2,0,0,1,0,54391.1,-0.0343535,-0.0347419,-36.7055,28,0.00399279,10,0.00127522,-1.43527,1.26937,0.0464799,-66.5966,-0.03474189,
2,0,0,1,0,54391.1,-0.0367506,-0.0371469,-36.548,28,0.00384631,10,0.00135764,-1.43714,1.26756,0.0465463,-66.3983,-0.0371469,
2,0,0,1,0,54391.1,-0.0391588,-0.0395561,-36.3942,28,0.00370043,10,0.00143961,-1.43897,1.30548,0.045194,-64.1943,-0.0395561,
2,0,0,1,0,54391.1,-0.0415559,-0.0419399,-36.234,28,0.00355521,10,0.00151965,-1.44088,1.33632,0.0441509,-62.4571,-0.0419399,
2,0,0,1,0,54391.1,-0.043953,-0.0443608,-36.0881,28,0.00341058,10,0.0016009,-1.44264,1.3363,0.0441518,-62.195,-0.0443608,
2,0,0,1,0,54391.1,-0.0463585,-0.0467415,-35.9487,28,0.00326651,10,0.0016803,-1.44432,1.40913,0.0418698,-58.7454,-0.0467415,
2,0,0,1,0,54391.1,-0.0487556,-0.0491581,-35.797,28,0.00312302,10,0.00175971,-1.44615,1.44799,0.0407463,-56.9535,-0.0491581,
2,0,0,1,0,54391.1,-0.0511527,-0.0515536,-35.6692,28,0.0029801,10,0.00183888,-1.44771,1.53165,0.0385206,-53.6541,-0.0515536,
2,0,0,1,0,54391.1,-0.0535498,-0.053914,-35.544,28,0.0028377,10,0.00191632,-1.44923,1.65856,0.0355731,-49.3673,-0.053914,
2,0,0,1,0,54391.1,-0.055958,-0.0563625,-35.4325,28,0.00269574,10,0.00199707,-1.4506,1.68572,0.0349999,-48.4046,-0.0563625,
2,0,0,1,0,54391.1,-0.0583551,-0.0587622,-35.3228,28,0.00255424,10,0.00207565,-1.45194,1.86341,0.0316624,-43.6606,-0.05876223,
2,0,0,1,0,54391.1,-0.0607522,-0.0611333,-35.2055,28,0.00241321,10,0.00215223,-1.45339,1.97323,0.0299003,-41.1157,-0.0611333,
2,0,0,1,0,54391.1,-0.0631604,-0.0635521,-35.1232,28,0.00227254,10,0.00223215,-1.45441,2.11869,0.0278474,-38.1892,-0.0635521,
2,0,0,1,0,54391.2,-0.0655575,-0.065974,-35.0373,28,0.00213223,10,0.00231155,-1.45547,2.53719,0.0232541,-31.811,-0.065974,
2,0,0,1,0,54391.2,-0.0679546,-0.06836,-34.9563,28,0.00199225,10,0.00238961,-1.45647,2.5504,0.0231337,-31.574,-0.06836,
2,0,0,1,0,54391.2,-0.0703573,-0.0707671,-34.8991,28,0.00185255,10,0.00246971,-1.45719,2.96907,0.0198715,-27.0716,-0.0707671,
2,0,0,1,0,54391.2,-0.0727571,-0.0731106,-34.8214,28,0.00171313,10,0.00254581,-1.45815,3.3866,0.0174216,-23.6896,-0.0731106,
2,0,0,1,0,54391.2,-0.0751542,-0.0755559,-34.7779,28,0.00157395,10,0.00262768,-1.4587,3.91431,0.0150729,-20.4713,-0.0755559,
2,0,0,1,0,54391.2,-0.0775514,-0.0779821,-34.7284,28,0.00143495,10,0.00270819,-1.45932,5.51631,0.0106956,-14.5057,-0.0779821,
2,0,0,1,0,54391.2,-0.0799595,-0.0803882,-34.7021,28,0.00129609,10,0.00278964,-1.45964,5.72582,0.0103042,-13.9586,-0.0803882,
2,0,0,1,0,54391.2,-0.0823567,-0.0827497,-34.6815,28,0.00115733,10,0.00286989,-1.4599,9.37784,0.00629143,-8.517,-0.0827497,
2,0,0,1,0,54391.2,-0.0847538,-0.0851855,-34.6435,28,0.0010187,10,0.00295112,-1.46038,15.2874,0.00385939,-5.22306,-0.0851855,
2,0,0,1,0,54391.2,-0.0871592,-0.0875618,-34.6468,28,0.000880131,10,0.00303373,-1.46034,23.0403,0.00256073,-3.46431,-0.0875618,
2,0,0,1,0,54391.2,-0.0895563,-0.0899817,-34.652,28,0.000741533,10,0.00311805,-1.46027,-37.8916,-0.00155707,2.10582,-0.0899817,
2,0,0,1,0,54391.2,-0.0919534,-0.092358,-34.6483,28,0.000602939,10,0.00320005,-1.46032,-16.6074,-0.00355264,4.80691,-0.092358,
2,0,0,1,0,54391.2,-0.0943505,-0.0947323,-34.6636,28,0.000464314,10,0.00328377,-1.46013,-11.4835,-0.00513779,6.95483,-0.0947323,
2,0,0,1,0,54391.2,-0.0967587,-0.0971256,-34.6927,28,0.000325604,10,0.00336955,-1.45976,-7.35946,-0.00801689,10.854,-0.0971256,
2,0,0,1,0,54391.2,-0.0991558,-0.0995688,-34.7187,28,0.00018681,10,0.0034569,-1.45944,3.37614,0.0174756,-23.5957,-0.0995688,
2,0,0,1,0,54391.2,-0.0999548,-0.100305,-34.7345,28,0.000141674,10,0.00348403,-1.45924,0.0222246,2.65471,-3365.5,-0.100305,
2,0,0,1,1,54391.2,-0.0999548,-0.100381,-34.5303,28,0.00012093,10,0.00346619,-1.4618,-0.0310444,-1.9005,2267.54,-0.100381,
2,0,0,1,1,54391.2,-0.0979573,-0.0984098,-30.3709,28,2.20904e-05,10,0.00298879,-1.51754,-0.0408336,-1.44489,1630.59,-0.0984098,
2,0,0,1,1,54391.2,-0.0955546,-0.0960631,-26.7693,28,-9.16156e-05,10,0.00257155,-1.57236,-0.0432776,-1.36329,1453.12,-0.0960631,
2,0,0,1,1,54391.2,-0.093152,-0.0935913,-23.7877,28,-0.000192308,10,0.00222632,-1.62365,-0.0464234,-1.27091,1197.66,-0.0935913,
2,0,0,1,1,54391.2,-0.0907548,-0.0911916,-21.1769,28,-0.000281895,10,0.00193116,-1.67414,-0.0469102,-1.25772,1046.89,-0.09119159,
2,0,0,1,1,54391.2,-0.0883577,-0.0887792,-18.8367,28,-0.000361634,10,0.00167231,-1.72499,-0.0461083,-1.27959,943.226,-0.0887792,
2,0,0,1,1,54391.2,-0.0859523,-0.0864251,-16.6794,28,-0.000432402,10,0.00144152,-1.77782,-0.0443087,-1.33157,866.581,-0.0864251,
2,0,0,1,1,54391.2,-0.0835552,-0.0839692,-14.7118,28,-0.000494949,10,0.00123534,-1.83233,-0.0418987,-1.40816,804.489,-0.0839692,
2,0,0,1,1,54391.2,-0.0811581,-0.081597,-12.8625,28,-0.000549882,10,0.00104954,-1.89068,-0.0393107,-1.50086,746.659,-0.081597,
2,0,0,1,1,54391.2,-0.0787555,-0.0791825,-11.1163,28,-0.000597638,10,0.000880217,-1.95404,-0.0358592,-1.64533,705.538,-0.0791825,
2,0,0,1,1,54391.2,-0.0763528,-0.0767934,-9.48783,28,-0.000638661,10,0.000728602,-2.02283,-0.032502,-1.81528,660.403,-0.0767934,
2,0,0,1,1,54391.3,-0.0739557,-0.0743884,-7.95223,28,-0.000673384,10,0.000591554,-2.09951,-0.0284248,-2.07565,625.968,-0.0743884,
2,0,0,1,1,54391.3,-0.0715586,-0.0719622,-6.49957,28,-0.000702129,10,0.000467723,-2.18712,-0.0241318,-2.44491,592.192,-0.07196217,
2,0,0,1,1,54391.3,-0.0691532,-0.0695858,-5.1091,28,-0.000725194,10,0.000355521,-2.29166,-0.0192947,-3.05784,565.684,-0.0695858,
2,0,0,1,1,54391.3,-0.066756,-0.0671649,-3.78591,28,-0.00074283,10,0.00025428,-2.42183,-0.0139138,-4.2404,540.176,-0.0671649,
2,0,0,1,1,54391.3,-0.0643589,-0.0648161,-2.53734,28,-0.000755314,10,0.00016446,-2.59562,-0.00662772,-8.90201,513.155,-0.0648161,
2,0,0,1,1,54391.3,-0.0619563,-0.0624037,-1.3363,28,-0.000762929,10,8.339e-05,-2.8741,-0.0154191,-3.82642,489.099,-0.0624037,
2,0,0,1,1,54391.3,-0.0595536,-0.0599838,-0.181796,28,-0.000765829,10,1.09048e-05,-3.74042,-0.085241,-0.692155,467.728,-0.0599838,
2,1,0,1,1,54391.3,-0.0571565,-0.0575756,0.904194,28,-0.000764267,10,-5.20595e-05,-3.04374,0.0277654,2.12494,446.818,-0.0575756,
2,1,0,1,1,54391.3,-0.0547594,-0.0552067,1.95725,28,-0.000758427,10,-0.000108053,-2.70835,0.00714776,8.25434,430.003,-0.05520669,
2,1,0,1,1,54391.3,-0.0523512,-0.0527571,2.97395,28,-0.000748443,10,-0.000156897,-2.52667,0.0131359,4.49152,411.852,-0.0527571,
2,1,0,1,1,54391.3,-0.0499541,-0.0504539,3.91609,28,-0.000734567,10,-0.000197582,-2.40715,0.0204734,2.88178,395.344,-0.0504539,
2,1,0,1,1,54391.3,-0.047557,-0.0479917,4.85137,28,-0.000716928,10,-0.000232825,-2.31414,0.0275642,2.14046,379.981,-0.0479917,
2,1,0,1,1,54391.3,-0.0451544,-0.0456429,5.73825,28,-0.000695659,10,-0.00026191,-2.24122,0.0344635,1.71196,366.692,-0.0456429,
2,1,0,1,1,54391.3,-0.0427545,-0.0432135,6.60035,28,-0.000670881,10,-0.000285224,-2.18043,0.0418455,1.40995,351.379,-0.0432135,
2,1,0,1,1,54391.3,-0.0403574,-0.0408604,7.43394,28,-0.000642723,10,-0.000303754,-2.12878,0.0494393,1.19338,337.387,-0.0408604,
2,1,0,1,1,54391.3,-0.0379603,-0.0384226,8.21375,28,-0.000611342,10,-0.000315594,-2.08546,0.0570897,1.03346,325.17,-0.0384226,
2,1,0,1,1,54391.3,-0.0355521,-0.0359964,8.99286,28,-0.000576842,10,-0.00032371,-2.0461,0.0657039,0.897967,310.164,-0.0359964,
2,1,0,1,1,54391.3,-0.033155,-0.033603,9.72539,28,-0.000539332,10,-0.000326802,-2.01209,0.0733906,0.803918,301.076,-0.033603,
2,1,0,1,1,54391.3,-0.0307579,-0.03118,10.4365,28,-0.000498944,10,-0.000325409,-1.98145,0.0823785,0.716207,288.28,-0.03118,
2,1,0,1,1,54391.3,-0.0283524,-0.0287506,11.1258,28,-0.000455763,10,-0.000319872,-1.95367,0.0916467,0.643777,276.398,-0.0287506,
2,1,0,1,1,54391.3,-0.0259553,-0.026405,11.7579,28,-0.000409916,10,-0.000310466,-1.92967,0.100566,0.586677,267.197,-0.026405,
2,1,0,1,1,54391.3,-0.0235582,-0.0239851,12.3838,28,-0.000361567,10,-0.000297026,-1.90715,0.110346,0.534681,257.003,-0.0239851,
2,1,0,1,1,54391.3,-0.0211611,-0.0215971,12.997,28,-0.000310734,10,-0.000280697,-1.88616,0.12031,0.490399,247.136,-0.0215971,
2,1,0,1,1,54391.3,-0.0187529,-0.0191666,13.5889,28,-0.000257494,10,-0.000260453,-1.86682,0.130505,0.452089,238.05,-0.0191666,
2,1,0,1,1,54391.3,-0.0163558,-0.0167616,14.1411,28,-0.000201985,10,-0.000237027,-1.84952,0.142153,0.415046,227.811,-0.0167616,
2,1,0,1,1,54391.4,-0.0139587,-0.0144033,14.6647,28,-0.000144316,10,-0.00021122,-1.83373,0.154648,0.381512,217.533,-0.0144033,
2,1,0,1,1,54391.4,-0.0115505,-0.0119781,15.1883,28,-8.45698e-05,10,-0.000181928,-1.81849,0.165988,0.355446,209.8,-0.0119781,
2,1,0,1,1,54391.4,-0.0091534,-0.00954768,15.6813,28,-2.27992e-05,10,-0.00014972,-1.80462,0.177666,0.332083,202.4,-0.00954768,
2,1,0,1,1,54391.4,-0.00675629,-0.00717873,16.1516,28,4.09276e-05,10,-0.000115948,-1.79179,0.190986,0.308924,194.109,-0.00717873,
2,1,0,1,1,54391.4,-0.00435919,-0.00479282,16.6099,28,0.000106495,10,-7.96081e-05,-1.77963,0.212557,0.277573,178.572,-0.00479282,
2,1,0,1,1,54391.4,-0.00195376,-0.00239842,17.0478,28,0.000173877,10,-4.08878e-05,-1.76833, , , ,-0.00239842,
2,1,0,0,1,54391.4,-7.54729e-05,-0.000401673,17.3145,28,0.000227205,10,-6.95477e-06,-1.76159, , , ,-0.000401673,