File: Figure_codes/Fig_3-5/rawdata_trumpetplot_data/after 10th/20221101_1-115_003_TrumpetPlot_ParaChange_from10_every3_10_CV_C01_31.csv
mode,ox/red,error,control changes,counter inc.,time/s,control/V,Ewe/V,<I>/mA,cycle number,(Q-Qo)/C,I Range,P/W,log(|I|),Tafel slope mV/dec,alpha_eff,dI/d(E-IR),E-IR/V,
2,1,0,0,0,62264.6,-2.44065e-05,-0.000268062,5.00794,32,0.0000000E+000,10,-1.34244e-06,-2.30034, , , ,-0.000268062,
2,1,0,1,0,62264.6,0.00179726,0.00142594,5.63173,32,4.72387e-05,10,8.0305e-06,-2.24936, , , ,0.00142594,
2,1,0,1,0,62264.6,0.00379485,0.00339829,6.11233,32,0.000106201,10,2.07715e-05,-2.21379,0.0659388,0.89477,211.002,0.00339829,
2,1,0,1,0,62264.6,0.00579244,0.00541121,6.47263,32,0.00016921,10,3.50248e-05,-2.18892,0.0880777,0.669863,168.536,0.00541121,
2,1,0,1,0,62264.6,0.00779002,0.00743844,6.79324,32,0.000235616,10,5.05311e-05,-2.16792,0.106235,0.555372,146.684,0.00743844,
2,1,0,1,0,62264.6,0.00977853,0.00949337,7.07142,32,0.000304298,10,6.71316e-05,-2.15049,0.123234,0.478764,131.776,0.00949337,
2,1,0,1,0,62264.6,0.0117761,0.0114247,7.31853,32,0.000376308,10,8.36117e-05,-2.13558,0.140799,0.419037,119.403,0.0114247,
2,1,0,1,0,62264.6,0.0137737,0.0133846,7.53604,32,0.000450603,10,0.000100867,-2.12286,0.15962,0.369627,108.647,0.0133846,
2,1,0,1,0,62264.6,0.0157713,0.0153861,7.74894,32,0.000527093,10,0.000119226,-2.11076,0.178186,0.331114,99.9666,0.0153861,
2,1,0,1,0,62264.7,0.017778,0.0174189,7.93934,32,0.000605558,10,0.000138295,-2.10022,0.206256,0.286053,88.4942,0.01741894,
2,1,0,1,0,62264.7,0.0197755,0.0194396,8.10764,32,0.000685826,10,0.000157609,-2.09111,0.225926,0.261147,82.5786,0.0194396,
2,1,0,1,0,62264.7,0.0217731,0.0213969,8.26784,32,0.000767698,10,0.000176906,-2.08261,0.245544,0.240283,77.4601,0.0213969,
2,1,0,1,0,62264.7,0.0237707,0.0234037,8.4147,32,0.000851171,10,0.000196935,-2.07496,0.270601,0.218033,71.5762,0.02340368,
2,1,0,1,0,62264.7,0.0257774,0.0254391,8.55716,32,0.000936031,10,0.000217686,-2.06767,0.283423,0.208169,69.4781,0.0254391,
2,1,0,1,0,62264.7,0.027775,0.0273773,8.69078,32,0.00102232,10,0.00023793,-2.06094,0.299784,0.196809,66.7458,0.0273773,
2,1,0,1,0,62264.7,0.0297726,0.0294379,8.82406,32,0.00110988,10,0.000259762,-2.05433,0.336635,0.175264,60.272,0.0294379,
2,1,0,1,0,62264.7,0.0317701,0.0314082,8.93373,32,0.00119871,10,0.000280593,-2.04897,0.34019,0.173432,60.5324,0.0314082,
2,1,0,1,0,62264.7,0.0337586,0.0333924,9.06344,32,0.00128778,10,0.00030265,-2.04271,0.339105,0.173988,61.4981,0.0333924,
2,1,0,1,0,62264.7,0.0357562,0.0354324,9.18121,32,0.00137903,10,0.000325312,-2.0371,0.390402,0.151126,54.0933,0.03543238,
2,1,0,1,0,62264.8,0.0377538,0.0374031,9.28039,32,0.00147134,10,0.000347116,-2.03243,0.387889,0.152105,55.1463,0.0374031,
2,1,0,1,0,62264.8,0.0397514,0.0393874,9.39932,32,0.00156477,10,0.000370215,-2.0269,0.372339,0.158458,58.1113,0.0393874,
2,1,0,1,0,62264.8,0.0417399,0.041429,9.51434,32,0.00165836,10,0.00039417,-2.02162,0.392092,0.150475,55.8493,0.041429,
2,1,0,1,0,62264.8,0.0437375,0.0433742,9.62198,32,0.00175408,10,0.000417346,-2.01674,0.415794,0.141897,53.2719,0.0433742,
2,1,0,1,0,62264.8,0.0457351,0.0453983,9.72579,32,0.00185079,10,0.000441535,-2.01207,0.417613,0.141279,53.6407,0.0453983,
2,1,0,1,0,62264.8,0.0477327,0.0473661,9.8361,32,0.00194863,10,0.000465898,-2.00718,0.398566,0.148031,56.8425,0.0473661,
2,1,0,1,0,62264.8,0.0497393,0.0494023,9.95339,32,0.00204751,10,0.000491721,-2.00203,0.414053,0.142494,55.3095,0.0494023,
2,1,0,1,0,62264.8,0.0517369,0.0513475,10.0563,32,0.00214757,10,0.000516367,-1.99756,0.4322,0.136511,53.5953,0.0513475,
2,1,0,1,0,62264.8,0.0537345,0.0533925,10.1672,32,0.00224866,10,0.000542854,-1.9928,0.431781,0.136643,54.2127,0.0533925,
2,1,0,1,0,62264.8,0.0557321,0.0554079,10.2764,32,0.00235093,10,0.000569396,-1.98816,0.440942,0.133804,53.647,0.0554079,
2,1,0,1,0,62264.9,0.0577297,0.0573618,10.3802,32,0.00245419,10,0.000595426,-1.98379,0.425327,0.138717,56.2374,0.0573618,
2,1,0,1,0,62264.9,0.0597364,0.0593902,10.5004,32,0.00255867,10,0.000623621,-1.97879,0.429194,0.137467,56.3015,0.0593902,
2,1,0,1,0,62264.9,0.0617339,0.0614343,10.6095,32,0.00266421,10,0.000651786,-1.97431,0.441954,0.133498,55.2798,0.0614343,
2,1,0,1,0,62264.9,0.0637315,0.0633803,10.721,32,0.00277089,10,0.000679499,-1.96977,0.437632,0.134816,56.403,0.0633803,
2,1,0,1,0,62264.9,0.0657291,0.065368,10.8313,32,0.00287862,10,0.000708024,-1.96532,0.419396,0.140678,59.5034,0.065368,
2,1,0,1,0,62264.9,0.0677176,0.0673297,10.956,32,0.00298652,10,0.000737662,-1.96035,0.435905,0.135351,57.8205,0.0673297,
2,1,0,1,0,62264.9,0.0697152,0.0693497,11.0616,32,0.00309659,10,0.000767117,-1.95618,0.463052,0.127415,55.0289,0.0693497,
2,1,0,1,0,62264.9,0.0717128,0.0713555,11.1775,32,0.00320779,10,0.000797576,-1.95166,0.446902,0.13202,57.5799,0.0713555,
2,1,0,1,0,62264.9,0.0737104,0.0733215,11.2903,32,0.00332012,10,0.000827819,-1.9473,0.44121,0.133723,58.9399,0.0733215,
2,1,0,1,0,62264.9,0.0756989,0.0753142,11.4108,32,0.00343251,10,0.000859398,-1.94268,0.455874,0.129422,57.6072,0.0753142,
2,1,0,1,0,62265,0.0776965,0.077328,11.5211,32,0.00354712,10,0.000890901,-1.93851,0.473548,0.124591,56.0343,0.077328,
2,1,0,1,0,62265,0.0796941,0.079366,11.6379,32,0.00366296,10,0.000923651,-1.93413,0.475952,0.123962,56.281,0.079366,
2,1,0,1,0,62265,0.0816916,0.0813354,11.7466,32,0.00377987,10,0.000955416,-1.93009,0.475563,0.124063,56.8896,0.0813354,
2,1,0,1,0,62265,0.0836983,0.0833092,11.8622,32,0.00389795,10,0.000988231,-1.92583,0.486218,0.121345,56.1576,0.0833092,
2,1,0,1,0,62265,0.0856959,0.0853273,11.9708,32,0.00401713,10,0.00102143,-1.92188,0.500686,0.117838,55.0597,0.0853273,
2,1,0,1,0,62265,0.0876935,0.0873271,12.0834,32,0.00413745,10,0.00105521,-1.91781,0.525867,0.112196,52.877,0.0873271,
2,1,0,1,0,62265,0.0896911,0.0893235,12.1821,32,0.00425875,10,0.00108815,-1.91428,0.520941,0.113257,53.877,0.0893235,
2,1,0,1,0,62265,0.0916977,0.091266,12.2956,32,0.00438116,10,0.00112217,-1.91025,0.514978,0.114568,54.9603,0.091266,
2,1,0,1,0,62265,0.0936953,0.0933344,12.4025,32,0.00450465,10,0.00115758,-1.90649,0.543718,0.108512,52.5189,0.0933344,
2,1,0,1,0,62265,0.0956929,0.0953082,12.5079,32,0.00462922,10,0.00119211,-1.90281,0.541464,0.108964,53.1948,0.0953082,
2,1,0,1,0,62265.1,0.0976905,0.0973497,12.6161,32,0.0047548,10,0.00122818,-1.89907,0.516218,0.114293,56.2937,0.0973497,
2,1,0,1,0,62265.1,0.099679,0.09932,12.7338,32,0.00488027,10,0.00126472,-1.89504,0.56573,0.10429,51.7653,0.09932,
2,1,0,1,0,62265.1,0.101677,0.101311,12.8212,32,0.00500801,10,0.00129894,-1.89207,0.590657,0.0998887,50.0269,0.101311,
2,1,0,1,0,62265.1,0.103674,0.103292,12.9325,32,0.00513683,10,0.00133582,-1.88832,0.530287,0.111261,56.1594,0.103292,
2,1,0,1,0,62265.1,0.105672,0.105324,13.0465,32,0.00526671,10,0.00137411,-1.8845,0.514541,0.114665,58.397,0.105324,
2,1,0,1,0,62265.1,0.107656,0.107313,13.1673,32,0.00539644,10,0.00141303,-1.8805,0.524775,0.112429,57.743,0.107313,
2,1,0,1,0,62265.1,0.109658,0.109266,13.2742,32,0.00552861,10,0.00145042,-1.87699,0.520892,0.113267,58.7185,0.109266,
2,1,0,1,0,62265.1,0.111655,0.111276,13.4,32,0.00566201,10,0.00149111,-1.87289,0.486538,0.121265,63.4186,0.111276,
2,1,0,1,0,62265.1,0.113653,0.113259,13.5274,32,0.00579663,10,0.0015321,-1.86879,0.480262,0.12285,64.8706,0.113259,
2,1,0,1,0,62265.1,0.115651,0.115309,13.6616,32,0.00593256,10,0.00157531,-1.8645,0.458301,0.128736,68.6632,0.115309,
2,1,0,1,0,62265.2,0.117657,0.117326,13.8067,32,0.00606994,10,0.00161989,-1.85991,0.425237,0.138746,74.7763,0.117326,
2,1,0,1,0,62265.2,0.119655,0.11928,13.9586,32,0.00620881,10,0.00166498,-1.85516,0.437753,0.134779,73.3933,0.11928,
2,1,0,1,0,62265.2,0.121652,0.121329,14.1005,32,0.00634911,10,0.0017108,-1.85077,0.430118,0.137172,75.5324,0.121329,
2,1,0,1,0,62265.2,0.12365,0.123286,14.2611,32,0.00649098,10,0.00175819,-1.84585,0.393778,0.149831,83.4017,0.123286,
2,1,0,1,0,62265.2,0.125657,0.125241,14.4267,32,0.00663448,10,0.00180683,-1.84083,0.401443,0.14697,82.7484,0.125241,
2,1,0,1,0,62265.2,0.127654,0.127304,14.5936,32,0.00677963,10,0.00185782,-1.83584,0.422615,0.139607,79.4768,0.127304,
2,1,0,1,0,62265.2,0.129652,0.129292,14.7487,32,0.00692634,10,0.00190689,-1.83125,0.418629,0.140936,81.1558,0.129292,
2,1,0,1,0,62265.2,0.131649,0.131291,14.9172,32,0.00707474,10,0.0019585,-1.82631,0.413508,0.142682,83.0429,0.131291,
2,1,0,1,0,62265.2,0.133638,0.133268,15.0789,32,0.00722328,10,0.00200954,-1.82163,0.421043,0.140128,82.4656,0.1332684,
2,1,0,1,0,62265.2,0.135636,0.135239,15.2428,32,0.00737493,10,0.00206142,-1.81694,0.439081,0.134372,79.9083,0.135239,
2,1,0,1,0,62265.3,0.137633,0.137258,15.3977,32,0.00752812,10,0.00211347,-1.81254,0.465691,0.126693,76.1239,0.137258,
2,1,0,1,0,62265.3,0.139631,0.139275,15.55,32,0.00768289,10,0.00216571,-1.80827,0.484277,0.121831,73.9136,0.139275,
2,1,0,1,0,62265.3,0.141619,0.141268,15.6941,32,0.00783751,10,0.00221707,-1.80426,0.50011,0.117974,72.2579,0.141268,
2,1,0,1,0,62265.3,0.143617,0.143276,15.8391,32,0.00799519,10,0.00226935,-1.80027,0.533556,0.110579,68.313,0.143276,
2,1,0,1,0,62265.3,0.145614,0.145244,15.9657,32,0.0081542,10,0.00231892,-1.79681,0.577856,0.102102,63.6153,0.145244,
2,1,0,1,0,62265.3,0.147612,0.147241,16.0913,32,0.0083145,10,0.00236931,-1.79341,0.620472,0.0950889,59.6962,0.147241,
2,1,0,1,0,62265.3,0.149619,0.149291,16.2073,32,0.00847597,10,0.00241959,-1.79029,0.678594,0.0869445,54.9745,0.149291,
2,1,0,1,0,62265.3,0.151616,0.151258,16.3122,32,0.00863864,10,0.00246735,-1.78749,0.80098,0.0736597,46.8572,0.151258,
2,1,0,1,0,62265.3,0.153614,0.153249,16.3927,32,0.00880218,10,0.00251216,-1.78535,0.924086,0.0638469,40.8485,0.153249,
2,1,0,1,0,62265.3,0.155611,0.155248,16.4751,32,0.00896659,10,0.00255773,-1.78317,1.05425,0.0559639,35.9609,0.1552476,
2,1,0,1,0,62265.3,0.157618,0.15727,16.5373,32,0.00913164,10,0.00260083,-1.78153,1.61287,0.0365808,23.5881,0.15727,
2,1,0,1,0,62265.4,0.159616,0.159269,16.57,32,0.00929723,10,0.00263908,-1.78068,4.47125,0.0131954,8.52503,0.159269,
2,1,0,1,0,62265.4,0.161613,0.161238,16.5712,32,0.00946293,10,0.00267189,-1.78065,-10.5002,-0.00561896,-3.63204,0.161238,
2,1,0,1,0,62265.4,0.163611,0.163277,16.5554,32,0.00962862,10,0.00270313,-1.78106,-2.25587,-0.026154,-16.8796,0.163277,
2,1,0,1,0,62265.4,0.165618,0.165266,16.5032,32,0.0097939,10,0.00272741,-1.78243,-1.16518,-0.050636,-32.5882,0.165266,
2,1,0,1,0,62265.4,0.167597,0.167247,16.4261,32,0.00995694,10,0.00274721,-1.78447,-0.779929,-0.0756479,-48.437,0.167247,
2,1,0,1,0,62265.4,0.169595,0.169249,16.3102,32,0.0101206,10,0.00276049,-1.78754,-0.573863,-0.102812,-65.3833,0.169249,
2,1,0,1,0,62265.4,0.171592,0.171239,16.165,32,0.010283,10,0.00276809,-1.79142,-0.438774,-0.134466,-84.7153,0.171239,
2,1,0,1,0,62265.4,0.173572,0.173181,15.9771,32,0.0104421,10,0.00276693,-1.7965,-0.379588,-0.155432,-96.8911,0.173181,
2,1,0,1,0,62265.4,0.175578,0.175192,15.782,32,0.010601,10,0.00276489,-1.80184,-0.337531,-0.174799,-107.492,0.1751921,
2,1,0,1,0,62265.4,0.177576,0.177257,15.539,32,0.0107575,10,0.00275439,-1.80858,-0.282556,-0.208809,-126.516,0.177257,
2,1,0,1,0,62265.5,0.179573,0.179232,15.271,32,0.0109115,10,0.00273704,-1.81613,-0.251301,-0.234778,-139.824,0.179232,
2,1,0,1,0,62265.5,0.181571,0.181221,14.9847,32,0.0110628,10,0.00271555,-1.82435,-0.237481,-0.248441,-145.23,0.1812211,
2,1,0,1,0,62265.5,0.183578,0.183233,14.6899,32,0.0112111,10,0.00269167,-1.83298,-0.22127,-0.266642,-152.705,0.183233,
2,1,0,1,0,62265.5,0.185575,0.185256,14.3685,32,0.0113564,10,0.00266186,-1.84259,-0.208148,-0.283452,-158.958,0.185256,
2,1,0,1,0,62265.5,0.187573,0.187235,14.0537,32,0.0114985,10,0.00263134,-1.85221,-0.199831,-0.295249,-161.836,0.187235,
2,1,0,1,0,62265.5,0.18957,0.189224,13.7264,32,0.0116373,10,0.00259737,-1.86244,-0.198018,-0.297953,-159.664,0.189224,
2,1,0,1,0,62265.5,0.191577,0.191249,13.4128,32,0.011773,10,0.00256519,-1.87248,-0.194363,-0.303556,-158.841,0.191249,
2,1,0,1,0,62265.5,0.193575,0.193204,13.0943,32,0.0119055,10,0.00252986,-1.88292,-0.192634,-0.306281,-156.592,0.193204,
2,1,0,1,0,62265.5,0.195572,0.195208,12.7929,32,0.0120349,10,0.00249728,-1.89303,-0.195408,-0.301932,-150.693,0.195208,
2,1,0,1,0,62265.5,0.19757,0.19723,12.4875,32,0.0121613,10,0.00246291,-1.90352,-0.201519,-0.292777,-142.873,0.19723,
2,1,0,1,0,62265.6,0.199558,0.199221,12.2195,32,0.0122836,10,0.00243438,-1.91295,-0.205381,-0.287271,-136.929,0.199221,
2,1,0,1,0,62265.6,0.201556,0.201203,11.9436,32,0.0124043,10,0.00240308,-1.92287,-0.205845,-0.286623,-133.688,0.201203,
2,1,0,1,0,62265.6,0.203554,0.203203,11.6872,32,0.0125224,10,0.00237487,-1.93229,-0.211018,-0.279597,-127.53,0.203203,
2,1,0,1,0,62265.6,0.205551,0.205192,11.4348,32,0.012638,10,0.00234633,-1.94177,-0.228911,-0.257743,-115.211,0.205192,
2,1,0,1,0,62265.6,0.20754,0.20723,11.2232,32,0.0127501,10,0.00232579,-1.94988,-0.233781,-0.252373,-110.438,0.20723,
2,1,0,1,0,62265.6,0.209537,0.209187,10.9936,32,0.0128611,10,0.00229972,-1.95886,-0.232257,-0.254029,-109.106,0.209187,
2,1,0,1,0,62265.6,0.211535,0.211199,10.7902,32,0.01297,10,0.00227888,-1.96697,-0.244317,-0.24149,-101.693,0.211199,
2,1,0,1,0,62265.6,0.213532,0.213164,10.5892,32,0.0130768,10,0.00225723,-1.97514,-0.260626,-0.226378,-93.664,0.213164,
2,1,0,1,0,62265.6,0.215539,0.215201,10.4154,32,0.0131818,10,0.0022414,-1.98233,-0.272163,-0.216782,-88.0852,0.215201,
2,1,0,1,0,62265.6,0.217537,0.217174,10.236,32,0.013285,10,0.00222298,-1.98987,-0.279171,-0.21134,-84.5097,0.217174,
2,1,0,1,0,62265.7,0.219534,0.219183,10.0788,32,0.0133866,10,0.00220911,-1.99659,-0.295328,-0.199778,-78.5678,0.219183,
2,1,0,1,0,62265.7,0.221532,0.221198,9.91981,32,0.0134865,10,0.00219424,-2.0035,-0.302191,-0.195241,-75.6439,0.221198,
2,1,0,1,0,62265.7,0.223534,0.223164,9.77772,32,0.013585,10,0.00218203,-2.00976,-0.326494,-0.180708,-68.9677,0.223164,
2,1,0,1,0,62265.7,0.225536,0.225255,9.64002,32,0.0136821,10,0.00217146,-2.01592,-0.337866,-0.174625,-65.7294,0.225255,
2,1,0,1,0,62265.7,0.227534,0.227193,9.51288,32,0.0137778,10,0.00216126,-2.02169,-0.328956,-0.179355,-66.5669,0.227193,
2,1,0,1,0,62265.7,0.229531,0.229143,9.38117,32,0.0138723,10,0.00214963,-2.02774,-0.364425,-0.161899,-59.354,0.229143,
2,1,0,1,0,62265.7,0.231529,0.231188,9.27575,32,0.0139656,10,0.00214444,-2.03265,-0.409609,-0.14404,-52.1418,0.231188,
2,1,0,1,0,62265.7,0.233517,0.233179,9.17076,32,0.0140569,10,0.00213842,-2.03759,-0.402616,-0.146542,-52.4529,0.233179,
2,1,0,1,0,62265.7,0.235515,0.235145,9.06822,32,0.0141481,10,0.00213234,-2.04248,-0.395333,-0.149241,-52.8018,0.235145,
2,1,0,1,0,62265.7,0.237512,0.237146,8.96125,32,0.0142382,10,0.00212513,-2.04763,-0.434281,-0.135857,-47.5725,0.237146,
2,1,0,1,0,62265.8,0.23951,0.239157,8.87735,32,0.0143274,10,0.00212308,-2.05172,-0.482625,-0.122248,-42.3441,0.239157,
2,1,0,1,0,62265.8,0.241499,0.241189,8.79006,32,0.0144148,10,0.00212007,-2.05601,-0.478803,-0.123224,-42.2839,0.241189,
2,1,0,1,0,62265.8,0.243496,0.243153,8.70836,32,0.0145023,10,0.00211747,-2.06006,-0.491448,-0.120053,-40.8044,0.243153,
2,1,0,1,0,62265.8,0.245494,0.24515,8.62845,32,0.0145889,10,0.00211526,-2.06407,-0.510116,-0.11566,-38.9554,0.24515,
2,1,0,1,0,62265.8,0.247491,0.247154,8.55252,32,0.0146748,10,0.00211379,-2.06791,-0.517006,-0.114119,-38.0864,0.247154,
2,1,0,1,0,62265.8,0.249498,0.24917,8.47533,32,0.0147599,10,0.0021118,-2.07184,-0.579587,-0.101797,-33.7087,0.2491702,
2,1,0,1,0,62265.8,0.251496,0.251158,8.41755,32,0.0148444,10,0.00211413,-2.07481,-0.578003,-0.102076,-33.4963,0.251158,
2,1,0,1,0,62265.8,0.253493,0.253158,8.34176,32,0.0149282,10,0.00211178,-2.07874,-0.552463,-0.106794,-34.7974,0.253158,
2,1,0,1,0,62265.8,0.255491,0.255086,8.28085,32,0.0150113,10,0.00211233,-2.08193,-0.654313,-0.090171,-29.1514,0.255086,
2,1,0,1,0,62265.8,0.257497,0.257126,8.22608,32,0.0150938,10,0.00211514,-2.08481,-0.725061,-0.0813725,-26.1284,0.257126,
2,1,0,1,0,62265.9,0.259495,0.259155,8.17453,32,0.0151758,10,0.00211847,-2.08754,-0.627422,-0.0940356,-29.9705,0.259155,
2,1,0,1,0,62265.9,0.261493,0.261089,8.1073,32,0.0152572,10,0.00211673,-2.09112,-0.685811,-0.0860296,-27.2617,0.261089,
2,1,0,1,0,62265.9,0.26349,0.263167,8.06516,32,0.0153381,10,0.00212249,-2.09339,-0.8266,-0.0713767,-22.4562,0.263167,
2,1,0,1,0,62265.9,0.265479,0.26516,8.01588,32,0.0154176,10,0.00212549,-2.09605,-0.747285,-0.0789525,-24.6998,0.26516,
2,1,0,1,0,62265.9,0.267476,0.267132,7.96724,32,0.0154975,10,0.0021283,-2.09869,-0.72284,-0.0816225,-25.3748,0.267132,
2,1,0,1,0,62265.9,0.269474,0.2691,7.91591,32,0.0155769,10,0.00213017,-2.1015,-0.834705,-0.0706837,-21.8581,0.2691001,
2,1,0,1,0,62265.9,0.271471,0.271107,7.88035,32,0.0156559,10,0.00213642,-2.10345,-0.931259,-0.0633551,-19.4759,0.271107,
2,1,0,1,0,62265.9,0.27346,0.273106,7.83789,32,0.0157336,10,0.00214057,-2.1058,-0.815384,-0.0723585,-22.1296,0.273106,
2,1,0,1,0,62265.9,0.275458,0.275067,7.79271,32,0.0158117,10,0.00214352,-2.10831,-0.781243,-0.0755206,-22.9655,0.275067,
2,1,0,1,0,62265.9,0.277455,0.277098,7.74622,32,0.0158894,10,0.00214646,-2.11091,-0.92045,-0.0640991,-19.3959,0.277098,
2,1,0,1,0,62266,0.279453,0.279111,7.71427,32,0.0159667,10,0.00215314,-2.11271,-0.903105,-0.0653302,-19.6495,0.279111,
2,1,0,1,0,62266,0.281455,0.281102,7.66752,32,0.0160436,10,0.00215536,-2.11534,-0.989526,-0.0596245,-17.8672,0.281102,
2,1,0,1,0,62266,0.283457,0.283126,7.64254,32,0.0161202,10,0.0021638,-2.11676,-1.02436,-0.0575967,-17.1582,0.283126,
2,1,0,1,0,62266,0.285455,0.285088,7.59914,32,0.0161964,10,0.00216642,-2.11924,-0.927475,-0.0636136,-18.8799,0.285088,
2,1,0,1,0,62266,0.287452,0.287119,7.56715,32,0.0162722,10,0.00217267,-2.12107,-0.984687,-0.0599175,-17.6862,0.287119,
2,1,0,1,0,62266,0.28945,0.289121,7.52781,32,0.0163477,10,0.00217645,-2.12333,-1.13642,-0.0519175,-15.2707,0.289121,
2,1,0,1,0,62266,0.291456,0.291102,7.50633,32,0.0164228,10,0.00218511,-2.12457,-0.912423,-0.064663,-18.9022,0.291102,
2,1,0,1,0,62266,0.293454,0.293094,7.4527,32,0.0164976,10,0.00218435,-2.12769,-0.927951,-0.063581,-18.5339,0.293094,
2,1,0,1,0,62266,0.295452,0.2951,7.43224,32,0.0165721,10,0.00219325,-2.12888,-1.25775,-0.0469091,-13.5938,0.2951,
2,1,0,1,0,62266,0.297449,0.297105,7.39818,32,0.0166463,10,0.00219804,-2.13088,-1.3068,-0.0451486,-13.0494,0.297105,
2,1,0,1,0,62266.1,0.299438,0.299115,7.37984,32,0.0167195,10,0.00220742,-2.13195,-0.0818943,-0.720441,-201.341,0.299115,
2,1,0,1,0,62266.1,0.299746,0.299437,6.9288,32,0.0167506,10,0.00207474,-2.15934,0.00999701,5.90176,1405.61,0.299437,
2,1,0,1,0,62266.1,0.29774,0.297409,4.98208,32,0.016809,10,0.00148172,-2.30259,0.0145219,4.06284,814.519,0.297409,
2,1,0,1,0,62266.1,0.295742,0.295454,3.68443,32,0.016852,10,0.00108858,-2.43363,0.0149637,3.94289,571.063,0.295454,
2,1,0,1,0,62266.1,0.293745,0.293373,2.67723,32,0.0168834,10,0.000785428,-2.57231,0.0135164,4.36506,453.553,0.293373,
2,1,0,1,0,62266.1,0.291747,0.291408,1.84949,32,0.0169059,10,0.000538957,-2.73295,0.0108345,5.44557,385.134,0.291408,
2,1,0,1,0,62266.1,0.289745,0.289426,1.1572,32,0.0169207,10,0.000334925,-2.93659,0.00793047,7.43966,315.768,0.289426,
2,1,0,1,0,62266.1,0.287743,0.287358,0.570651,32,0.0169292,10,0.000163981,-3.24363,0.00333591,17.6863,271.121,0.287358,
2,1,0,1,0,62266.1,0.285745,0.285428,0.0732742,32,0.0169322,10,2.09145e-05,-4.13505,0.0205105,2.87657,235.778,0.285428,
2,0,0,1,0,62266.1,0.283748,0.283388,-0.365429,32,0.0169307,10,-0.000103558,-3.4372,-0.00398805,-14.7942,203.385,0.283388,
2,0,0,1,0,62266.2,0.28175,0.281417,-0.742495,32,0.0169251,10,-0.000208951,-3.12931,-0.00849651,-6.94403,178.164,0.281417,
2,0,0,1,0,62266.2,0.279761,0.279408,-1.07446,32,0.016916,10,-0.000300212,-2.96881,-0.0148486,-3.97344,159.058,0.279408,
2,0,0,1,0,62266.2,0.277764,0.277452,-1.37315,32,0.0169037,10,-0.000380985,-2.86228,-0.0218664,-2.6982,140.957,0.277452,
2,0,0,1,0,62266.2,0.275766,0.275376,-1.64282,32,0.0168885,10,-0.000452392,-2.78441,-0.0296188,-1.99198,125.131,0.275376,
2,0,0,1,0,62266.2,0.273769,0.273468,-1.87174,32,0.0168709,10,-0.00051186,-2.72776,-0.0367075,-1.6073,116.774,0.2734679,
2,0,0,1,0,62266.2,0.27178,0.271469,-2.09899,32,0.0168512,10,-0.000569812,-2.67799,-0.0453328,-1.30148,105.538,0.271469,
2,0,0,1,0,62266.2,0.269783,0.269424,-2.29847,32,0.0168292,10,-0.000619265,-2.63856,-0.0551345,-1.07011,95.4105,0.269424,
2,0,0,1,0,62266.2,0.267785,0.267468,-2.48077,32,0.0168053,10,-0.000663527,-2.60541,-0.0655276,-0.900384,86.6446,0.267468,
2,0,0,1,0,62266.2,0.265787,0.265472,-2.64096,32,0.0167796,10,-0.000701101,-2.57824,-0.0752733,-0.783811,80.7442,0.265472,
2,0,0,1,0,62266.2,0.263781,0.263452,-2.80504,32,0.0167524,10,-0.000738994,-2.55206,-0.0842376,-0.7004,76.2942,0.2634519,
2,0,0,1,0,62266.3,0.261783,0.261462,-2.94691,32,0.0167236,10,-0.000770503,-2.53063,-0.0987071,-0.597728,68.5752,0.261462,
2,0,0,1,0,62266.3,0.259786,0.259463,-3.07855,32,0.0166935,10,-0.000798772,-2.51165,-0.110143,-0.53567,64.2579,0.259463,
2,0,0,1,0,62266.3,0.257788,0.257458,-3.20414,32,0.016662,10,-0.000824933,-2.49429,-0.118963,-0.495952,62.0024,0.257458,
2,0,0,1,0,62266.3,0.255781,0.255384,-3.33149,32,0.0166293,10,-0.000850809,-2.47736,-0.134881,-0.437422,56.6253,0.255384,
2,0,0,1,0,62266.3,0.253784,0.253426,-3.43249,32,0.0165955,10,-0.000869882,-2.46439,-0.149207,-0.395423,53.012,0.253426,
2,0,0,1,0,62266.3,0.251786,0.251432,-3.54099,32,0.0165606,10,-0.000890319,-2.45088,-0.159776,-0.369266,50.9393,0.251432,
2,0,0,1,0,62266.3,0.249789,0.249374,-3.63888,32,0.0165247,10,-0.000907443,-2.43903,-0.169888,-0.347288,49.3114,0.249374,
2,0,0,1,0,62266.3,0.2478,0.247451,-3.7373,32,0.0164882,10,-0.000924798,-2.42744,-0.17864,-0.330274,48.103,0.247451,
2,0,0,1,0,62266.3,0.245802,0.245472,-3.82657,32,0.0164503,10,-0.000939316,-2.41719,-0.199291,-0.296049,44.198,0.245472,
2,0,0,1,0,62266.3,0.243805,0.243434,-3.91484,32,0.0164116,10,-0.000953006,-2.40729,-0.223938,-0.263465,40.1768,0.243434,
2,0,0,1,0,62266.4,0.241807,0.24142,-3.98936,32,0.0163721,10,-0.000963114,-2.3991,-0.219476,-0.268822,41.938,0.24142,
2,0,0,1,0,62266.4,0.239819,0.239469,-4.08114,32,0.0163321,10,-0.000977306,-2.38922,-0.227021,-0.259888,41.2877,0.239469,
2,0,0,1,0,62266.4,0.237821,0.237453,-4.15316,32,0.0162909,10,-0.000986181,-2.38162,-0.259713,-0.227174,36.832,0.237453,
2,0,0,1,0,62266.4,0.235824,0.23547,-4.22843,32,0.0162491,10,-0.000995667,-2.37382,-0.277502,-0.212611,35.0308,0.23547,
2,0,0,1,0,62266.4,0.233826,0.233512,-4.29123,32,0.0162065,10,-0.00100205,-2.36742,-0.279934,-0.210764,35.3547,0.233512,
2,0,0,1,0,62266.4,0.231824,0.231501,-4.36873,32,0.0161632,10,-0.00101137,-2.35964,-0.288298,-0.204649,34.8372,0.231501,
2,0,0,1,0,62266.4,0.229822,0.229437,-4.4332,32,0.0161191,10,-0.00101714,-2.35328,-0.31803,-0.185517,32.0944,0.229437,
2,0,0,1,0,62266.4,0.227824,0.227487,-4.49757,32,0.0160745,10,-0.00102314,-2.34702,-0.330795,-0.178358,31.2873,0.227487,
2,0,0,1,0,62266.4,0.225827,0.22548,-4.55698,32,0.0160292,10,-0.00102751,-2.34132,-0.333702,-0.176805,31.4666,0.22548,
2,0,0,1,0,62266.4,0.223829,0.223482,-4.62359,32,0.0159833,10,-0.00103329,-2.33502,-0.345646,-0.170695,30.7663,0.223482,
2,0,0,1,0,62266.5,0.221822,0.22147,-4.68036,32,0.0159367,10,-0.00103656,-2.32972,-0.37104,-0.159012,29.0527,0.22147,
2,0,0,1,0,62266.5,0.219825,0.219474,-4.74004,32,0.0158896,10,-0.00104031,-2.32422,-0.36227,-0.162862,30.1285,0.219474,
2,0,0,1,0,62266.5,0.217827,0.217483,-4.80049,32,0.0158418,10,-0.00104402,-2.31871,-0.391403,-0.15074,28.2126,0.217483,
2,0,0,1,0,62266.5,0.21583,0.215513,-4.85178,32,0.0157936,10,-0.00104562,-2.3141,-0.398026,-0.148231,28.0962,0.215513,
2,0,0,1,0,62266.5,0.213841,0.213465,-4.91339,32,0.0157452,10,-0.00104883,-2.30862,-0.384007,-0.153643,29.4472,0.213465,
2,0,0,1,0,62266.5,0.211843,0.211476,-4.97066,32,0.0156958,10,-0.00105118,-2.30359,-0.466929,-0.126357,24.4675,0.2114763,
2,0,0,1,0,62266.5,0.209846,0.209508,-5.0102,32,0.0156459,10,-0.00104968,-2.30015,-0.468644,-0.125895,24.6596,0.2095079,
2,0,0,1,0,62266.5,0.207848,0.207547,-5.06756,32,0.0155955,10,-0.00105175,-2.2952,-0.378948,-0.155694,30.8138,0.2075467,
2,0,0,1,0,62266.5,0.20586,0.205534,-5.13265,32,0.0155449,10,-0.00105493,-2.28966,-0.402536,-0.146571,29.3258,0.205534,
2,0,0,1,0,62266.5,0.203862,0.203496,-5.18635,32,0.0154933,10,-0.0010554,-2.28514,-0.509706,-0.115753,23.3959,0.203496,
2,0,0,1,0,62266.6,0.201865,0.201561,-5.22559,32,0.0154413,10,-0.00105328,-2.28186,-0.499389,-0.118144,24.1345,0.201561,
2,0,0,1,0,62266.6,0.199867,0.199508,-5.28261,32,0.0153888,10,-0.00105392,-2.27715,-0.462623,-0.127534,26.2724,0.199508,
2,0,0,1,0,62266.6,0.19786,0.19752,-5.33177,32,0.0153357,10,-0.00105313,-2.27313,-0.50152,-0.117642,24.4785,0.19752,
2,0,0,1,0,62266.6,0.195863,0.195493,-5.38087,32,0.0152821,10,-0.00105192,-2.26915,-0.486685,-0.121228,25.4666,0.195493,
2,0,0,1,0,62266.6,0.193865,0.193505,-5.43402,32,0.015228,10,-0.00105151,-2.26488,-0.47321,-0.12468,26.4419,0.193505,
2,0,0,1,0,62266.6,0.191868,0.191451,-5.48776,32,0.0151734,10,-0.00105064,-2.26061,-0.485698,-0.121475,26.0048,0.191451,
2,0,0,1,0,62266.6,0.189861,0.189544,-5.53702,32,0.0151183,10,-0.00104951,-2.25672,-0.492723,-0.119743,25.8849,0.189544,
2,0,0,1,0,62266.6,0.187863,0.187478,-5.59059,32,0.0150627,10,-0.00104811,-2.25254,-0.489033,-0.120646,26.3175,0.187478,
2,0,0,1,0,62266.6,0.185866,0.185549,-5.64217,32,0.0150065,10,-0.0010469,-2.24855,-0.536577,-0.109956,24.1962,0.185549,
2,0,0,1,0,62266.6,0.183868,0.183507,-5.68667,32,0.0149498,10,-0.00104355,-2.24514,-0.493607,-0.119528,26.5696,0.183507,
2,0,0,1,0,62266.7,0.18188,0.181503,-5.74966,32,0.0148932,10,-0.00104358,-2.24036,-0.437543,-0.134844,30.2414,0.181503,
2,0,0,1,0,62266.7,0.179882,0.179534,-5.80684,32,0.0148354,10,-0.00104252,-2.23606,-0.513603,-0.114875,26.0089,0.179534,
2,0,0,1,0,62266.7,0.177885,0.177511,-5.85348,32,0.0147771,10,-0.00103906,-2.23259,-0.522768,-0.112861,25.8034,0.1775112,
2,0,0,1,0,62266.7,0.175887,0.175535,-5.91002,32,0.0147183,10,-0.00103742,-2.22841,-0.475713,-0.124024,28.6049,0.175535,
2,0,0,1,0,62266.7,0.173908,0.173563,-5.96643,32,0.0146595,10,-0.00103555,-2.22429,-0.461702,-0.127788,29.7693,0.173563,
2,0,0,1,0,62266.7,0.171901,0.171547,-6.02873,32,0.0145995,10,-0.00103421,-2.21977,-0.447046,-0.131977,31.0487,0.171547,
2,0,0,1,0,62266.7,0.169903,0.169576,-6.09021,32,0.0145389,10,-0.00103275,-2.21537,-0.439496,-0.134245,31.9161,0.169576,
2,0,0,1,0,62266.7,0.167906,0.167579,-6.15539,32,0.0144777,10,-0.00103151,-2.21074,-0.431113,-0.136855,32.8781,0.167579,
2,0,0,1,0,62266.7,0.165908,0.165574,-6.22179,32,0.0144158,10,-0.00103017,-2.20608,-0.425522,-0.138653,33.6774,0.165574,
2,0,0,1,0,62266.7,0.163901,0.16351,-6.29242,32,0.0143532,10,-0.00102887,-2.20118,-0.417681,-0.141256,34.6805,0.16351,
2,0,0,1,0,62266.8,0.161904,0.161573,-6.36054,32,0.0142899,10,-0.00102769,-2.19651,-0.404345,-0.145915,36.2394,0.161573,
2,0,0,1,0,62266.8,0.159906,0.159555,-6.43573,32,0.0142259,10,-0.00102685,-2.1914,-0.386313,-0.152726,38.3721,0.159555,
2,0,0,1,0,62266.8,0.157909,0.157529,-6.51574,32,0.0141612,10,-0.00102642,-2.18604,-0.34879,-0.169156,43.0504,0.157529,
2,0,0,1,0,62266.8,0.155902,0.155569,-6.60736,32,0.0140955,10,-0.0010279,-2.17997,-0.325377,-0.181328,46.7623,0.155569,
2,0,0,1,0,62266.8,0.153904,0.153566,-6.70103,32,0.014029,10,-0.00102905,-2.17386,-0.328629,-0.179533,46.952,0.153566,
2,0,0,1,0,62266.8,0.151907,0.151558,-6.79568,32,0.0139615,10,-0.00102994,-2.16777,-0.311683,-0.189295,50.2512,0.151558,
2,0,0,1,0,62266.8,0.149909,0.149523,-6.9042,32,0.0138929,10,-0.00103234,-2.16089,-0.267246,-0.22077,59.5653,0.149523,
2,0,0,1,0,62266.8,0.147921,0.147584,-7.03238,32,0.0138239,10,-0.00103787,-2.1529,-0.258829,-0.22795,62.5106,0.147584,
2,0,0,1,0,62266.8,0.145923,0.145581,-7.1506,32,0.013753,10,-0.00104099,-2.14566,-0.25017,-0.23584,65.9469,0.145581,
2,0,0,1,0,62266.8,0.143926,0.143538,-7.29918,32,0.0136807,10,-0.00104771,-2.13673,-0.218555,-0.269955,76.9521,0.143538,
2,0,0,1,0,62266.9,0.141928,0.141564,-7.45973,32,0.0136069,10,-0.00105603,-2.12728,-0.201685,-0.292536,85.2529,0.141564,
2,0,0,1,0,62266.9,0.139939,0.139563,-7.63808,32,0.0135322,10,-0.00106599,-2.11702,-0.192028,-0.307247,91.5966,0.139563,
2,0,0,1,0,62266.9,0.137942,0.137622,-7.82081,32,0.0134549,10,-0.00107632,-2.10675,-0.181188,-0.325629,99.5816,0.137622,
2,0,0,1,0,62266.9,0.135944,0.135555,-8.03723,32,0.0133756,10,-0.00108948,-2.09489,-0.169695,-0.347683,109.093,0.1355547,
2,0,0,1,0,62266.9,0.133947,0.133569,-8.26301,32,0.0132941,10,-0.00110368,-2.08286,-0.156452,-0.377112,121.787,0.133569,
2,0,0,1,0,62266.9,0.13194,0.131612,-8.51736,32,0.0132102,10,-0.00112099,-2.06969,-0.152007,-0.38814,129.041,0.1316123,
2,0,0,1,0,62266.9,0.129942,0.129565,-8.77968,32,0.0131237,10,-0.00113754,-2.05652,-0.146411,-0.402976,138.276,0.129565,
2,0,0,1,0,62266.9,0.127945,0.127593,-9.07318,32,0.0130344,10,-0.00115767,-2.04224,-0.141743,-0.416245,147.309,0.127593,
2,0,0,1,0,62266.9,0.125947,0.125607,-9.36274,32,0.0129422,10,-0.00117602,-2.0286,-0.14164,-0.41655,152.393,0.125607,
2,0,0,1,0,62266.9,0.123941,0.123599,-9.68178,32,0.012847,10,-0.00119666,-2.01404,-0.141477,-0.417028,157.471,0.123599,
2,0,0,1,0,62267,0.121943,0.121591,-9.99502,32,0.0127485,10,-0.00121531,-2.00022,-0.150267,-0.392634,152.964,0.121591,
2,0,0,1,0,62267,0.119945,0.119627,-10.2893,32,0.0126471,10,-0.00123088,-1.98761,-0.149471,-0.394726,158.734,0.119627,
2,0,0,1,0,62267,0.117948,0.117657,-10.6196,32,0.0125425,10,-0.00124947,-1.97389,-0.149119,-0.395658,163.958,0.117657,
2,0,0,1,0,62267,0.115946,0.115574,-10.9539,32,0.0124346,10,-0.00126599,-1.96043,-0.158123,-0.373126,159.312,0.115574,
2,0,0,1,0,62267,0.113962,0.11359,-11.2675,32,0.0123245,10,-0.00127987,-1.94817,-0.165425,-0.356657,156.759,0.11359,
2,0,0,1,0,62267,0.111964,0.111606,-11.5759,32,0.0122102,10,-0.00129194,-1.93644,-0.172356,-0.342315,154.577,0.111606,
2,0,0,1,0,62267,0.109967,0.109633,-11.8792,32,0.0120929,10,-0.00130235,-1.92521,-0.177656,-0.332102,153.943,0.109633,
2,0,0,1,0,62267,0.107969,0.107654,-12.1843,32,0.0119725,10,-0.00131169,-1.9142,-0.187646,-0.314422,149.401,0.107654,
2,0,0,1,0,62267,0.10598,0.105637,-12.4761,32,0.0118504,10,-0.00131794,-1.90392,-0.201297,-0.293099,142.631,0.105637,
2,0,0,1,0,62267,0.103983,0.103629,-12.7583,32,0.0117242,10,-0.00132214,-1.89421,-0.209007,-0.282287,140.481,0.103629,
2,0,0,1,0,62267.1,0.101985,0.101688,-13.0309,32,0.0115952,10,-0.00132509,-1.88502,-0.224838,-0.262411,133.344,0.101688,
2,0,0,1,0,62267.1,0.0999877,0.0996697,-13.2863,32,0.0114636,10,-0.00132424,-1.87659,-0.243368,-0.242432,125.693,0.0996697,
2,0,0,1,0,62267.1,0.0979811,0.0976213,-13.5421,32,0.0113293,10,-0.00132199,-1.86831,-0.254275,-0.232032,122.516,0.0976213,
2,0,0,1,0,62267.1,0.0959835,0.0956761,-13.7756,32,0.0111927,10,-0.001318,-1.86089,-0.282175,-0.20909,112.324,0.0956761,
2,0,0,1,0,62267.1,0.0939859,0.0936303,-13.9904,32,0.0110538,10,-0.00130992,-1.85417,-0.305189,-0.193323,105.535,0.0936303,
2,0,0,1,0,62267.1,0.0919883,0.0916339,-14.2022,32,0.0109128,10,-0.0013014,-1.84764,-0.312734,-0.188659,104.536,0.0916339,
2,0,0,1,0,62267.1,0.0899816,0.0896384,-14.4077,32,0.0107697,10,-0.00129148,-1.84141,-0.348376,-0.169357,95.1162,0.0896384,
2,0,0,1,0,62267.1,0.087984,0.087649,-14.5812,32,0.0106247,10,-0.00127803,-1.83621,-0.404948,-0.145698,82.8608,0.08764898,
2,0,0,1,0,62267.1,0.0859865,0.0856457,-14.7385,32,0.0104781,10,-0.00126229,-1.83155,-0.452952,-0.130257,74.8906,0.0856457,
2,0,0,1,0,62267.1,0.0839889,0.0836068,-14.884,32,0.0103299,10,-0.0012444,-1.82728,-0.504983,-0.116836,67.8169,0.0836068,
2,0,0,1,0,62267.2,0.0820004,0.0816666,-15.0083,32,0.0101819,10,-0.00122568,-1.82367,-0.593626,-0.0993892,58.1745,0.0816666,
2,0,0,1,0,62267.2,0.0800028,0.07968,-15.1124,32,0.0100313,10,-0.00120416,-1.82067,-0.764317,-0.0771931,45.4885,0.07968,
2,0,0,1,0,62267.2,0.0780052,0.0776543,-15.1909,32,0.00987978,10,-0.00117964,-1.81842,-0.946641,-0.0623256,36.9416,0.0776543,
2,0,0,1,0,62267.2,0.0760076,0.0756088,-15.2628,32,0.00972752,10,-0.001154,-1.81637,-1.10017,-0.0536282,31.9278,0.0756088,
2,0,0,1,0,62267.2,0.0740191,0.0736302,-15.3193,32,0.00957617,10,-0.00112797,-1.81476,-1.59717,-0.0369404,22.066,0.0736302,
2,0,0,1,0,62267.2,0.0720215,0.0716989,-15.3491,32,0.00942284,10,-0.00110051,-1.81392,-2.57533,-0.0229097,13.7211,0.0716989,
2,0,0,1,0,62267.2,0.0700239,0.0696817,-15.3735,32,0.00926918,10,-0.00107125,-1.81323,-4.4479,-0.0132647,7.95418,0.0696817,
2,0,0,1,0,62267.2,0.0680263,0.0676733,-15.3811,32,0.00911547,10,-0.00104089,-1.81301,-6.09867,-0.00967424,5.80872,0.0676733,
2,0,0,1,0,62267.2,0.0660197,0.0656951,-15.3967,32,0.00896161,10,-0.00101149,-1.81257,1386.78,4.25446e-05,-0.0255384,0.0656951,
2,0,0,1,0,62267.2,0.0640221,0.0636875,-15.381,32,0.00880775,10,-0.000979576,-1.81302,4.05621,0.0145456,-8.73026,0.0636875,
2,0,0,1,0,62267.3,0.0620245,0.0616763,-15.3616,32,0.00865401,10,-0.000947446,-1.81356,3.03238,0.0194567,-11.6618,0.0616763,
2,0,0,1,0,62267.3,0.0600269,0.0597321,-15.3349,32,0.00850053,10,-0.000915983,-1.81432,3.62203,0.0162892,-9.75304,0.0597321,
2,0,0,1,0,62267.3,0.0580248,0.0576229,-15.3221,32,0.00834721,10,-0.000882901,-1.81468,3.3081,0.017835,-10.6586,0.0576229,
2,0,0,1,0,62267.3,0.0560227,0.055643,-15.2913,32,0.00819414,10,-0.000850853,-1.81556,2.2742,0.0259432,-15.4822,0.055643,
2,0,0,1,0,62267.3,0.0540251,0.0536623,-15.2607,32,0.00804136,10,-0.000818926,-1.81642,2.5341,0.0232825,-13.869,0.0536623,
2,0,0,1,0,62267.3,0.0520275,0.0516356,-15.2357,32,0.00788889,10,-0.000786704,-1.81714,2.14351,0.027525,-16.358,0.0516356,
2,0,0,1,0,62267.3,0.0500299,0.049654,-15.1952,32,0.00773671,10,-0.0007545,-1.81829,2.13192,0.0276746,-16.4205,0.049654,
2,0,0,1,0,62267.3,0.0480414,0.0477039,-15.1711,32,0.0075864,10,-0.000723723,-1.81898,2.20814,0.0267194,-15.8124,0.0477039,
2,0,0,1,0,62267.3,0.0460438,0.0456942,-15.1326,32,0.00743486,10,-0.00069147,-1.82009,1.88432,0.031311,-18.4933,0.0456942,
2,0,0,1,0,62267.3,0.0440462,0.0436972,-15.097,32,0.00728374,10,-0.000659698,-1.82111,1.73387,0.034028,-20.0427,0.04369719,
2,0,0,1,0,62267.4,0.0420486,0.0416819,-15.0521,32,0.00713301,10,-0.000627401,-1.8224,1.97514,0.0298713,-17.5588,0.0416819,
2,0,0,1,0,62267.4,0.0400601,0.039693,-15.0267,32,0.00698413,10,-0.000596456,-1.82314,1.84795,0.0319272,-18.7086,0.039693,
2,0,0,1,0,62267.4,0.0380625,0.0376793,-14.9772,32,0.00683409,10,-0.000564332,-1.82457,1.4426,0.0408984,-23.9085,0.0376793,
2,0,0,1,0,62267.4,0.036065,0.035702,-14.9313,32,0.00668457,10,-0.000533077,-1.8259,1.45381,0.040583,-23.6471,0.035702,
2,0,0,1,0,62267.4,0.0340674,0.0337169,-14.8836,32,0.00653547,10,-0.000501827,-1.82729,1.58347,0.0372599,-21.6491,0.0337169,
2,0,0,1,0,62267.4,0.0320607,0.0316971,-14.8446,32,0.00638685,10,-0.000470531,-1.82843,1.3406,0.0440103,-25.4757,0.0316971,
2,0,0,1,0,62267.4,0.0300631,0.029699,-14.7812,32,0.00623868,10,-0.000438987,-1.83029,1.13755,0.0518659,-29.9284,0.029699,
2,0,0,1,0,62267.4,0.0280655,0.0277573,-14.7267,32,0.00609114,10,-0.000408774,-1.83189,1.24137,0.047528,-27.3168,0.0277573,
2,0,0,1,0,62267.4,0.0260679,0.0257419,-14.6731,32,0.00594409,10,-0.000377713,-1.83348,1.20746,0.0488628,-27.9746,0.0257419,
2,0,0,1,0,62267.4,0.0240613,0.0236891,-14.6129,32,0.00579766,10,-0.000346167,-1.83526,1.08919,0.0541688,-30.8879,0.0236891,
2,0,0,1,0,62267.5,0.0220637,0.0217162,-14.5488,32,0.00565182,10,-0.000315943,-1.83717,1.00991,0.0584209,-33.1663,0.0217162,
2,0,0,1,0,62267.5,0.0200661,0.0197042,-14.4807,32,0.0055067,10,-0.000285331,-1.83921,0.887003,0.0665161,-37.5726,0.0197042,
2,0,0,1,0,62267.5,0.0180685,0.0177304,-14.399,32,0.00536226,10,-0.0002553,-1.84167,0.891599,0.0661733,-37.2061,0.0177304,
2,0,0,1,0,62267.5,0.01608,0.0157375,-14.3331,32,0.0052201,10,-0.000225567,-1.84366,0.90437,0.0652388,-36.474,0.01573745,
2,0,0,1,0,62267.5,0.0140824,0.0137142,-14.2525,32,0.00507717,10,-0.000195462,-1.84611,0.801213,0.0736383,-40.9536,0.0137142,
2,0,0,1,0,62267.5,0.0120848,0.0117005,-14.1678,32,0.00493513,10,-0.00016577,-1.8487,0.705946,0.0835758,-46.1853,0.0117005,
2,0,0,1,0,62267.5,0.0100872,0.00971222,-14.0677,32,0.00479399,10,-0.000136628,-1.85178,0.688991,0.0856325,-47.038,0.00971222,
2,0,0,1,0,62267.5,0.00810328,0.00775989,-13.9825,32,0.00465521,10,-0.000108502,-1.85442,0.711016,0.0829798,-45.2646,0.00775989,
2,0,0,1,0,62267.5,0.00610116,0.00572622,-13.8873,32,0.00451587,10,-7.95215e-05,-1.85738,0.642056,0.0918923,-49.7831,0.00572622,
2,0,0,1,0,62267.5,0.00410357,0.00371772,-13.7812,32,0.00437761,10,-5.12347e-05,-1.86071,0.734093,0.0803713,-43.2866,0.003717717,
2,0,0,1,0,62267.6,0.00210598,0.00171789,-13.7137,32,0.00424026,10,-2.35587e-05,-1.86284,0.695946,0.0847767,-45.2949,0.001717887,
2,0,0,1,0,62267.6,0.00010174,-0.000293222,-13.5995,32,0.00410373,10,3.98769e-06,-1.86648,0.592403,0.0995943,-52.8855,-0.000293222,
2,0,0,1,0,62267.6,-0.00189827,-0.00233643,-13.4993,32,0.00396819,10,3.15403e-05,-1.86969,0.591499,0.0997466,-52.5322,-0.00233643,
2,0,0,1,0,62267.6,-0.00389586,-0.0042738,-13.3904,32,0.00383376,10,5.7228e-05,-1.87321,0.58002,0.101721,-53.1712,-0.0042738,
2,0,0,1,0,62267.6,-0.00589345,-0.00629532,-13.2888,32,0.0037003,10,8.36574e-05,-1.87651,0.606233,0.0973224,-50.4757,-0.00629532,
2,0,0,1,0,62267.6,-0.00789103,-0.00826652,-13.1889,32,0.0035679,10,0.000109026,-1.87979,0.666169,0.0885661,-45.6153,-0.00826652,
2,0,0,1,0,62267.6,-0.0098977,-0.0103063,-13.1059,32,0.00343636,10,0.000135073,-1.88253,0.725624,0.0813094,-41.5834,-0.0103063,
2,0,0,1,0,62267.6,-0.0118953,-0.0123243,-13.0202,32,0.00330576,10,0.000160465,-1.88538,0.677249,0.0871171,-44.2601,-0.0123243,
2,0,0,1,0,62267.6,-0.0138929,-0.0142669,-12.9306,32,0.00317598,10,0.000184479,-1.88838,0.712182,0.082844,-41.8281,-0.01426688,
2,0,0,1,0,62267.6,-0.0158905,-0.0162789,-12.8548,32,0.00304712,10,0.000209261,-1.89094,0.798302,0.0739069,-37.0809,-0.0162789,
2,0,0,1,0,62267.7,-0.017879,-0.0182889,-12.7814,32,0.00292018,10,0.000233758,-1.89342,0.843291,0.069964,-34.9078,-0.0182889,
2,0,0,1,0,62267.7,-0.0198766,-0.0202962,-12.7145,32,0.00279273,10,0.000258057,-1.8957,0.865315,0.0681832,-33.8317,-0.0202962,
2,0,0,1,0,62267.7,-0.0218741,-0.0222686,-12.6468,32,0.00266596,10,0.000281626,-1.89802,0.93957,0.0627947,-31.0092,-0.0222686,
2,0,0,1,0,62267.7,-0.0238717,-0.0242378,-12.5923,32,0.00253981,10,0.000305209,-1.8999,1.12143,0.0526112,-25.8609,-0.0242378,
2,0,0,1,0,62267.7,-0.0258602,-0.0262615,-12.5435,32,0.00241536,10,0.000329412,-1.90158,1.16475,0.0506545,-24.795,-0.0262615,
2,0,0,1,0,62267.7,-0.0278578,-0.0282535,-12.4927,32,0.00229022,10,0.000352964,-1.90334,1.28326,0.0459766,-22.4264,-0.02825355,
2,0,0,1,0,62267.7,-0.0298554,-0.0302681,-12.4537,32,0.00216547,10,0.00037695,-1.9047,1.4911,0.0395681,-19.2322,-0.0302681,
2,0,0,1,0,62267.7,-0.031853,-0.0322393,-12.4161,32,0.00204117,10,0.000400286,-1.90602,1.58722,0.0371718,-18.0141,-0.0322393,
2,0,0,1,0,62267.7,-0.0338597,-0.0342739,-12.3815,32,0.00191714,10,0.000424363,-1.90723,2.00732,0.0293925,-14.2098,-0.03427387,
2,0,0,1,0,62267.7,-0.0358573,-0.0362433,-12.3592,32,0.00179343,10,0.000447938,-1.90801,3.11326,0.0189512,-9.1441,-0.0362433,
2,0,0,1,0,62267.8,-0.0378549,-0.038218,-12.3455,32,0.00166986,10,0.000471819,-1.90849,3.459,0.017057,-8.21618,-0.03821801,
2,0,0,1,0,62267.8,-0.0398524,-0.0402864,-12.326,32,0.00154654,10,0.000496568,-1.90918,5.85773,0.0100722,-4.84896,-0.0402864,
2,0,0,1,0,62267.8,-0.0418591,-0.0422576,-12.3259,32,0.00142331,10,0.000520861,-1.90918,10.4297,0.00565691,-2.72002,-0.0422576,
2,0,0,1,0,62267.8,-0.0438567,-0.0442617,-12.3151,32,0.00130014,10,0.00054509,-1.90956,5.83672,0.0101084,-4.85873,-0.0442617,
2,0,0,1,0,62267.8,-0.0458543,-0.0462442,-12.3065,32,0.00117697,10,0.000569104,-1.90987,55.0809,0.00107115,-0.514776,-0.04624423,
2,0,0,1,0,62267.8,-0.0478519,-0.0482189,-12.3131,32,0.00105388,10,0.000593724,-1.90963,-4.29121,-0.013749,6.61059,-0.0482189,
2,0,0,1,0,62267.8,-0.0498585,-0.0502786,-12.3332,32,0.000930637,10,0.000620094,-1.90893,-3.85362,-0.0153103,7.3661,-0.0502786,
2,0,0,1,0,62267.8,-0.051838,-0.0522484,-12.3428,32,0.000808513,10,0.000644891,-1.90859,-5.40719,-0.0109114,5.25638,-0.0522484,
2,0,0,1,0,62267.8,-0.0538355,-0.0542637,-12.3541,32,0.00068504,10,0.00067038,-1.90819,-3.31537,-0.0177959,8.58419,-0.0542637,
2,0,0,1,0,62267.8,-0.0558331,-0.0562448,-12.3771,32,0.000561443,10,0.000696147,-1.90738,-2.68222,-0.0219967,10.6236,-0.0562448,
2,0,0,1,0,62267.9,-0.0578126,-0.0582233,-12.3962,32,0.000438802,10,0.000721746,-1.90671,-2.22292,-0.0265416,12.8472,-0.0582233,
2,0,0,1,0,62267.9,-0.0598192,-0.0602361,-12.4284,32,0.000314693,10,0.000748636,-1.90559,-1.72264,-0.0342498,16.6139,-0.0602361,
2,0,0,1,0,62267.9,-0.0618168,-0.0622221,-12.4626,32,0.000190249,10,0.000775449,-1.90439,-1.76298,-0.033466,16.2744,-0.0622221,
2,0,0,1,0,62267.9,-0.0638144,-0.0641959,-12.4928,32,6.55155e-05,10,0.000801987,-1.90334,-1.90799,-0.0309226,15.0765,-0.0641959,
2,0,0,1,0,62267.9,-0.065812,-0.0662356,-12.5231,32,-5.95897e-05,10,0.000829476,-1.90229,-1.44307,-0.040885,19.998,-0.0662356,
2,0,0,1,0,62267.9,-0.0678187,-0.0682328,-12.5735,32,-0.000185085,10,0.000857928,-1.90054,-1.19841,-0.049232,24.1546,-0.0682328,
2,0,0,1,0,62267.9,-0.0698163,-0.0702517,-12.6201,32,-0.00031107,10,0.000886586,-1.89894,-1.41468,-0.0417056,20.5316,-0.0702517,
2,0,0,1,0,62267.9,-0.0718138,-0.0722108,-12.6552,32,-0.000437401,10,0.000913843,-1.89773,-1.28421,-0.0459427,22.7083,-0.0722108,
2,0,0,1,0,62267.9,-0.0738114,-0.0742054,-12.7099,32,-0.000564272,10,0.000943144,-1.89586,-1.0311,-0.0572204,28.3876,-0.0742054,
2,0,0,1,0,62267.9,-0.0758181,-0.0762183,-12.769,32,-0.000691676,10,0.000973229,-1.89384,-1.0794,-0.05466,27.2296,-0.07621827,
2,0,0,1,0,62268,-0.0778157,-0.0782294,-12.8195,32,-0.000819673,10,0.00100286,-1.89213,-1.08771,-0.0542424,27.1458,-0.0782294,
2,0,0,1,0,62268,-0.0798133,-0.0802275,-12.8778,32,-0.000948168,10,0.00103315,-1.89016,-0.900164,-0.0655436,32.9592,-0.0802275,
2,0,0,1,0,62268,-0.0818109,-0.0822074,-12.9506,32,-0.00107734,10,0.00106463,-1.88771,-0.835788,-0.0705921,35.6729,-0.0822074,
2,0,0,1,0,62268,-0.0837994,-0.0841966,-13.0194,32,-0.00120587,10,0.00109619,-1.88541,-0.835582,-0.0706095,35.8825,-0.08419662,
2,0,0,1,0,62268,-0.0857969,-0.0861578,-13.0923,32,-0.00133642,10,0.00112801,-1.88298,-0.841326,-0.0701274,35.8288,-0.0861578,
2,0,0,1,0,62268,-0.0877945,-0.0882145,-13.1634,32,-0.00146766,10,0.0011612,-1.88063,-0.814455,-0.0724411,37.2273,-0.0882145,
2,0,0,1,0,62268,-0.0897921,-0.0902195,-13.2436,32,-0.00159971,10,0.00119483,-1.878,-0.756244,-0.0780171,40.3233,-0.0902195,
2,0,0,1,0,62268,-0.0917806,-0.092197,-13.3239,32,-0.00173117,10,0.00122843,-1.87537,-0.745303,-0.0791624,41.1685,-0.092197,
2,0,0,1,0,62268,-0.0937782,-0.0942063,-13.4077,32,-0.00186484,10,0.00126309,-1.87265,-0.732745,-0.0805192,42.1329,-0.0942063,
2,0,0,1,0,62268,-0.0957758,-0.0961871,-13.4921,32,-0.00199934,10,0.00129776,-1.86992,-0.701584,-0.0840954,44.2928,-0.0961871,
2,0,0,1,0,62268.1,-0.0977734,-0.0981921,-13.5842,32,-0.00213474,10,0.00133386,-1.86697,-0.655873,-0.0899565,47.694,-0.0981921,
2,0,0,1,0,62268.1,-0.0997412,-0.100104,-13.6789,32,-0.00226827,10,0.00136932,-1.86395,0.118435,0.498161,-259.249,-0.100104,
2,0,0,1,1,62268.1,-0.0996711,-0.100105,-13.0883,32,-0.00230856,10,0.0013102,-1.88312,-0.0189806,-3.10844,1472.14,-0.100105,
2,0,0,1,1,62268.1,-0.0976826,-0.098089,-10.7121,32,-0.00242505,10,0.00105074,-1.97013,-0.024714,-2.38732,1018.14,-0.09808901,
2,0,0,1,1,62268.1,-0.095685,-0.0961087,-9.01929,32,-0.00252316,10,0.000866832,-2.04483,-0.026672,-2.21206,782.365,-0.0961087,
2,0,0,1,1,62268.1,-0.0936874,-0.0941006,-7.59168,32,-0.00260586,10,0.000714381,-2.11966,-0.0264088,-2.2341,663.656,-0.0941006,
2,0,0,1,1,62268.1,-0.0916898,-0.0920996,-6.35861,32,-0.00267532,10,0.000585625,-2.19664,-0.0252432,-2.33726,579.506,-0.0920996,
2,0,0,1,1,62268.1,-0.0897013,-0.0900722,-5.25722,32,-0.00273259,10,0.00047353,-2.27924,-0.0230517,-2.55947,523.253,-0.0900722,
2,0,0,1,1,62268.1,-0.0877037,-0.0880854,-4.25818,32,-0.00277994,10,0.000375083,-2.37078,-0.0201463,-2.92857,483.128,-0.0880854,
2,0,0,1,1,62268.1,-0.0857062,-0.0861064,-3.34122,32,-0.00281778,10,0.0002877,-2.47609,-0.0172408,-3.42211,441.759,-0.0861064,
2,0,0,1,1,62268.1,-0.0837086,-0.0841291,-2.51045,32,-0.00284685,10,0.000211202,-2.60025,-0.0137706,-4.28449,408.202,-0.0841291,
2,0,0,1,1,62268.2,-0.0817019,-0.0821336,-1.71953,32,-0.00286784,10,0.000141231,-2.76459,-0.0100718,-5.85792,376.026,-0.0821336,
2,0,0,1,1,62268.2,-0.0797043,-0.0801268,-1.00549,32,-0.0028813,10,8.0567e-05,-2.99762,-0.00558585,-10.5624,347.156,-0.0801268,
2,0,0,1,1,62268.2,-0.0777067,-0.0781322,-0.330418,32,-0.00288786,10,2.58163e-05,-3.48094,-0.00741904,-7.95251,322.882,-0.0781322,
2,1,0,1,1,62268.2,-0.0757091,-0.0761159,0.289568,32,-0.00288794,10,-2.20408e-05,-3.53825,0.00938512,6.28655,302.382,-0.0761159,
2,1,0,1,1,62268.2,-0.0737025,-0.074103,0.88793,32,-0.00288198,10,-6.57983e-05,-3.05162,0.00575443,10.253,286.472,-0.074103,
2,1,0,1,1,62268.2,-0.0717049,-0.0721145,1.43586,32,-0.00287025,10,-0.000103546,-2.84289,0.0117313,5.02926,264.76,-0.07211449,
2,1,0,1,1,62268.2,-0.0697073,-0.0701025,1.94711,32,-0.0028533,10,-0.000136497,-2.71061,0.0175978,3.35269,247.014,-0.0701025,
2,1,0,1,1,62268.2,-0.0677097,-0.0681062,2.42597,32,-0.00283133,10,-0.000165224,-2.61511,0.0231863,2.5446,237.211,-0.06810616,
2,1,0,1,1,62268.2,-0.0657212,-0.0661177,2.89234,32,-0.00280494,10,-0.000191235,-2.53875,0.0290042,2.03419,225.996,-0.0661177,
2,1,0,1,1,62268.2,-0.0637236,-0.0641788,3.31354,32,-0.00277383,10,-0.000212659,-2.47971,0.0361508,1.63205,209.595,-0.0641788,
2,1,0,1,1,62268.3,-0.061726,-0.06215,3.72397,32,-0.0027386,10,-0.000231444,-2.42899,0.0432011,1.3657,197.1,-0.06215,
2,1,0,1,1,62268.3,-0.0597284,-0.0601323,4.11111,32,-0.00269933,10,-0.00024721,-2.38604,0.0503565,1.17165,186.892,-0.0601323,
2,1,0,1,1,62268.3,-0.0577399,-0.05814,4.4734,32,-0.00265682,10,-0.000260083,-2.34936,0.0583313,1.01146,175.67,-0.05814,
2,1,0,1,1,62268.3,-0.0557423,-0.0561679,4.80753,32,-0.00261035,10,-0.000270029,-2.31808,0.0670564,0.879856,164.699,-0.0561679,
2,1,0,1,1,62268.3,-0.0537447,-0.0541256,5.13457,32,-0.00256062,10,-0.000277911,-2.2895,0.0760006,0.776309,154.856,-0.0541256,
2,1,0,1,1,62268.3,-0.0517472,-0.0521639,5.42758,32,-0.00250772,10,-0.000283124,-2.26539,0.083022,0.710655,150.495,-0.0521639,
2,1,0,1,1,62268.3,-0.049745,-0.0501771,5.7288,32,-0.00245194,10,-0.000287454,-2.24194,0.0934714,0.631209,140.584,-0.0501771,
2,1,0,1,1,62268.3,-0.0477429,-0.0481235,5.9956,32,-0.00239324,10,-0.000288529,-2.22217,0.105257,0.560532,130.963,-0.04812346,
2,1,0,1,1,62268.3,-0.0457453,-0.0461809,6.25215,32,-0.00233198,10,-0.00028873,-2.20397,0.117622,0.501608,122.039,-0.0461809,
2,1,0,1,1,62268.3,-0.0437477,-0.0441646,6.47874,32,-0.00226829,10,-0.000286131,-2.18851,0.132184,0.446348,112.855,-0.0441646,
2,1,0,1,1,62268.4,-0.0417501,-0.0421188,6.71058,32,-0.00220231,10,-0.000282641,-2.17324,0.14004,0.421309,110.142,-0.0421188,
2,1,0,1,1,62268.4,-0.0397435,-0.0401259,6.92357,32,-0.00213404,10,-0.000277814,-2.15967,0.153486,0.384401,103.728,-0.0401259,
2,1,0,1,1,62268.4,-0.0377459,-0.0381521,7.12204,32,-0.00206384,10,-0.000271721,-2.1474,0.17043,0.346182,96.1131,-0.0381521,
2,1,0,1,1,62268.4,-0.0357483,-0.0361271,7.30791,32,-0.00199165,10,-0.000264013,-2.13621,0.1871,0.315339,89.866,-0.0361271,
2,1,0,1,1,62268.4,-0.0337507,-0.034109,7.48537,32,-0.00191768,10,-0.000255319,-2.12579,0.202121,0.291904,85.1671,-0.034109,
2,1,0,1,1,62268.4,-0.0317622,-0.0321503,7.6466,32,-0.00184275,10,-0.00024584,-2.11653,0.217115,0.271746,81.0619,-0.0321503,
2,1,0,1,1,62268.4,-0.0297646,-0.0301811,7.80378,32,-0.00176552,10,-0.000235526,-2.1077,0.240697,0.245121,74.5584,-0.0301811,
2,1,0,1,1,62268.4,-0.027767,-0.0281753,7.94296,32,-0.00168677,10,-0.000223796,-2.10002,0.27473,0.214756,66.5228,-0.02817532,
2,1,0,1,1,62268.4,-0.0257694,-0.0261505,8.07191,32,-0.0016067,10,-0.000211084,-2.09302,0.290332,0.203216,64.0013,-0.0261505,
2,1,0,1,1,62268.4,-0.0237809,-0.0241879,8.19816,32,-0.00152612,10,-0.000198297,-2.08628,0.308272,0.191389,61.2004,-0.02418795,
2,1,0,1,1,62268.5,-0.0217833,-0.0221552,8.31642,32,-0.00144352,10,-0.000184252,-2.08006,0.358309,0.164662,53.373,-0.0221552,
2,1,0,1,1,62268.5,-0.0197858,-0.0201492,8.41372,32,-0.00135981,10,-0.00016953,-2.07501,0.373371,0.15802,51.916,-0.0201492,
2,1,0,1,1,62268.5,-0.0177882,-0.0182136,8.52105,32,-0.00127513,10,-0.000155199,-2.06951,0.382904,0.154086,51.2053,-0.0182136,
2,1,0,1,1,62268.5,-0.0157815,-0.0161739,8.61728,32,-0.00118941,10,-0.000139375,-2.06463,0.442888,0.133216,44.7689,-0.0161739,
2,1,0,1,1,62268.5,-0.0137839,-0.0141801,8.70162,32,-0.00110281,10,-0.00012339,-2.0604,0.51651,0.114228,38.7584,-0.01418012,
2,1,0,1,1,62268.5,-0.0117863,-0.0121933,8.77156,32,-0.0010154,10,-0.000106954,-2.05692,0.527102,0.111933,38.3465,-0.0121933,
2,1,0,1,1,62268.5,-0.00978874,-0.0101753,8.8552,32,-0.000927251,10,-9.01039e-05,-2.0528,0.52961,0.111403,38.4738,-0.0101753,
2,1,0,1,1,62268.5,-0.00778208,-0.00814419,8.92734,32,-0.000838325,10,-7.2706e-05,-2.04928,0.644122,0.0915976,31.8818,-0.00814419,
2,1,0,1,1,62268.5,-0.00578449,-0.00619121,8.98222,32,-0.000748821,10,-5.56107e-05,-2.04662,0.743017,0.079406,27.8346,-0.00619121,
2,1,0,1,1,62268.5,-0.0037869,-0.00421654,9.03667,32,-0.000658703,10,-3.81034e-05,-2.04399,0.737219,0.0800305,28.23,-0.00421654,
2,1,0,1,1,62268.6,-0.00178931,-0.00220282,9.09481,32,-0.000568048,10,-2.00342e-05,-2.04121,0.996135,0.0592289,20.9808,-0.00220282,
2,1,0,1,1,62268.6,-2.55332e-05,-0.000401673,9.11671,32,-0.000488769,10,-3.66193e-06,-2.04016, , , ,-0.000401673,