File: Figure_codes/Fig_3-5/rawdata_trumpetplot_data/after 10th/20221101_1-115_003_TrumpetPlot_ParaChange_from10_every3_13_CV_C01_7.csv
mode,ox/red,error,control changes,counter inc.,time/s,control/V,Ewe/V,<I>/mA,cycle number,(Q-Qo)/C,I Range,P/W,log(|I|),Tafel slope mV/dec,alpha_eff,dI/d(E-IR),E-IR/V,
2,1,0,1,0,14988.8,2.44065e-05,-0.000306236,24.4031,8,0.0000000E+000,10,-7.47311e-06,-1.61256, , , ,-0.000306236,
2,1,0,1,0,14988.8,0.00266289,0.00227903,25.7664,8,7.82772e-05,10,5.87224e-05,-1.58895, , , ,0.00227903,
2,1,0,1,0,14988.8,0.00586735,0.00553979,26.9306,8,0.000183869,10,0.00014919,-1.56975, , , ,0.00553979,
2,1,0,1,0,14988.8,0.00906349,0.00872418,27.8934,8,0.000293641,10,0.000243347,-1.5545,0.215358,0.273963,295.267,0.00872418,
2,1,0,1,0,14988.8,0.0122624,0.0119054,28.7566,8,0.000407046,10,0.000342359,-1.54126,0.252764,0.233419,260.195,0.0119054,
2,1,0,1,0,14988.8,0.0154641,0.0151004,29.5521,8,0.000523773,10,0.000446249,-1.52941,0.285017,0.207005,237.387,0.01510041,
2,1,0,1,0,14988.8,0.0186602,0.0183336,30.2595,8,0.00064349,10,0.000554765,-1.51914,0.318704,0.185124,217.654,0.01833359,
2,1,0,1,0,14988.8,0.0218675,0.0215031,30.9269,8,0.000765933,10,0.000665027,-1.50966,0.35317,0.167058,200.951,0.0215031,
2,1,0,1,0,14988.8,0.0250636,0.0246833,31.5377,8,0.000890944,10,0.000778456,-1.50117,0.379192,0.155594,191.05,0.0246833,
2,1,0,1,0,14988.8,0.0282597,0.0279154,32.1273,8,0.00101833,10,0.000896847,-1.49313,0.410861,0.143601,179.722,0.0279154,
2,1,0,1,0,14988.8,0.031467,0.0310903,32.6966,8,0.00114808,10,0.00101655,-1.4855,0.434012,0.135941,173.13,0.0310903,
2,1,0,1,0,14988.8,0.0346631,0.0343637,33.2383,8,0.00127999,10,0.00114219,-1.47836,0.456083,0.129362,167.543,0.03436375,
2,1,0,1,0,14988.8,0.0378703,0.0374813,33.7535,8,0.00141403,10,0.00126513,-1.47168,0.481837,0.122448,161.139,0.0374813,
2,1,0,1,0,14988.8,0.0410665,0.0406912,34.2678,8,0.00155012,10,0.0013944,-1.46511,0.491455,0.120052,160.464,0.0406912,
2,1,0,1,0,14988.8,0.0442626,0.0439201,34.764,8,0.00168822,10,0.00152684,-1.45887,0.509295,0.115847,157.115,0.0439201,
2,1,0,1,0,14988.8,0.0474671,0.0470844,35.2795,8,0.00182836,10,0.00166111,-1.45248,0.520103,0.113439,156.098,0.0470844,
2,1,0,1,0,14988.8,0.0506632,0.050308,35.7687,8,0.00197051,10,0.00179945,-1.4465,0.523576,0.112687,157.279,0.050308,
2,1,0,1,0,14988.8,0.0538621,0.0535136,36.2693,8,0.00211462,10,0.0019409,-1.44046,0.530281,0.111262,157.532,0.0535136,
2,1,0,1,0,14988.8,0.0570638,0.0567458,36.7812,8,0.00226081,10,0.00208718,-1.43437,0.527103,0.111933,160.718,0.0567458,
2,1,0,1,0,14988.8,0.06026,0.0598962,37.2978,8,0.002409,10,0.00223399,-1.42832,0.525472,0.11228,163.465,0.0598962,
2,1,0,1,0,14988.8,0.0634672,0.0631517,37.8329,8,0.00255932,10,0.00238921,-1.42213,0.52539,0.112298,165.775,0.0631517,
2,1,0,1,0,14988.9,0.0666633,0.0662947,38.3586,8,0.00271176,10,0.00254297,-1.41614,0.522557,0.112906,169.06,0.0662947,
2,1,0,1,0,14988.9,0.0698595,0.0694632,38.8895,8,0.00286634,10,0.00270139,-1.41017,0.5217,0.113092,171.757,0.0694632,
2,1,0,1,0,14988.9,0.0730667,0.0726656,39.4566,8,0.0030231,10,0.00286714,-1.40388,0.516435,0.114245,175.996,0.0726656,
2,1,0,1,0,14988.9,0.0762629,0.0758744,40.0182,8,0.0031821,10,0.00303636,-1.39774,0.515715,0.114404,178.689,0.0758744,
2,1,0,1,0,14988.9,0.0794701,0.0790843,40.6095,8,0.0033434,10,0.00321157,-1.39137,0.519404,0.113592,179.977,0.0790843,
2,1,0,1,0,14988.9,0.0826662,0.0822538,41.175,8,0.00350702,10,0.0033868,-1.38537,0.518438,0.113803,182.887,0.0822538,
2,1,0,1,0,14988.9,0.0858624,0.0854743,41.7618,8,0.00367295,10,0.00356956,-1.37922,0.520109,0.113438,184.967,0.0854743,
2,1,0,1,0,14988.9,0.0890668,0.0886788,42.3599,8,0.00384125,10,0.00375643,-1.37304,0.514067,0.114771,189.819,0.0886788,
2,1,0,1,0,14988.9,0.092263,0.0918664,42.9738,8,0.00401196,10,0.00394785,-1.3668,0.509657,0.115764,194.229,0.0918664,
2,1,0,1,0,14988.9,0.0954674,0.095054,43.6047,8,0.00418517,10,0.0041448,-1.36047,0.512434,0.115137,195.906,0.095054,
2,1,0,1,0,14988.9,0.0986636,0.0982522,44.2437,8,0.00436094,10,0.00434703,-1.35415,0.512584,0.115103,198.689,0.09825217,
2,1,0,1,0,14988.9,0.10186,0.101444,44.8607,8,0.00453923,10,0.00455085,-1.34813,0.525543,0.112265,196.525,0.101444,
2,1,0,1,0,14988.9,0.105067,0.104639,45.5115,8,0.00472004,10,0.00476228,-1.34188,0.534081,0.11047,196.092,0.104639,
2,1,0,1,0,14988.9,0.108263,0.107898,46.1288,8,0.0049034,10,0.00497719,-1.33603,0.53701,0.109868,197.731,0.107898,
2,1,0,1,0,14988.9,0.111465,0.111013,46.746,8,0.00508921,10,0.00518942,-1.33026,0.535249,0.110229,201.282,0.111013,
2,1,0,1,0,14988.9,0.114666,0.114247,47.3923,8,0.00527753,10,0.00541445,-1.32429,0.522715,0.112872,209.033,0.114247,
2,1,0,1,0,14988.9,0.117863,0.117451,48.0903,8,0.00546855,10,0.00564825,-1.31794,0.51828,0.113838,213.744,0.117451,
2,1,0,1,0,14988.9,0.12107,0.120688,48.8025,8,0.00566239,10,0.00588989,-1.31156,0.515121,0.114536,218.055,0.120688,
2,1,0,1,0,14988.9,0.124266,0.123908,49.5021,8,0.00585905,10,0.00613369,-1.30538,0.515988,0.114344,220.887,0.123908,
2,1,0,1,0,14988.9,0.127462,0.127116,50.1985,8,0.00605853,10,0.00638106,-1.29931,0.519572,0.113555,222.544,0.127116,
2,1,0,1,0,14988.9,0.130667,0.130326,50.9344,8,0.00626087,10,0.00663809,-1.29299,0.513521,0.114893,228.462,0.1303263,
2,1,0,1,0,14988.9,0.133863,0.133517,51.6575,8,0.00646612,10,0.00689715,-1.28687,0.505858,0.116634,235.285,0.133517,
2,1,0,1,0,14988.9,0.137067,0.136717,52.4286,8,0.00667435,10,0.00716791,-1.28043,0.501037,0.117756,241.105,0.136717,
2,1,0,1,0,14988.9,0.140263,0.139919,53.2107,8,0.00688572,10,0.00744517,-1.274,0.490573,0.120268,249.898,0.139919,
2,1,0,1,0,14988.9,0.143459,0.143139,54.0236,8,0.00710026,10,0.00773289,-1.26742,0.491085,0.120142,253.365,0.143139,
2,1,0,1,0,14989,0.146667,0.146324,54.8578,8,0.00731811,10,0.00802699,-1.26076,0.488823,0.120698,258.379,0.146324,
2,1,0,1,0,14989,0.149863,0.149538,55.6769,8,0.00753925,10,0.00832579,-1.25433,0.489705,0.120481,261.791,0.149538,
2,1,0,1,0,14989,0.153064,0.152754,56.527,8,0.00776374,10,0.00863472,-1.24774,0.50014,0.117967,260.136,0.1527539,
2,1,0,1,0,14989,0.156266,0.155896,57.3632,8,0.00799158,10,0.00894268,-1.24137,0.504544,0.116937,261.631,0.155896,
2,1,0,1,0,14989,0.159462,0.159103,58.182,8,0.00822276,10,0.00925691,-1.23521,0.526098,0.112146,254.443,0.159103,
2,1,0,1,0,14989,0.16267,0.162289,59.013,8,0.00845722,10,0.00957717,-1.22905,0.548674,0.107532,247.33,0.162289,
2,1,0,1,0,14989,0.165866,0.165516,59.7742,8,0.00869488,10,0.00989358,-1.22349,0.571384,0.103258,240.617,0.165516,
2,1,0,1,0,14989,0.169062,0.168723,60.5356,8,0.00893558,10,0.0102137,-1.21799,0.608231,0.0970027,228.897,0.168723,
2,1,0,1,0,14989,0.172266,0.171904,61.2622,8,0.00917928,10,0.0105312,-1.21281,0.647088,0.0911777,217.614,0.171904,
2,1,0,1,0,14989,0.175462,0.175065,61.9374,8,0.00942576,10,0.0108431,-1.20805,0.707451,0.083398,201.207,0.175065,
2,1,0,1,0,14989,0.178667,0.178306,62.5576,8,0.00967483,10,0.0111544,-1.20372,0.789458,0.0747349,182.061,0.178306,
2,1,0,1,0,14989,0.181863,0.181572,63.1209,8,0.00992627,10,0.011461,-1.19983,0.90318,0.0653247,160.516,0.181572,
2,1,0,1,0,14989,0.185059,0.184713,63.5944,8,0.0101798,10,0.0117467,-1.19658,1.10071,0.0536018,132.639,0.184713,
2,1,0,1,0,14989,0.188266,0.187901,63.9978,8,0.010435,10,0.0120252,-1.19384,1.43503,0.0411142,102.325,0.187901,
2,1,0,1,0,14989,0.191463,0.191152,64.2615,8,0.0106916,10,0.0122837,-1.19205,2.30538,0.0255923,63.9254,0.191152,
2,1,0,1,0,14989,0.194664,0.194333,64.4268,8,0.010949,10,0.0125203,-1.19093,7.53279,0.00783243,19.6008,0.194333,
2,1,0,1,0,14989,0.197866,0.197528,64.4136,8,0.0112068,10,0.0127235,-1.19102,-5.54971,-0.0106312,-26.5916,0.1975285,
2,1,0,1,0,14989,0.201062,0.200684,64.2483,8,0.0114641,10,0.0128936,-1.19214,-1.85278,-0.0318441,-79.4345,0.200684,
2,1,0,1,0,14989,0.204269,0.203947,63.9212,8,0.0117205,10,0.0130366,-1.19435,-1.09282,-0.053989,-133.903,0.203947,
2,1,0,1,0,14989,0.207465,0.207133,63.4101,8,0.0119751,10,0.0131343,-1.19784,-0.764512,-0.0771734,-189.804,0.207133,
2,1,0,1,0,14989,0.210662,0.210356,62.6959,8,0.0122273,10,0.0131885,-1.20276,-0.577159,-0.102225,-248.602,0.210356,
2,1,0,1,0,14989,0.213866,0.213552,61.8059,8,0.0124763,10,0.0131988,-1.20897,-0.468536,-0.125924,-301.993,0.213552,
2,1,0,1,0,14989,0.217062,0.21677,60.7336,8,0.0127213,10,0.0131652,-1.21657,-0.393025,-0.150118,-353.845,0.21677,
2,1,0,1,0,14989,0.220267,0.219976,59.5314,8,0.0129617,10,0.0130955,-1.22525,-0.341096,-0.172972,-399.673,0.219976,
2,1,0,1,0,14989,0.223463,0.223188,58.1554,8,0.013197,10,0.0129796,-1.23541,-0.302985,-0.194729,-439.883,0.223188,
2,1,0,1,0,14989.1,0.226659,0.226378,56.6799,8,0.0134266,10,0.0128311,-1.24657,-0.275891,-0.213853,-471.247,0.226378,
2,1,0,1,0,14989.1,0.229866,0.229529,55.1207,8,0.0136501,10,0.0126518,-1.25869,-0.257537,-0.229093,-491.279,0.229529,
2,1,0,1,0,14989.1,0.233062,0.232768,53.5034,8,0.0138672,10,0.0124539,-1.27162,-0.243388,-0.242411,-505.047,0.232768,
2,1,0,1,0,14989.1,0.236264,0.236001,51.8607,8,0.0140777,10,0.0122392,-1.28516,-0.234461,-0.251641,-508.515,0.2360011,
2,1,0,1,0,14989.1,0.239466,0.23917,50.2195,8,0.0142817,10,0.012011,-1.29913,-0.227854,-0.258937,-507.152,0.23917,
2,1,0,1,0,14989.1,0.242662,0.242399,48.5766,8,0.0144792,10,0.0117749,-1.31357,-0.224042,-0.263343,-499.466,0.242399,
2,1,0,1,0,14989.1,0.245869,0.245576,47.008,8,0.0146701,10,0.011544,-1.32783,-0.224311,-0.263028,-483.073,0.245576,
2,1,0,1,0,14989.1,0.249065,0.248785,45.4754,8,0.0148549,10,0.0113136,-1.34222,-0.226739,-0.260212,-462.651,0.248785,
2,1,0,1,0,14989.1,0.252261,0.251972,44.035,8,0.0150338,10,0.0110956,-1.3562,-0.23096,-0.255455,-440.017,0.2519719,
2,1,0,1,0,14989.1,0.255466,0.255172,42.6668,8,0.015207,10,0.0108874,-1.36991,-0.23836,-0.247525,-413.17,0.255172,
2,1,0,1,0,14989.1,0.258662,0.258359,41.3831,8,0.015375,10,0.0106917,-1.38318,-0.24577,-0.240061,-388.804,0.258359,
2,1,0,1,0,14989.1,0.261866,0.261613,40.1753,8,0.015538,10,0.0105104,-1.39604,-0.255264,-0.231134,-363.539,0.261613,
2,1,0,1,0,14989.1,0.265063,0.264758,39.0636,8,0.0156963,10,0.0103424,-1.40823,-0.268819,-0.219479,-335.738,0.264758,
2,1,0,1,0,14989.1,0.268259,0.267938,38.0258,8,0.0158503,10,0.0101886,-1.41992,-0.280203,-0.210562,-313.484,0.267938,
2,1,0,1,0,14989.1,0.271466,0.271153,37.0878,8,0.0160005,10,0.0100564,-1.43077,-0.298069,-0.197941,-287.34,0.271153,
2,1,0,1,0,14989.1,0.274662,0.274326,36.19,8,0.0161469,10,0.00992786,-1.44141,-0.315162,-0.187205,-265.215,0.274326,
2,1,0,1,0,14989.1,0.277869,0.277547,35.389,8,0.01629,10,0.0098221,-1.45113,-0.333961,-0.176667,-244.738,0.277547,
2,1,0,1,0,14989.1,0.281065,0.280747,34.6288,8,0.0164299,10,0.00972192,-1.46056,-0.357451,-0.165058,-223.752,0.280747,
2,1,0,1,0,14989.1,0.284262,0.28397,33.9509,8,0.016567,10,0.00964103,-1.46915,-0.377453,-0.156311,-207.672,0.28397,
2,1,0,1,0,14989.1,0.287469,0.287154,33.3197,8,0.0167015,10,0.0095679,-1.4773,-0.401643,-0.146897,-191.404,0.287154,
2,1,0,1,0,14989.1,0.290665,0.290346,32.731,8,0.0168335,10,0.0095033,-1.48504,-0.426089,-0.138469,-177.284,0.290346,
2,1,0,1,0,14989.1,0.293861,0.293567,32.1749,8,0.0169632,10,0.0094455,-1.49248,-0.449779,-0.131176,-165.382,0.293567,
2,1,0,1,0,14989.1,0.297066,0.296739,31.6871,8,0.0170909,10,0.0094028,-1.49912,-0.467526,-0.126196,-157.512,0.296739,
2,1,0,1,0,14989.1,0.299637,0.299298,31.3114,8,0.0171917,10,0.00937142,-1.5043,-0.0997994,-0.591186,-699.195,0.2992979,
2,1,0,1,0,14989.1,0.300012,0.299785,31.2443,8,0.0172073,10,0.00936655,-1.50523,0.00666677,8.84986,9090.19,0.299785,
2,1,0,1,0,14989.1,0.298983,0.298811,28.5085,8,0.0172451,10,0.00851866,-1.54503,0.0245168,2.40651,2162.5,0.298811,
2,1,0,1,0,14989.1,0.295787,0.295629,21.5947,8,0.0173439,10,0.00638403,-1.66565,0.0256619,2.29913,1807.16,0.295629,
2,1,0,1,0,14989.2,0.292579,0.292379,16.3485,8,0.017419,10,0.00477995,-1.78652,0.024343,2.4237,1560.22,0.292379,
2,1,0,1,0,14989.2,0.289383,0.289159,12.0425,8,0.0174751,10,0.00348221,-1.91928,0.0213566,2.76262,1257.8,0.289159,
2,1,0,1,0,14989.2,0.286187,0.285955,8.44965,8,0.0175156,10,0.00241622,-2.07316,0.0165464,3.56573,1060.24,0.285955,
2,1,0,1,0,14989.2,0.282983,0.282736,5.37864,8,0.0175428,10,0.00152074,-2.26933,0.00887196,6.65017,903.132,0.282736,
2,1,0,1,0,14989.2,0.279786,0.279544,2.74013,8,0.0175587,10,0.000765987,-2.56223,0.0176154,3.34934,778.851,0.279544,
2,1,0,1,0,14989.2,0.276582,0.276299,0.4277,8,0.0175647,10,0.000118173,-3.36886,0.062217,0.948294,678.928,0.276299,
2,0,0,1,0,14989.2,0.273386,0.273088,-1.57181,8,0.0175622,10,-0.000429241,-2.8036,-0.0511054,-1.15448,593.732,0.273088,
2,0,0,1,0,14989.2,0.27019,0.26989,-3.3434,8,0.0175521,10,-0.00090235,-2.47581,-0.0109751,-5.37581,523.24,0.26989,
2,0,0,1,0,14989.2,0.266982,0.266695,-4.88868,8,0.0175354,10,-0.00130378,-2.31081,-0.0188688,-3.12685,463.161,0.266695,
2,0,0,1,0,14989.2,0.263786,0.263502,-6.2682,8,0.017513,10,-0.00165168,-2.20286,-0.0310883,-1.89782,412.913,0.263502,
2,0,0,1,0,14989.2,0.260585,0.260276,-7.50574,8,0.0174853,10,-0.00195356,-2.12461,-0.0433766,-1.36018,371.043,0.260276,
2,0,0,1,0,14989.2,0.257383,0.257087,-8.62964,8,0.0174528,10,-0.00221857,-2.06401,-0.0568339,-1.03811,332.794,0.257087,
2,0,0,1,0,14989.2,0.254187,0.253941,-9.62079,8,0.0174162,10,-0.00244311,-2.01679,-0.0714823,-0.825379,299.276,0.253941,
2,0,0,1,0,14989.2,0.25098,0.250706,-10.5266,8,0.0173758,10,-0.00263908,-1.97771,-0.0869544,-0.678517,271.937,0.250706,
2,0,0,1,0,14989.2,0.247783,0.247468,-11.3387,8,0.017332,10,-0.00280598,-1.94543,-0.103787,-0.568473,247.04,0.247468,
2,0,0,1,0,14989.2,0.244587,0.244308,-12.1047,8,0.017285,10,-0.00295728,-1.91705,-0.120763,-0.488561,227.365,0.244308,
2,0,0,1,0,14989.2,0.241383,0.24107,-12.8005,8,0.0172351,10,-0.00308581,-1.89277,-0.138648,-0.425537,209.811,0.24107,
2,0,0,1,0,14989.2,0.238187,0.237888,-13.441,8,0.0171826,10,-0.00319745,-1.87157,-0.159153,-0.370712,192.432,0.237888,
2,0,0,1,0,14989.2,0.234982,0.234672,-14.0235,8,0.0171276,10,-0.00329092,-1.85314,-0.17951,-0.328673,178.423,0.234672,
2,0,0,1,0,14989.2,0.231786,0.231481,-14.5732,8,0.0170703,10,-0.00337341,-1.83645,-0.199229,-0.296141,167.417,0.231481,
2,0,0,1,0,14989.2,0.22859,0.228285,-15.0817,8,0.0170109,10,-0.00344292,-1.82155,-0.219205,-0.269155,157.644,0.228285,
2,0,0,1,0,14989.2,0.225383,0.225093,-15.5831,8,0.0169495,10,-0.00350764,-1.80735,-0.239426,-0.246422,149.156,0.225093,
2,0,0,1,0,14989.2,0.222187,0.221901,-16.0368,8,0.0168862,10,-0.00355859,-1.79488,-0.261944,-0.225239,140.314,0.221901,
2,0,0,1,0,14989.2,0.218979,0.218662,-16.4851,8,0.0168211,10,-0.00360467,-1.78291,-0.286331,-0.206056,132.009,0.2186624,
2,0,0,1,0,14989.2,0.215783,0.215494,-16.8764,8,0.0167544,10,-0.00363676,-1.77272,-0.304524,-0.193745,127.323,0.2154939,
2,0,0,1,0,14989.3,0.212587,0.212261,-17.277,8,0.016686,10,-0.00366723,-1.76253,-0.32322,-0.182538,122.956,0.212261,
2,0,0,1,0,14989.3,0.20938,0.209096,-17.6671,8,0.0166161,10,-0.00369413,-1.75283,-0.343047,-0.171988,118.296,0.209096,
2,0,0,1,0,14989.3,0.206184,0.20587,-18.058,8,0.0165446,10,-0.0037176,-1.74333,-0.360954,-0.163456,114.838,0.20587,
2,0,0,1,0,14989.3,0.202988,0.202668,-18.3936,8,0.0164717,10,-0.0037278,-1.73533,-0.381274,-0.154745,110.933,0.202668,
2,0,0,1,0,14989.3,0.199783,0.199461,-18.747,8,0.0163973,10,-0.00373928,-1.72707,-0.39611,-0.148948,108.973,0.199461,
2,0,0,1,0,14989.3,0.196587,0.196281,-19.0887,8,0.0163216,10,-0.00374676,-1.71922,-0.40657,-0.145117,108.041,0.196281,
2,0,0,1,0,14989.3,0.193382,0.193076,-19.4522,8,0.0162445,10,-0.00375575,-1.71103,-0.419849,-0.140527,106.508,0.193076,
2,0,0,1,0,14989.3,0.190186,0.189864,-19.777,8,0.016166,10,-0.00375494,-1.70384,-0.428055,-0.137833,106.306,0.189864,
2,0,0,1,0,14989.3,0.18699,0.186664,-20.1099,8,0.0160862,10,-0.00375379,-1.69659,-0.440622,-0.133901,105.125,0.186664,
2,0,0,1,0,14989.3,0.183783,0.183457,-20.4521,8,0.016005,10,-0.00375207,-1.68926,-0.435924,-0.135345,108.081,0.1834569,
2,0,0,1,0,14989.3,0.180587,0.180293,-20.796,8,0.0159225,10,-0.00374937,-1.68202,-0.432978,-0.136266,110.666,0.180293,
2,0,0,1,0,14989.3,0.17738,0.177048,-21.1622,8,0.0158386,10,-0.00374672,-1.67444,-0.434908,-0.135661,112.033,0.1770478,
2,0,0,1,0,14989.3,0.174183,0.173873,-21.5254,8,0.0157532,10,-0.00374269,-1.66705,-0.420828,-0.1402,117.869,0.173873,
2,0,0,1,0,14989.3,0.170987,0.170663,-21.8854,8,0.0156663,10,-0.00373503,-1.65985,-0.414726,-0.142263,121.768,0.170663,
2,0,0,1,0,14989.3,0.16778,0.167483,-22.3059,8,0.0155779,10,-0.00373586,-1.65158,-0.398213,-0.148162,129.195,0.167483,
2,0,0,1,0,14989.3,0.164584,0.164252,-22.7203,8,0.0154878,10,-0.00373186,-1.64359,-0.377845,-0.156149,138.697,0.164252,
2,0,0,1,0,14989.3,0.161382,0.161054,-23.1816,8,0.015396,10,-0.00373349,-1.63486,-0.367817,-0.160406,145.415,0.161054,
2,0,0,1,0,14989.3,0.158183,0.15789,-23.6569,8,0.0153023,10,-0.0037352,-1.62604,-0.345467,-0.170783,158.071,0.1578905,
2,0,0,1,0,14989.3,0.154987,0.154618,-24.1767,8,0.0152065,10,-0.00373815,-1.6166,-0.327156,-0.180342,170.703,0.154618,
2,0,0,1,0,14989.3,0.151783,0.151471,-24.7406,8,0.0151087,10,-0.00374749,-1.60659,-0.307807,-0.191678,185.74,0.151471,
2,0,0,1,0,14989.3,0.148587,0.1483,-25.3587,8,0.0150084,10,-0.0037607,-1.59587,-0.283737,-0.207939,206.697,0.1483,
2,0,0,1,0,14989.3,0.145385,0.14506,-26.0401,8,0.0149056,10,-0.00377737,-1.58436,-0.267961,-0.220182,224.692,0.14506,
2,0,0,1,0,14989.3,0.142183,0.141882,-26.8093,8,0.0147998,10,-0.00380374,-1.57172,-0.252301,-0.233848,245.521,0.141882,
2,0,0,1,0,14989.3,0.138987,0.138709,-27.6082,8,0.0146909,10,-0.0038295,-1.55896,-0.236369,-0.24961,270.077,0.138709,
2,0,0,1,0,14989.3,0.13578,0.135475,-28.5077,8,0.0145786,10,-0.00386206,-1.54504,-0.224737,-0.262529,293.434,0.135475,
2,0,0,1,0,14989.4,0.132584,0.132324,-29.4797,8,0.0144625,10,-0.00390087,-1.53048,-0.212468,-0.277689,320.882,0.132324,
2,0,0,1,0,14989.4,0.129388,0.129128,-30.5516,8,0.0143424,10,-0.00394507,-1.51497,-0.202529,-0.291317,348.767,0.129128,
2,0,0,1,0,14989.4,0.12618,0.125944,-31.7043,8,0.0142178,10,-0.00399295,-1.49888,-0.195715,-0.301458,374.278,0.125944,
2,0,0,1,0,14989.4,0.122984,0.12273,-32.9527,8,0.0140884,10,-0.00404427,-1.48211,-0.19184,-0.307548,396.49,0.12273,
2,0,0,1,0,14989.4,0.119783,0.119536,-34.2661,8,0.0139538,10,-0.00409602,-1.46513,-0.189313,-0.311653,417.368,0.1195356,
2,0,0,1,0,14989.4,0.116584,0.116278,-35.6465,8,0.0138139,10,-0.0041449,-1.44798,-0.188899,-0.312336,434.766,0.116278,
2,0,0,1,0,14989.4,0.113387,0.113099,-37.0653,8,0.0136683,10,-0.00419204,-1.43103,-0.191571,-0.30798,445.246,0.113099,
2,0,0,1,0,14989.4,0.110183,0.109908,-38.527,8,0.013517,10,-0.00423443,-1.41423,-0.194353,-0.303572,455.833,0.109908,
2,0,0,1,0,14989.4,0.106987,0.106731,-39.9673,8,0.0133599,10,-0.00426575,-1.3983,-0.20188,-0.292252,455.108,0.1067312,
2,0,0,1,0,14989.4,0.103785,0.103547,-41.4498,8,0.0131969,10,-0.00429199,-1.38248,-0.21225,-0.277974,448.168,0.103547,
2,0,0,1,0,14989.4,0.100583,0.100323,-42.8796,8,0.013028,10,-0.00430182,-1.36775,-0.220869,-0.267127,445.657,0.100323,
2,0,0,1,0,14989.4,0.0973873,0.0971886,-44.2275,8,0.0128537,10,-0.00429841,-1.35431,-0.233074,-0.253139,436.582,0.0971886,
2,0,0,1,0,14989.4,0.0941801,0.0939671,-45.6557,8,0.0126738,10,-0.00429013,-1.34051,-0.244719,-0.241093,428.661,0.09396708,
2,0,0,1,0,14989.4,0.0909839,0.0907138,-47.0525,8,0.0124882,10,-0.00426831,-1.32742,-0.255344,-0.231061,422.754,0.0907138,
2,0,0,1,0,14989.4,0.0877878,0.0875707,-48.3461,8,0.0122973,10,-0.0042337,-1.31564,-0.27454,-0.214905,404.242,0.0875707,
2,0,0,1,0,14989.4,0.0845806,0.0843884,-49.6388,8,0.0121011,10,-0.00418894,-1.30418,-0.293966,-0.200703,387.552,0.0843884,
2,0,0,1,0,14989.4,0.0813844,0.0811584,-50.8335,8,0.0119001,10,-0.00412556,-1.29385,-0.319964,-0.184396,364.516,0.0811584,
2,0,0,1,0,14989.4,0.0781828,0.0779857,-51.9853,8,0.0116943,10,-0.00405411,-1.28412,-0.347789,-0.169643,342.969,0.0779857,
2,0,0,1,0,14989.4,0.0749839,0.0747175,-53.0313,8,0.0114842,10,-0.00396237,-1.27547,-0.37649,-0.156711,323.398,0.0747175,
2,0,0,1,0,14989.4,0.0717877,0.0715872,-54.0292,8,0.0112699,10,-0.0038678,-1.26737,-0.410211,-0.143829,302.564,0.0715872,
2,0,0,1,0,14989.4,0.0685832,0.0683466,-54.9768,8,0.0110518,10,-0.00375748,-1.25982,-0.443204,-0.133121,284.851,0.0683466,
2,0,0,1,0,14989.4,0.0653871,0.065159,-55.8661,8,0.01083,10,-0.00364018,-1.25285,-0.49607,-0.118935,258.449,0.065159,
2,0,0,1,0,14989.4,0.0621854,0.0619587,-56.6656,8,0.0106048,10,-0.00351093,-1.24668,-0.560866,-0.105195,231.755,0.0619587,
2,0,0,1,0,14989.4,0.0589837,0.058681,-57.3648,8,0.0103766,10,-0.00336623,-1.24135,-0.646865,-0.0912092,203.48,0.058681,
2,0,0,1,0,14989.4,0.0557876,0.0555104,-57.9517,8,0.0101459,10,-0.00321692,-1.23693,-0.76353,-0.0772727,174.253,0.0555104,
2,0,0,1,0,14989.5,0.0525804,0.052308,-58.4811,8,0.00991297,10,-0.00305903,-1.23298,-0.903287,-0.065317,148.639,0.052308,
2,0,0,1,0,14989.5,0.0493842,0.0490631,-58.9127,8,0.00967811,10,-0.00289044,-1.22979,-1.10247,-0.0535161,122.675,0.0490631,
2,0,0,1,0,14989.5,0.0461881,0.0458957,-59.2652,8,0.00944172,10,-0.00272002,-1.2272,-1.39959,-0.0421551,97.236,0.0458957,
2,0,0,1,0,14989.5,0.0429808,0.0426561,-59.5286,8,0.00920406,10,-0.00253926,-1.22527,-1.83689,-0.0321196,74.4446,0.0426561,
2,0,0,1,0,14989.5,0.0397847,0.039459,-59.7305,8,0.00896552,10,-0.0023569,-1.2238,-2.57648,-0.0228995,53.27,0.039459,
2,0,0,1,0,14989.5,0.036583,0.0362566,-59.8661,8,0.00872632,10,-0.00217054,-1.22282,-3.99908,-0.0147534,34.4015,0.0362566,
2,0,0,1,0,14989.5,0.0333841,0.0330552,-59.9492,8,0.00848666,10,-0.00198164,-1.22222,-7.24669,-0.00814164,19.0176,0.0330552,
2,0,0,1,0,14989.5,0.030188,0.0298878,-59.9678,8,0.00824681,10,-0.0017923,-1.22208,-36.1204,-0.00163342,3.81787,0.0298878,
2,0,0,1,0,14989.5,0.0269835,0.0266535,-59.974,8,0.00800689,10,-0.00159852,-1.22204,16.4831,0.00357942,-8.36706,0.0266535,
2,0,0,1,0,14989.5,0.0237874,0.0234479,-59.915,8,0.0077671,10,-0.00140488,-1.22246,7.53437,0.00783078,-18.2909,0.0234479,
2,0,0,1,0,14989.5,0.0205857,0.0202975,-59.8425,8,0.0075276,10,-0.00121465,-1.22299,4.94355,0.0119347,-27.8514,0.02029746,
2,0,0,1,0,14989.5,0.017384,0.0170547,-59.7331,8,0.00728843,10,-0.00101873,-1.22379,3.8716,0.0152392,-35.4984,0.0170547,
2,0,0,1,0,14989.5,0.0141879,0.0138587,-59.6176,8,0.00704973,10,-0.000826221,-1.22463,3.1284,0.0188595,-43.8385,0.0138587,
2,0,0,1,0,14989.5,0.0109806,0.010652,-59.4608,8,0.00681157,10,-0.000633376,-1.22577,2.64895,0.022273,-51.6356,0.010652,
2,0,0,1,0,14989.5,0.00778448,0.00747185,-59.2802,8,0.0065741,10,-0.000442933,-1.22709,2.59278,0.0227555,-52.6438,0.007471845,
2,0,0,1,0,14989.5,0.00458834,0.00428532,-59.0737,8,0.00633741,10,-0.00025315,-1.22861,2.19072,0.0269318,-62.0778,0.00428532,
2,0,0,1,0,14989.5,0.0013811,0.000994883,-58.9404,8,0.00610143,10,-5.86388e-05,-1.22959,1.98555,0.0297147,-68.2345,0.000994883,
2,0,0,1,0,14989.5,-0.00181504,-0.00216937,-58.6649,8,0.00586625,10,0.000127266,-1.23162,1.74723,0.0337678,-77.1936,-0.00216937,
2,0,0,1,0,14989.5,-0.0050195,-0.00541634,-58.4008,8,0.00563215,10,0.000316319,-1.23358,1.44794,0.0407475,-92.7861,-0.00541634,
2,0,0,1,0,14989.5,-0.00821564,-0.00859014,-58.0798,8,0.00539922,10,0.000498913,-1.23597,1.34759,0.0437818,-99.1514,-0.00859014,
2,0,0,1,0,14989.5,-0.0114118,-0.0117555,-57.7574,8,0.00516759,10,0.000678964,-1.23839,1.21243,0.0486628,-109.578,-0.0117555,
2,0,0,1,0,14989.5,-0.0146162,-0.0149579,-57.3969,8,0.00493729,10,0.000858535,-1.24111,1.11586,0.0528738,-118.283,-0.01495788,
2,0,0,1,0,14989.5,-0.0178124,-0.0181921,-57.0009,8,0.00470853,10,0.00103697,-1.24412,1.02141,0.057763,-128.336,-0.01819212,
2,0,0,1,0,14989.5,-0.0210196,-0.0213596,-56.5694,8,0.00448143,10,0.0012083,-1.24742,0.936282,0.0630152,-138.952,-0.0213596,
2,0,0,1,0,14989.5,-0.0242158,-0.0246033,-56.1085,8,0.00425611,10,0.00138046,-1.25097,0.880271,0.0670248,-146.63,-0.0246033,
2,0,0,1,0,14989.6,-0.0274119,-0.0277856,-55.6144,8,0.00403269,10,0.00154528,-1.25481,0.825539,0.0714685,-154.992,-0.0277856,
2,0,0,1,0,14989.6,-0.0306191,-0.0310061,-55.122,8,0.00381126,10,0.00170912,-1.25868,0.784327,0.0752237,-161.677,-0.0310061,
2,0,0,1,0,14989.6,-0.0338153,-0.0341958,-54.5799,8,0.0035919,10,0.0018664,-1.26297,0.760758,0.0775542,-165.111,-0.0341958,
2,0,0,1,0,14989.6,-0.037017,-0.0373494,-54.0478,8,0.00337471,10,0.00201865,-1.26722,0.736358,0.0801241,-168.975,-0.0373494,
2,0,0,1,0,14989.6,-0.0402187,-0.0405773,-53.5024,8,0.00315966,10,0.00217098,-1.27163,0.742313,0.0794813,-165.989,-0.0405773,
2,0,0,1,0,14989.6,-0.0434148,-0.0437553,-52.9677,8,0.00294679,10,0.00231762,-1.27599,0.748307,0.0788446,-163.063,-0.0437553,
2,0,0,1,0,14989.6,-0.0466193,-0.046979,-52.458,8,0.002736,10,0.00246443,-1.28019,0.754716,0.0781751,-160.092,-0.046979,
2,0,0,1,0,14989.6,-0.0498154,-0.0501984,-51.9526,8,0.00252725,10,0.00260794,-1.28439,0.791736,0.0745198,-151.201,-0.0501984,
2,0,0,1,0,14989.6,-0.0530115,-0.053352,-51.4572,8,0.00232049,10,0.00274535,-1.28855,0.817133,0.0722037,-145.19,-0.053352,
2,0,0,1,0,14989.6,-0.056216,-0.0566096,-51.0241,8,0.00211556,10,0.00288845,-1.29222,0.890263,0.0662725,-132.166,-0.0566096,
2,0,0,1,0,14989.6,-0.0594121,-0.0597601,-50.6023,8,0.00191235,10,0.003024,-1.29583,0.961298,0.0613753,-121.379,-0.0597601,
2,0,0,1,0,14989.6,-0.0626194,-0.0630293,-50.2568,8,0.00171069,10,0.00316765,-1.29881,1.03275,0.0571292,-112.161,-0.0630293,
2,0,0,1,0,14989.6,-0.0658155,-0.0661925,-49.8987,8,0.00151041,10,0.00330292,-1.30191,1.17468,0.0502265,-97.951,-0.0661925,
2,0,0,1,0,14989.6,-0.0690117,-0.0693568,-49.5944,8,0.00131147,10,0.0034397,-1.30457,1.30237,0.0453021,-87.8578,-0.0693568,
2,0,0,1,0,14989.6,-0.0722189,-0.0726101,-49.3437,8,0.00111362,10,0.00358285,-1.30677,1.52389,0.0387166,-74.6744,-0.0726101,
2,0,0,1,0,14989.6,-0.075415,-0.0758083,-49.1341,8,0.000916709,10,0.00372477,-1.30862,1.85426,0.0318186,-61.0975,-0.0758083,
2,0,0,1,0,14989.6,-0.0786167,-0.0789492,-48.9461,8,0.000720584,10,0.00386425,-1.31028,2.1769,0.0271027,-51.8416,-0.0789492,
2,0,0,1,0,14989.6,-0.0818184,-0.0821803,-48.8109,8,0.000525091,10,0.00401129,-1.31148,2.87123,0.0205487,-39.202,-0.0821803,
2,0,0,1,0,14989.6,-0.0850146,-0.0853784,-48.6817,8,0.000330116,10,0.00415637,-1.31263,3.93196,0.0150052,-28.5559,-0.0853784,
2,0,0,1,0,14989.6,-0.088219,-0.0885788,-48.6334,8,0.000135524,10,0.00430789,-1.31307,6.24332,0.0094501,-17.9593,-0.0885788,
2,0,0,1,0,14989.6,-0.0914152,-0.09176,-48.5803,8,-5.88785e-05,10,0.00445772,-1.31354,17.4843,0.00337446,-6.40572,-0.09175998,
2,0,0,1,0,14989.6,-0.0946141,-0.0949985,-48.5807,8,-0.000253195,10,0.00461509,-1.31354,-97.7175,-0.000603781,1.14616,-0.0949985,
2,0,0,1,0,14989.6,-0.0978158,-0.0981924,-48.5997,8,-0.000447565,10,0.00477212,-1.31337,-9.42902,-0.00625728,11.882,-0.0981924,
2,0,0,1,0,14989.6,-0.101012,-0.101373,-48.6481,8,-0.000642073,10,0.00493158,-1.31293,-5.57968,-0.0105741,20.1009,-0.101373,
2,0,0,1,0,14989.6,-0.104219,-0.104607,-48.7329,8,-0.000836824,10,0.00509779,-1.31218,-3.83767,-0.0153739,29.2714,-0.104607,
2,0,0,1,0,14989.7,-0.107415,-0.107776,-48.8375,8,-0.00103197,10,0.00526353,-1.31125,-2.87197,-0.0205434,39.204,-0.107776,
2,0,0,1,0,14989.7,-0.110611,-0.110946,-48.973,8,-0.00122761,10,0.00543335,-1.31004,-2.50022,-0.0235979,45.1461,-0.110946,
2,0,0,1,0,14989.7,-0.113819,-0.114162,-49.1495,8,-0.00142387,10,0.00561101,-1.30848,-2.12373,-0.0277813,53.32,-0.114162,
2,0,0,1,0,14989.7,-0.117015,-0.117397,-49.3103,8,-0.00162081,10,0.00578891,-1.30706,-1.88928,-0.0312288,60.1559,-0.117397,
2,0,0,1,0,14989.7,-0.120216,-0.12059,-49.5208,8,-0.00181847,10,0.00597173,-1.30521,-1.72665,-0.0341703,66.1063,-0.12059,
2,0,0,1,0,14989.7,-0.123418,-0.123787,-49.7455,8,-0.00201702,10,0.00615786,-1.30325,-1.53817,-0.0383572,74.5266,-0.123787,
2,0,0,1,0,14989.7,-0.126614,-0.12696,-49.9955,8,-0.00221652,10,0.00634744,-1.30107,-1.46613,-0.0402421,78.5601,-0.12696,
2,0,0,1,0,14989.7,-0.129819,-0.130183,-50.2632,8,-0.00241706,10,0.0065434,-1.29875,-1.38661,-0.0425499,83.4862,-0.130183,
2,0,0,1,0,14989.7,-0.133015,-0.133383,-50.5258,8,-0.00261866,10,0.00673928,-1.29649,-1.30881,-0.0450791,88.9557,-0.133383,
2,0,0,1,0,14989.7,-0.136214,-0.136519,-50.8083,8,-0.00282135,10,0.00693629,-1.29406,-1.26312,-0.0467096,92.7012,-0.136519,
2,0,0,1,0,14989.7,-0.139416,-0.139771,-51.1351,8,-0.00302527,10,0.00714721,-1.29128,-1.19924,-0.0491978,98.2122,-0.139771,
2,0,0,1,0,14989.7,-0.142612,-0.142954,-51.4471,8,-0.00323046,10,0.00735459,-1.28864,-1.18783,-0.0496705,99.7272,-0.1429543,
2,0,0,1,0,14989.7,-0.145819,-0.146172,-51.7818,8,-0.00343694,10,0.00756902,-1.28582,-1.18101,-0.0499573,100.952,-0.146172,
2,0,0,1,0,14989.7,-0.149015,-0.14936,-52.089,8,-0.00364474,10,0.00778002,-1.28325,-1.16548,-0.0506228,102.941,-0.14936,
2,0,0,1,0,14989.7,-0.152211,-0.152575,-52.4277,8,-0.00385381,10,0.00799918,-1.28044,-1.16216,-0.0507677,103.911,-0.152575,
2,0,0,1,0,14989.7,-0.155418,-0.155785,-52.768,8,-0.00406426,10,0.00822047,-1.27763,-1.13466,-0.0519979,107.09,-0.155785,
2,0,0,1,0,14989.7,-0.158615,-0.159001,-53.1149,8,-0.00427607,10,0.00844535,-1.27478,-1.14265,-0.0516342,107.022,-0.159001,
2,0,0,1,0,14989.7,-0.161816,-0.162163,-53.46,8,-0.00448925,10,0.00866921,-1.27197,-1.16021,-0.0508529,106.061,-0.162163,
2,0,0,1,0,14989.7,-0.165018,-0.165371,-53.7972,8,-0.00470381,10,0.00889651,-1.26924,-1.15216,-0.0512084,107.51,-0.1653713,
2,0,0,1,0,14989.7,-0.168214,-0.16854,-54.1207,8,-0.00491968,10,0.0091215,-1.26664,-1.17397,-0.0502569,106.181,-0.16854,
2,0,0,1,0,14989.7,-0.171419,-0.17171,-54.4813,8,-0.00513693,10,0.009355,-1.26375,-1.17189,-0.0503459,107.038,-0.1717104,
2,0,0,1,0,14989.7,-0.174615,-0.174955,-54.8183,8,-0.00535556,10,0.00959076,-1.26107,-1.18763,-0.0496787,106.245,-0.174955,
2,0,0,1,0,14989.7,-0.177814,-0.178118,-55.1616,8,-0.00557555,10,0.0098253,-1.25836,-1.22487,-0.0481685,103.663,-0.178118,
2,0,0,1,0,14989.7,-0.181015,-0.181366,-55.4835,8,-0.00579689,10,0.0100628,-1.25584,-1.22521,-0.0481549,104.268,-0.181366,
2,0,0,1,0,14989.7,-0.184211,-0.184547,-55.8119,8,-0.00601952,10,0.0102999,-1.25327,-1.23672,-0.047707,103.936,-0.184547,
2,0,0,1,0,14989.8,-0.187419,-0.187729,-56.1502,8,-0.00624349,10,0.010541,-1.25065,-1.24596,-0.047353,103.758,-0.187729,
2,0,0,1,0,14989.8,-0.190615,-0.190911,-56.4913,8,-0.00646881,10,0.0107848,-1.24802,-1.25567,-0.046987,103.557,-0.1909112,
2,0,0,1,0,14989.8,-0.193811,-0.194163,-56.8113,8,-0.00669546,10,0.0110307,-1.24557,-1.30096,-0.0453511,100.465,-0.194163,
2,0,0,1,0,14989.8,-0.197018,-0.197361,-57.1389,8,-0.00692342,10,0.011277,-1.24307,-1.50536,-0.0391933,87.0501,-0.197361,
2,0,0,1,0,14989.8,-0.199647,-0.199964,-57.3795,8,-0.0071124,10,0.0114739,-1.24124,0.270735,0.217925,-472.442,-0.1999644,
2,0,0,1,0,14989.8,-0.200134,-0.20057,-57.3321,8,-0.00714683,10,0.0114991,-1.2416,-0.0140689,-4.19364,8515.31,-0.2005704,
2,0,0,1,1,14989.8,-0.198935,-0.199467,-54.3059,8,-0.00722965,10,0.0108322,-1.26515,-0.0499943,-1.18013,2259.44,-0.199467,
2,0,0,1,1,14989.8,-0.195739,-0.196197,-47.2333,8,-0.00743146,10,0.00926706,-1.32575,-0.055894,-1.05557,1905.42,-0.196197,
2,0,0,1,1,14989.8,-0.192535,-0.192973,-41.582,8,-0.00760825,10,0.00802419,-1.38109,-0.0574872,-1.02632,1697.93,-0.192973,
2,0,0,1,1,14989.8,-0.189339,-0.189744,-36.7026,8,-0.00776416,10,0.00696409,-1.4353,-0.0582224,-1.01336,1465.02,-0.1897437,
2,0,0,1,1,14989.8,-0.186137,-0.186542,-32.3614,8,-0.00790172,10,0.00603677,-1.48997,-0.0573663,-1.02848,1304.66,-0.186542,
2,0,0,1,1,14989.8,-0.182935,-0.183367,-28.4373,8,-0.00802281,10,0.00521448,-1.54611,-0.0553372,-1.06619,1183.67,-0.183367,
2,0,0,1,1,14989.8,-0.179739,-0.180151,-24.8545,8,-0.00812894,10,0.00447758,-1.60459,-0.0525582,-1.12256,1084.69,-0.180151,
2,0,0,1,1,14989.8,-0.176532,-0.176928,-21.5326,8,-0.00822132,10,0.00380972,-1.6669,-0.048873,-1.20721,1006.04,-0.176928,
2,0,0,1,1,14989.8,-0.173336,-0.173719,-18.4519,8,-0.00830092,10,0.00320544,-1.73396,-0.0446551,-1.32124,937.715,-0.173719,
2,0,0,1,1,14989.8,-0.17014,-0.170564,-15.5567,8,-0.00836859,10,0.00265341,-1.80808,-0.0397311,-1.48498,881.665,-0.170564,
2,0,0,1,1,14989.8,-0.166932,-0.16733,-12.8317,8,-0.00842503,10,0.00214713,-1.89171,-0.0343621,-1.71701,830.654,-0.16733,
2,0,0,1,1,14989.8,-0.163736,-0.164154,-10.2706,8,-0.00847094,10,0.00168595,-1.98841,-0.0285308,-2.06794,783.086,-0.164154,
2,0,0,1,1,14989.8,-0.160532,-0.16094,-7.837,8,-0.00850688,10,0.00126129,-2.10585,-0.0218565,-2.69943,743.429,-0.16094,
2,0,0,1,1,14989.8,-0.157336,-0.157776,-5.5422,8,-0.00853339,10,0.000874424,-2.25632,-0.0138953,-4.24604,707.673,-0.157776,
2,0,0,1,1,14989.8,-0.154139,-0.15457,-3.34567,8,-0.0085509,10,0.00051714,-2.47552,-0.0124925,-4.72284,672.993,-0.15457,
2,0,0,1,1,14989.8,-0.150935,-0.151392,-1.23923,8,-0.00855982,10,0.00018761,-2.90685,-0.0402899,-1.46439,642.699,-0.151392,
2,1,0,1,1,14989.8,-0.147739,-0.148185,0.74674,8,-0.00856057,10,-0.000110656,-3.12683,0.0996205,0.592248,613.965,-0.148185,
2,1,0,1,1,14989.8,-0.144532,-0.144998,2.67014,8,-0.00855354,10,-0.000387164,-2.57347,0.0181877,3.24395,586.397,-0.144998,
2,1,0,1,1,14989.8,-0.141335,-0.141801,4.49431,8,-0.00853899,10,-0.000637296,-2.34734,0.0124258,4.74819,565.286,-0.1418006,
2,1,0,1,1,14989.8,-0.138139,-0.138584,6.2711,8,-0.00851726,10,-0.000869076,-2.20266,0.023032,2.56165,540.657,-0.138584,
2,1,0,1,1,14989.9,-0.134932,-0.135408,7.96931,8,-0.00848858,10,-0.00107911,-2.09858,0.0323934,1.82136,520.954,-0.135408,
2,1,0,1,1,14989.9,-0.131736,-0.132221,9.57804,8,-0.00845331,10,-0.00126642,-2.01872,0.0417753,1.41232,502.027,-0.132221,
2,1,0,1,1,14989.9,-0.12854,-0.129005,11.1604,8,-0.00841164,10,-0.00143975,-1.95232,0.0513074,1.14993,483.618,-0.129005,
2,1,0,1,1,14989.9,-0.125333,-0.125791,12.6939,8,-0.00836375,10,-0.00159678,-1.8964,0.0605516,0.974376,469.633,-0.125791,
2,1,0,1,1,14989.9,-0.122136,-0.122575,14.1756,8,-0.00830984,10,-0.00173758,-1.84846,0.0703093,0.83915,454.066,-0.122575,
2,1,0,1,1,14989.9,-0.118932,-0.119374,15.6113,8,-0.00825012,10,-0.00186359,-1.80656,0.0807523,0.730629,437.02,-0.119374,
2,1,0,1,1,14989.9,-0.115736,-0.1162,16.9745,8,-0.00818479,10,-0.00197244,-1.7702,0.0915843,0.644215,420.805,-0.1162,
2,1,0,1,1,14989.9,-0.11254,-0.112963,18.2999,8,-0.00811412,10,-0.00206721,-1.73755,0.10248,0.575722,406.526,-0.112963,
2,1,0,1,1,14989.9,-0.109335,-0.109707,19.5905,8,-0.00803818,10,-0.00214922,-1.70795,0.113525,0.519708,393.326,-0.109707,
2,1,0,1,1,14989.9,-0.106139,-0.106549,20.8249,8,-0.00795721,10,-0.00221888,-1.68142,0.125025,0.471907,380.133,-0.106549,
2,1,0,1,1,14989.9,-0.102932,-0.103348,22.0295,8,-0.00787137,10,-0.00227671,-1.65699,0.136834,0.431178,367.724,-0.103348,
2,1,0,1,1,14989.9,-0.0997357,-0.100146,23.1721,8,-0.00778083,10,-0.00232059,-1.63503,0.149095,0.395721,355.596,-0.100146,
2,1,0,1,1,14989.9,-0.0965395,-0.0969485,24.2822,8,-0.00768579,10,-0.00235413,-1.61471,0.162286,0.363556,342.793,-0.0969485,
2,1,0,1,1,14989.9,-0.0933323,-0.0937525,25.3754,8,-0.00758636,10,-0.00237901,-1.59559,0.174561,0.33799,333.027,-0.0937525,
2,1,0,1,1,14989.9,-0.0901362,-0.0905299,26.4235,8,-0.00748266,10,-0.00239212,-1.57801,0.188158,0.313566,321.78,-0.0905299,
2,1,0,1,1,14989.9,-0.0869345,-0.0873232,27.4423,8,-0.00737483,10,-0.00239635,-1.56158,0.202128,0.291894,311.235,-0.0873232,
2,1,0,1,1,14989.9,-0.0837328,-0.0841049,28.4151,8,-0.00726299,10,-0.00238985,-1.54645,0.216525,0.272485,301.01,-0.0841049,
2,1,0,1,1,14989.9,-0.0805366,-0.0809375,29.3639,8,-0.00714735,10,-0.00237664,-1.53219,0.231557,0.254797,291.031,-0.0809375,
2,1,0,1,1,14989.9,-0.0773322,-0.077734,30.2752,8,-0.00702798,10,-0.00235341,-1.51891,0.246731,0.239127,281.656,-0.077734,
2,1,0,1,1,14989.9,-0.074136,-0.0745103,31.1713,8,-0.006905,10,-0.00232258,-1.50625,0.262774,0.224528,272.312,-0.0745103,
2,1,0,1,1,14989.9,-0.0709371,-0.0713143,32.0176,8,-0.00677852,10,-0.00228331,-1.49461,0.27939,0.211174,263.131,-0.0713143,
2,1,0,1,1,14989.9,-0.0677354,-0.0681193,32.8544,8,-0.00664867,10,-0.00223802,-1.48341,0.296909,0.198714,254.13,-0.0681193,
2,1,0,1,1,14989.9,-0.0645393,-0.0649497,33.6392,8,-0.00651559,10,-0.00218485,-1.47315,0.313738,0.188055,246.34,-0.0649497,
2,1,0,1,1,14989.9,-0.0613321,-0.061725,34.4204,8,-0.00637939,10,-0.0021246,-1.46318,0.334669,0.176293,236.289,-0.061725,
2,1,0,1,1,14989.9,-0.0581359,-0.0585523,35.1614,8,-0.00624012,10,-0.00205878,-1.45393,0.355139,0.166132,227.423,-0.0585523,
2,1,0,1,1,14990,-0.0549398,-0.0553286,35.8767,8,-0.00609798,10,-0.00198501,-1.44519,0.377422,0.156324,218.414,-0.0553286,
2,1,0,1,1,14990,-0.0517325,-0.0521315,36.5543,8,-0.00595301,10,-0.00190563,-1.43706,0.400341,0.147374,209.868,-0.0521315,
2,1,0,1,1,14990,-0.0485364,-0.0489185,37.2175,8,-0.00580539,10,-0.00182063,-1.42925,0.422487,0.139649,202.504,-0.0489185,
2,1,0,1,1,14990,-0.0453347,-0.0457447,37.8493,8,-0.00565518,10,-0.00173141,-1.42194,0.449253,0.131329,193.641,-0.0457447,
2,1,0,1,1,14990,-0.042133,-0.0425444,38.4656,8,-0.0055025,10,-0.00163649,-1.41493,0.475043,0.124199,186.089,-0.0425444,
2,1,0,1,1,14990,-0.0389369,-0.0393218,39.0348,8,-0.00534743,10,-0.00153492,-1.40855,0.509198,0.115868,176.206,-0.0393218,
2,1,0,1,1,14990,-0.0357324,-0.0361671,39.5904,8,-0.00519013,10,-0.00143187,-1.40241,0.545054,0.108246,166.968,-0.0361671,
2,1,0,1,1,14990,-0.0325363,-0.0329403,40.1056,8,-0.00503067,10,-0.00132109,-1.3968,0.575267,0.102561,160.308,-0.0329403,
2,1,0,1,1,14990,-0.0293374,-0.0297569,40.6007,8,-0.0048692,10,-0.00120815,-1.39147,0.619287,0.0952709,150.777,-0.02975692,
2,1,0,1,1,14990,-0.0261357,-0.0265396,41.0839,8,-0.00470575,10,-0.00109035,-1.38633,0.65781,0.0896915,143.582,-0.0265396,
2,1,0,1,1,14990,-0.0229395,-0.0233107,41.5289,8,-0.00454048,10,-0.000968068,-1.38165,0.70555,0.0836227,135.306,-0.0233107,
2,1,0,1,1,14990,-0.0197323,-0.0201189,41.9465,8,-0.00437348,10,-0.000843916,-1.3773,0.769037,0.0767193,125.398,-0.0201189,
2,1,0,1,1,14990,-0.0165361,-0.0169674,42.3312,8,-0.00420488,10,-0.000718248,-1.37334,0.809946,0.0728444,120.227,-0.0169674,
2,1,0,1,1,14990,-0.01334,-0.0137374,42.6893,8,-0.00403477,10,-0.000586437,-1.36968,0.885555,0.0666249,110.904,-0.0137374,
2,1,0,1,1,14990,-0.0101328,-0.0105636,43.0614,8,-0.00386322,10,-0.000454882,-1.36591,0.952299,0.0619553,103.958,-0.0105636,
2,1,0,1,1,14990,-0.00693663,-0.00731234,43.3668,8,-0.00369033,10,-0.000317113,-1.36284,1.02279,0.0576854,97.4754,-0.00731234,
2,1,0,1,1,14990,-0.00373494,-0.00413218,43.6655,8,-0.00351624,10,-0.000180434,-1.35986, , , ,-0.00413218,
2,1,0,1,1,14990,-0.000774628,-0.0011938,43.9119,8,-0.00335421,10,-5.24219e-05,-1.35742, , , ,-0.001193797,
2,1,0,0,1,14990,-0.000125413,-0.000554371,43.9598,8,-0.00331906,10,-2.43701e-05,-1.35694, , , ,-0.000554371,