File: Figure_codes/Fig_3-5/rawdata_trumpetplot_data/after 10th/20221101_1-115_003_TrumpetPlot_ParaChange_from10_every3_14_CV_C01_7.csv
mode,ox/red,error,control changes,counter inc.,time/s,control/V,Ewe/V,<I>/mA,cycle number,(Q-Qo)/C,I Range,P/W,log(|I|),Tafel slope mV/dec,alpha_eff,dI/d(E-IR),E-IR/V,
2,1,0,1,0,14990,2.44065e-05,-0.000248974,43.1654,8,0.0000000E+000,10,-1.07471e-05,-1.36486, , , ,-0.000248974,
2,1,0,1,0,14990,0.00332042,0.002928,44.5757,8,0.000136588,10,0.000130518,-1.3509, , , ,0.002928,
2,1,0,1,0,14990,0.0073156,0.00694482,45.6774,8,0.00031727,10,0.000317221,-1.3403, , , ,0.00694482,
2,1,0,1,0,14990,0.0113108,0.0109553,46.6092,8,0.000501966,10,0.000510617,-1.33153,0.478992,0.123175,222.757,0.0109553,
2,1,0,1,0,14990,0.0153059,0.014952,47.4234,8,0.000690116,10,0.000709073,-1.32401,0.54343,0.10857,200.266,0.014952,
2,1,0,1,0,14990,0.0193011,0.0189624,48.1475,8,0.000881374,10,0.000912993,-1.31743,0.614631,0.0959926,179.959,0.0189624,
2,1,0,1,0,14990,0.0233462,0.0229771,48.8881,8,0.00107558,10,0.00112331,-1.3108,0.681374,0.0865898,164.662,0.0229771,
2,1,0,1,0,14990,0.0273414,0.0269791,49.4928,8,0.00127241,10,0.00133527,-1.30546,0.748206,0.0788553,151.879,0.0269791,
2,1,0,1,0,14990.1,0.0313366,0.0309185,50.0525,8,0.00147157,10,0.00154755,-1.30057,0.844587,0.0698566,136.227,0.03091849,
2,1,0,1,0,14990.1,0.0353317,0.0349533,50.5762,8,0.00167289,10,0.00176781,-1.29605,0.90806,0.0649736,128.075,0.0349533,
2,1,0,1,0,14990.1,0.0393269,0.0389479,51.0637,8,0.00187623,10,0.00198883,-1.29189,0.966737,0.06103,121.513,0.0389479,
2,1,0,1,0,14990.1,0.0433221,0.0429456,51.5377,8,0.00208149,10,0.00221332,-1.28787,1.02315,0.0576653,115.89,0.04294562,
2,1,0,1,0,14990.1,0.0473173,0.0468935,51.9937,8,0.00228859,10,0.00243817,-1.28405,1.05627,0.055857,113.277,0.0468935,
2,1,0,1,0,14990.1,0.0513124,0.0509146,52.426,8,0.00249749,10,0.00266925,-1.28045,1.08776,0.0542401,110.961,0.0509146,
2,1,0,1,0,14990.1,0.0553076,0.0549272,52.8738,8,0.00270812,10,0.00290421,-1.27676,1.08159,0.0545492,112.605,0.0549272,
2,1,0,1,0,14990.1,0.0593028,0.05891,53.3092,8,0.00292053,10,0.00314044,-1.2732,1.0847,0.054393,113.21,0.05891,
2,1,0,1,0,14990.1,0.0633479,0.0629778,53.8048,8,0.00313476,10,0.00338851,-1.26918,1.10287,0.0534966,112.26,0.0629778,
2,1,0,1,0,14990.1,0.0673431,0.0669903,54.2459,8,0.00335089,10,0.00363395,-1.26563,1.12511,0.0524395,110.907,0.0669903,
2,1,0,1,0,14990.1,0.0713383,0.070969,54.6747,8,0.00356878,10,0.00388021,-1.26221,1.12192,0.0525884,112.253,0.070969,
2,1,0,1,0,14990.1,0.0753334,0.0749232,55.0851,8,0.00378835,10,0.00412716,-1.25897,1.06724,0.055283,119.067,0.07492324,
2,1,0,1,0,14990.1,0.0793286,0.0789167,55.594,8,0.00400968,10,0.0043873,-1.25497,1.00149,0.0589121,128.039,0.0789167,
2,1,0,1,0,14990.1,0.0833238,0.082889,56.1389,8,0.00423322,10,0.0046533,-1.25074,0.944587,0.0624611,136.934,0.082889,
2,1,0,1,0,14990.1,0.0873189,0.0869217,56.7173,8,0.00445899,10,0.00492996,-1.24628,0.926366,0.0636898,140.982,0.0869217,
2,1,0,1,0,14990.1,0.0913141,0.0909364,57.2779,8,0.00468704,10,0.00520865,-1.24201,0.910448,0.0648032,144.898,0.09093643,
2,1,0,1,0,14990.1,0.0953093,0.094984,57.8592,8,0.00491737,10,0.0054957,-1.23763,0.895753,0.0658664,148.837,0.09498401,
2,1,0,1,0,14990.1,0.0993045,0.0989266,58.4627,8,0.00515007,10,0.00578352,-1.23312,0.854815,0.0690208,157.673,0.0989266,
2,1,0,1,0,14990.1,0.103319,0.102933,59.1003,8,0.00538522,10,0.00608336,-1.22841,0.832794,0.0708458,163.565,0.102933,
2,1,0,1,0,14990.1,0.107345,0.106994,59.8098,8,0.00562317,10,0.0063993,-1.22323,0.819812,0.0719677,167.956,0.106994,
2,1,0,1,0,14990.1,0.11134,0.110979,60.4755,8,0.00586379,10,0.00671152,-1.21842,0.804614,0.0733271,173.081,0.110979,
2,1,0,1,0,14990.1,0.115335,0.114958,61.1552,8,0.00610713,10,0.00703027,-1.21357,0.804562,0.0733319,175.154,0.114958,
2,1,0,1,0,14990.1,0.11933,0.119016,61.884,8,0.00635329,10,0.00736519,-1.20842,0.781473,0.0754985,182.44,0.119016,
2,1,0,1,0,14990.1,0.123325,0.123013,62.6155,8,0.00660236,10,0.0077025,-1.20332,0.76241,0.0773862,189.228,0.123013,
2,1,0,1,0,14990.1,0.127321,0.12692,63.3838,8,0.00685445,10,0.00804468,-1.19802,0.75256,0.0783991,194.043,0.12692,
2,1,0,1,0,14990.2,0.131316,0.130943,64.1802,8,0.00710965,10,0.00840397,-1.1926,0.734455,0.0803317,201.284,0.130943,
2,1,0,1,0,14990.2,0.135311,0.134972,64.9801,8,0.00736804,10,0.00877049,-1.18722,0.725073,0.0813711,206.493,0.134972,
2,1,0,1,0,14990.2,0.139306,0.138923,65.818,8,0.00762971,10,0.00914363,-1.18166,0.699291,0.0843711,217.014,0.138923,
2,1,0,1,0,14990.2,0.143301,0.14294,66.6917,8,0.0078948,10,0.0095329,-1.17593,0.679817,0.0867881,226.172,0.14294,
2,1,0,1,0,14990.2,0.147346,0.146997,67.664,8,0.00816366,10,0.0099464,-1.16964,0.669992,0.0880608,232.555,0.146997,
2,1,0,1,0,14990.2,0.151342,0.15099,68.6031,8,0.00843628,10,0.0103584,-1.16366,0.65842,0.0896085,239.891,0.15099,
2,1,0,1,0,14990.2,0.155337,0.154976,69.5513,8,0.00871268,10,0.0107788,-1.15769,0.663215,0.0889606,241.56,0.1549765,
2,1,0,1,0,14990.2,0.159332,0.158969,70.5369,8,0.00899295,10,0.0112132,-1.15158,0.660759,0.0892913,245.846,0.158969,
2,1,0,1,0,14990.2,0.163327,0.162982,71.5252,8,0.00927717,10,0.0116573,-1.14554,0.660092,0.0893814,249.484,0.162982,
2,1,0,1,0,14990.2,0.167322,0.166969,72.5312,8,0.00956539,10,0.0121104,-1.13947,0.676739,0.0871828,246.639,0.166969,
2,1,0,1,0,14990.2,0.171317,0.170912,73.527,8,0.00985761,10,0.0125667,-1.13355,0.697863,0.0845438,242.326,0.1709123,
2,1,0,1,0,14990.2,0.175313,0.174935,74.4749,8,0.0101537,10,0.0130283,-1.12799,0.729826,0.0808412,234.701,0.174935,
2,1,0,1,0,14990.2,0.179308,0.178957,75.3964,8,0.0104536,10,0.0134927,-1.12265,0.764581,0.0771664,226.878,0.178957,
2,1,0,1,0,14990.2,0.183303,0.182948,76.2816,8,0.010757,10,0.0139556,-1.11758,0.82031,0.0719241,213.826,0.182948,
2,1,0,1,0,14990.2,0.187348,0.186986,77.1738,8,0.011064,10,0.0144304,-1.11253,0.895749,0.0658667,197.844,0.186986,
2,1,0,1,0,14990.2,0.191343,0.190974,77.9044,8,0.0113742,10,0.0148777,-1.10844,1.0213,0.0577694,175.12,0.190974,
2,1,0,1,0,14990.2,0.195338,0.194924,78.5555,8,0.0116872,10,0.0153124,-1.10482,1.24382,0.0474345,145.001,0.194924,
2,1,0,1,0,14990.2,0.199334,0.198944,79.0829,8,0.0120026,10,0.0157331,-1.10192,1.57313,0.0375049,115.376,0.198944,
2,1,0,1,0,14990.2,0.203329,0.202976,79.4923,8,0.0123198,10,0.016135,-1.09967,2.34731,0.0251351,77.6685,0.202976,
2,1,0,1,0,14990.2,0.207324,0.206994,79.7526,8,0.0126384,10,0.0165083,-1.09825,5.1788,0.0113926,35.2871,0.206994,
2,1,0,1,0,14990.2,0.211319,0.210973,79.802,8,0.0129576,10,0.0168361,-1.09799,-12.1393,-0.00486024,-15.0553,0.2109734,
2,1,0,1,0,14990.2,0.215314,0.21495,79.6477,8,0.0132765,10,0.0171203,-1.09883,-2.59326,-0.0227513,-70.3133,0.21495,
2,1,0,1,0,14990.2,0.219309,0.218973,79.2515,8,0.0135943,10,0.0173539,-1.10099,-1.45004,-0.0406885,-125.119,0.2189731,
2,1,0,1,0,14990.2,0.223305,0.222973,78.6291,8,0.0139101,10,0.0175322,-1.10442,-0.990006,-0.0595956,-181.828,0.222973,
2,1,0,1,0,14990.2,0.227314,0.227032,77.7928,8,0.0142229,10,0.0176615,-1.10906,-0.737617,-0.0799874,-241.302,0.2270322,
2,1,0,1,0,14990.3,0.231345,0.231016,76.7264,8,0.0145319,10,0.017725,-1.11506,-0.586909,-0.100527,-298.989,0.231016,
2,1,0,1,0,14990.3,0.23534,0.23502,75.3793,8,0.0148361,10,0.0177157,-1.12275,-0.486842,-0.121189,-354.351,0.23502,
2,1,0,1,0,14990.3,0.239335,0.238989,73.8404,8,0.0151344,10,0.0176471,-1.13171,-0.420569,-0.140286,-402.171,0.238989,
2,1,0,1,0,14990.3,0.24333,0.243037,72.1215,8,0.0154262,10,0.0175282,-1.14194,-0.375177,-0.157259,-440.607,0.243037,
2,1,0,1,0,14990.3,0.247326,0.247041,70.2816,8,0.0157109,10,0.0173624,-1.15316,-0.341558,-0.172738,-471.806,0.247041,
2,1,0,1,0,14990.3,0.251321,0.251044,68.3191,8,0.0159879,10,0.0171511,-1.16546,-0.315818,-0.186816,-496.379,0.251044,
2,1,0,1,0,14990.3,0.255316,0.255039,66.2682,8,0.0162569,10,0.016901,-1.17869,-0.297854,-0.198084,-511.115,0.255039,
2,1,0,1,0,14990.3,0.259311,0.259001,64.1971,8,0.0165176,10,0.0166271,-1.19248,-0.287013,-0.205566,-514.38,0.259001,
2,1,0,1,0,14990.3,0.263306,0.263013,62.1182,8,0.01677,10,0.0163379,-1.20678,-0.283097,-0.208409,-505.345,0.263013,
2,1,0,1,0,14990.3,0.267302,0.267042,60.0899,8,0.0170142,10,0.0160465,-1.2212,-0.279184,-0.21133,-495.92,0.267042,
2,1,0,1,0,14990.3,0.271347,0.271065,58.1696,8,0.0172505,10,0.0157677,-1.2353,-0.279015,-0.211458,-480.131,0.271065,
2,1,0,1,0,14990.3,0.275342,0.275053,56.2369,8,0.0174791,10,0.0154681,-1.24998,-0.280376,-0.210431,-462.433,0.275053,
2,1,0,1,0,14990.3,0.279337,0.279064,54.4114,8,0.0177002,10,0.0151843,-1.26431,-0.282818,-0.208615,-444.097,0.279064,
2,1,0,1,0,14990.3,0.283332,0.283046,52.6892,8,0.0179142,10,0.0149135,-1.27828,-0.292116,-0.201974,-416.5,0.283046,
2,1,0,1,0,14990.3,0.287327,0.287034,51.0775,8,0.0181216,10,0.014661,-1.29177,-0.301084,-0.195959,-391.788,0.287034,
2,1,0,1,0,14990.3,0.291322,0.291033,49.5811,8,0.0183227,10,0.0144297,-1.30468,-0.313214,-0.18837,-365.875,0.291033,
2,1,0,1,0,14990.3,0.295318,0.294983,48.1746,8,0.0185181,10,0.0142107,-1.31718,-0.320808,-0.183911,-350.474,0.294983,
2,1,0,1,0,14990.3,0.299013,0.298709,46.9584,8,0.018694,10,0.0140269,-1.32829,-0.123084,-0.479348,-864.524,0.298709,
2,1,0,0,0,14990.3,0.300012,0.29967,46.6489,8,0.0187408,10,0.0139793,-1.33116,0.00266493,22.1394,35014.8,0.29967,
2,1,0,1,0,14990.3,0.298714,0.298645,43.0007,8,0.0187977,10,0.0128419,-1.36652,0.0330964,1.78267,2491.24,0.2986446,
2,1,0,1,0,14990.3,0.294718,0.294571,33.7314,8,0.0189493,10,0.00993626,-1.47197,0.0370479,1.59253,1982.72,0.294571,
2,1,0,1,0,14990.3,0.290723,0.290529,26.5801,8,0.0190689,10,0.00772229,-1.57544,0.0365979,1.61212,1699.7,0.290529,
2,1,0,1,0,14990.3,0.286728,0.286556,20.6474,8,0.0191624,10,0.00591663,-1.68514,0.0336804,1.75176,1399.72,0.286556,
2,1,0,1,0,14990.3,0.282733,0.282517,15.5884,8,0.0192342,10,0.00440399,-1.8072,0.029076,2.02917,1192.78,0.282517,
2,1,0,1,0,14990.3,0.278738,0.27851,11.2505,8,0.0192873,10,0.00313338,-1.94883,0.0231217,2.55171,1025.95,0.27851,
2,1,0,1,0,14990.3,0.274742,0.274514,7.47734,8,0.0193242,10,0.00205263,-2.12625,0.0144978,4.06958,894.073,0.274514,
2,1,0,1,0,14990.3,0.270747,0.270497,4.17188,8,0.0193471,10,0.00112848,-2.37967,0.0174564,3.37985,784.252,0.2704972,
2,1,0,1,0,14990.4,0.266702,0.266438,1.21267,8,0.0193574,10,0.000323101,-2.91626,0.0509592,1.15779,692.239,0.266438,
2,0,0,1,0,14990.4,0.262707,0.262441,-1.3511,8,0.0193568,10,-0.000354586,-2.86931,-0.121752,-0.484593,611.833,0.262441,
2,0,0,1,0,14990.4,0.258712,0.258479,-3.62305,8,0.0193465,10,-0.00093648,-2.44093,-0.0202837,-2.90874,542.135,0.258479,
2,0,0,1,0,14990.4,0.254717,0.254441,-5.65213,8,0.0193277,10,-0.00143813,-2.24779,-0.0192828,-3.05972,485.445,0.254441,
2,0,0,1,0,14990.4,0.250722,0.250423,-7.4698,8,0.0193012,10,-0.00187061,-2.12669,-0.0344321,-1.71352,434.631,0.250423,
2,0,0,1,0,14990.4,0.246726,0.24646,-9.10921,8,0.0192679,10,-0.00224505,-2.04052,-0.0492433,-1.19813,393.234,0.24646,
2,0,0,1,0,14990.4,0.242731,0.242424,-10.6008,8,0.0192283,10,-0.0025699,-1.97466,-0.0649321,-0.908642,356.36,0.242424,
2,0,0,1,0,14990.4,0.238736,0.238438,-11.9449,8,0.019183,10,-0.00284811,-1.92282,-0.0817349,-0.721846,324.168,0.238438,
2,0,0,1,0,14990.4,0.234741,0.234445,-13.1634,8,0.0191326,10,-0.0030861,-1.88063,-0.0986425,-0.598119,299.942,0.234445,
2,0,0,1,0,14990.4,0.230746,0.23047,-14.2926,8,0.0190776,10,-0.00329402,-1.84489,-0.118144,-0.49939,273.344,0.23047,
2,0,0,1,0,14990.4,0.226701,0.226438,-15.3956,8,0.0190182,10,-0.00348616,-1.8126,-0.137358,-0.429534,253.118,0.226438,
2,0,0,1,0,14990.4,0.222705,0.222381,-16.3339,8,0.0189546,10,-0.00363235,-1.78691,-0.159039,-0.370977,232.952,0.222381,
2,0,0,1,0,14990.4,0.21871,0.218432,-17.2166,8,0.0188874,10,-0.00376067,-1.76405,-0.183865,-0.320888,213.518,0.218432,
2,0,0,1,0,14990.4,0.214715,0.214418,-18.0321,8,0.0188168,10,-0.00386639,-1.74395,-0.203915,-0.289336,202.119,0.214418,
2,0,0,1,0,14990.4,0.21072,0.210408,-18.8183,8,0.018743,10,-0.00395953,-1.72542,-0.226937,-0.259984,189.707,0.2104082,
2,0,0,1,0,14990.4,0.206725,0.206409,-19.5621,8,0.0186662,10,-0.0040378,-1.70858,-0.24636,-0.239487,181.777,0.206409,
2,0,0,1,0,14990.4,0.202729,0.202389,-20.2601,8,0.0185865,10,-0.00410043,-1.69336,-0.268565,-0.219686,172.91,0.202389,
2,0,0,1,0,14990.4,0.198734,0.198432,-20.9379,8,0.018504,10,-0.00415475,-1.67907,-0.291111,-0.202672,164.943,0.198432,
2,0,0,1,0,14990.4,0.194739,0.194437,-21.5799,8,0.0184189,10,-0.00419593,-1.66595,-0.306942,-0.192218,161.447,0.194437,
2,0,0,1,0,14990.4,0.190744,0.190414,-22.2004,8,0.0183313,10,-0.00422727,-1.65364,-0.32222,-0.183105,158.506,0.190414,
2,0,0,1,0,14990.4,0.186735,0.186446,-22.8341,8,0.0182412,10,-0.00425733,-1.64142,-0.335206,-0.176011,156.689,0.186446,
2,0,0,1,0,14990.4,0.182704,0.182441,-23.4725,8,0.0181484,10,-0.00428235,-1.62944,-0.348022,-0.169529,154.942,0.182441,
2,0,0,1,0,14990.4,0.178709,0.178437,-24.0869,8,0.0180532,10,-0.004298,-1.61822,-0.361606,-0.163161,153.074,0.178437,
2,0,0,1,0,14990.4,0.174713,0.174408,-24.6804,8,0.0179556,10,-0.00430446,-1.60765,-0.369155,-0.159824,153.986,0.174408,
2,0,0,1,0,14990.4,0.170718,0.170427,-25.2863,8,0.0178556,10,-0.00430945,-1.59712,-0.370289,-0.159335,157.497,0.170427,
2,0,0,1,0,14990.5,0.166723,0.166396,-25.9432,8,0.0177531,10,-0.00431685,-1.58598,-0.360867,-0.163495,165.771,0.166396,
2,0,0,1,0,14990.5,0.162728,0.162413,-26.6107,8,0.017648,10,-0.00432192,-1.57494,-0.350457,-0.168352,175.186,0.162413,
2,0,0,1,0,14990.5,0.158733,0.158457,-27.3247,8,0.01754,10,-0.00432978,-1.56344,-0.340472,-0.173289,185.279,0.158457,
2,0,0,1,0,14990.5,0.154737,0.154422,-28.0901,8,0.0174291,10,-0.00433772,-1.55145,-0.323282,-0.182503,200.718,0.154422,
2,0,0,1,0,14990.5,0.150742,0.150424,-28.9025,8,0.0173151,10,-0.00434763,-1.53906,-0.302001,-0.195364,221.587,0.150424,
2,0,0,1,0,14990.5,0.146747,0.146467,-29.8114,8,0.0171976,10,-0.00436637,-1.52562,-0.286144,-0.20619,241.213,0.146467,
2,0,0,1,0,14990.5,0.142702,0.142444,-30.873,8,0.0170761,10,-0.00439766,-1.51042,-0.268893,-0.219418,265.264,0.142444,
2,0,0,1,0,14990.5,0.138707,0.138445,-31.944,8,0.0169504,10,-0.00442247,-1.49561,-0.255283,-0.231116,289.354,0.138445,
2,0,0,1,0,14990.5,0.134712,0.134415,-33.1491,8,0.0168201,10,-0.00445574,-1.47953,-0.24395,-0.241853,314.552,0.134415,
2,0,0,1,0,14990.5,0.130717,0.130397,-34.4611,8,0.0166848,10,-0.00449364,-1.46267,-0.230196,-0.256303,346.532,0.130397,
2,0,0,1,0,14990.5,0.126721,0.126447,-35.9047,8,0.016544,10,-0.00454005,-1.44485,-0.220804,-0.267205,376.223,0.126447,
2,0,0,1,0,14990.5,0.122726,0.122436,-37.4916,8,0.0163971,10,-0.00459031,-1.42607,-0.212877,-0.277156,406.892,0.122436,
2,0,0,1,0,14990.5,0.118731,0.118402,-39.1736,8,0.0162436,10,-0.00463824,-1.40701,-0.209681,-0.28138,431.056,0.118402,
2,0,0,1,0,14990.5,0.114736,0.114422,-40.9612,8,0.0160832,10,-0.00468688,-1.38763,-0.208426,-0.283075,452.915,0.114422,
2,0,0,1,0,14990.5,0.110741,0.110442,-42.8041,8,0.0159155,10,-0.00472735,-1.36852,-0.207694,-0.284072,475.143,0.110442,
2,0,0,1,0,14990.5,0.106745,0.106488,-44.7144,8,0.0157403,10,-0.00476156,-1.34955,-0.212418,-0.277754,484.806,0.106488,
2,0,0,1,0,14990.5,0.102703,0.102422,-46.7666,8,0.0155572,10,-0.00478991,-1.33006,-0.219898,-0.268306,487.99,0.102422,
2,0,0,1,0,14990.5,0.0987052,0.0984367,-48.7112,8,0.015366,10,-0.00479497,-1.31237,-0.229832,-0.25671,485.923,0.0984367,
2,0,0,1,0,14990.5,0.09471,0.0944231,-50.6209,8,0.0151672,10,-0.00477978,-1.29567,-0.246313,-0.239532,471.617,0.0944231,
2,0,0,1,0,14990.5,0.0907148,0.0904699,-52.4982,8,0.0149607,10,-0.0047495,-1.27986,-0.261905,-0.225273,459.74,0.0904699,
2,0,0,1,0,14990.5,0.0867197,0.0864011,-54.3222,8,0.0147469,10,-0.00469349,-1.26502,-0.280465,-0.210365,443.927,0.0864011,
2,0,0,1,0,14990.5,0.0827245,0.0824839,-56.0453,8,0.0145259,10,-0.00462284,-1.25146,-0.299434,-0.197038,429.518,0.08248394,
2,0,0,1,0,14990.5,0.0787293,0.0785286,-57.6769,8,0.0142984,10,-0.00452929,-1.239,-0.320392,-0.184149,413.487,0.07852862,
2,0,0,1,0,14990.5,0.0747341,0.0745097,-59.3534,8,0.0140641,10,-0.0044224,-1.22655,-0.345658,-0.170689,393.858,0.07450968,
2,0,0,1,0,14990.5,0.070739,0.0705628,-60.8711,8,0.0138235,10,-0.00429524,-1.21559,-0.37397,-0.157767,373.208,0.0705628,
2,0,0,1,0,14990.6,0.0667438,0.0665641,-62.3155,8,0.0135769,10,-0.00414797,-1.2054,-0.41147,-0.143388,347.437,0.0665641,
2,0,0,1,0,14990.6,0.0627403,0.062526,-63.6492,8,0.0133248,10,-0.00397973,-1.19621,-0.456593,-0.129218,319.692,0.062526,
2,0,0,1,0,14990.6,0.0587035,0.0585378,-64.9026,8,0.0130675,10,-0.00379926,-1.18774,-0.511136,-0.115429,291.128,0.0585378,
2,0,0,1,0,14990.6,0.0547083,0.0545666,-65.9849,8,0.0128056,10,-0.00360057,-1.18056,-0.573037,-0.10296,264.185,0.0545666,
2,0,0,1,0,14990.6,0.0507132,0.0505,-66.9922,8,0.0125395,10,-0.0033831,-1.17398,-0.658545,-0.0895915,233.442,0.0505,
2,0,0,1,0,14990.6,0.046718,0.0464736,-67.89,8,0.0122696,10,-0.00315509,-1.16819,-0.756167,-0.0780251,205.953,0.0464736,
2,0,0,1,0,14990.6,0.0427228,0.0424313,-68.6625,8,0.0119964,10,-0.00291344,-1.16328,-0.89059,-0.0662482,176.849,0.0424313,
2,0,0,1,0,14990.6,0.0387276,0.0384124,-69.312,8,0.0117204,10,-0.00266244,-1.15919,-1.07874,-0.0546933,147.421,0.0384124,
2,0,0,1,0,14990.6,0.0347325,0.0344539,-69.8299,8,0.011442,10,-0.00240591,-1.15596,-1.32661,-0.0444741,120.845,0.0344539,
2,0,0,1,0,14990.6,0.0307373,0.0304318,-70.2549,8,0.0111618,10,-0.00213798,-1.15332,-1.6723,-0.0352807,96.4908,0.0304318,
2,0,0,1,0,14990.6,0.0267421,0.0264446,-70.5944,8,0.01088,10,-0.00186684,-1.15123,-2.03467,-0.0289973,79.7481,0.0264446,
2,0,0,1,0,14990.6,0.022747,0.0224628,-70.8509,8,0.0105971,10,-0.00159151,-1.14965,-2.67242,-0.0220774,60.9516,0.0224628,
2,0,0,1,0,14990.6,0.0187018,0.0183739,-71.1122,8,0.0103131,10,-0.00130661,-1.14806,-3.76825,-0.0156571,43.3492,0.0183739,
2,0,0,1,0,14990.6,0.0147067,0.0144302,-71.2302,8,0.0100284,10,-0.00102787,-1.14734,-5.6995,-0.0103518,28.7168,0.0144302,
2,0,0,1,0,14990.6,0.0107115,0.0103615,-71.2916,8,0.00974333,10,-0.000738685,-1.14696,-14.2014,-0.00415451,11.5449,0.0103615,
2,0,0,1,0,14990.6,0.00671632,0.00638811,-71.3126,8,0.00945812,10,-0.000455552,-1.14683,-72.7748,-0.00081072,2.25429,0.00638811,
2,0,0,1,0,14990.6,0.00272115,0.00236387,-71.2971,8,0.00917292,10,-0.000168537,-1.14693,17.3822,0.00339428,-9.43388,0.00236387,
2,0,0,1,0,14990.6,-0.00127403,-0.00165295,-71.2665,8,0.00888771,10,0.0001178,-1.14711,7.77408,0.00758932,-21.0719,-0.001652953,
2,0,0,1,0,14990.6,-0.0052692,-0.00563584,-71.1407,8,0.0086029,10,0.000400938,-1.14788,4.95506,0.011907,-33.0086,-0.00563584,
2,0,0,1,0,14990.6,-0.00926438,-0.00962297,-70.9752,8,0.00831868,10,0.000682992,-1.14889,3.52473,0.0167389,-46.3136,-0.00962297,
2,0,0,1,0,14990.6,-0.0132596,-0.0136175,-70.7696,8,0.00803519,10,0.000963706,-1.15015,3.02166,0.0195257,-53.8812,-0.0136175,
2,0,0,1,0,14990.6,-0.0172547,-0.0176513,-70.5255,8,0.00775261,10,0.00124487,-1.15165,2.4811,0.0237798,-65.381,-0.0176513,
2,0,0,1,0,14990.6,-0.0212915,-0.0216766,-70.2764,8,0.00747107,10,0.00152335,-1.15319,2.04336,0.028874,-79.0333,-0.0216766,
2,0,0,1,0,14990.6,-0.025295,-0.0256521,-69.9272,8,0.00719066,10,0.00179378,-1.15535,1.73945,0.0339188,-92.3771,-0.0256521,
2,0,0,1,0,14990.6,-0.0292902,-0.0296063,-69.5059,8,0.00691185,10,0.00205782,-1.15798,1.49727,0.0394051,-106.756,-0.02960634,
2,0,0,1,0,14990.7,-0.0332854,-0.0336348,-69.049,8,0.00663477,10,0.00232245,-1.16084,1.33025,0.0443526,-119.38,-0.0336348,
2,0,0,1,0,14990.7,-0.0372805,-0.0376866,-68.5672,8,0.00635959,10,0.00258407,-1.16388,1.22575,0.0481337,-128.622,-0.0376866,
2,0,0,1,0,14990.7,-0.0412757,-0.0416398,-68.0186,8,0.00608647,10,0.00283228,-1.16737,1.13728,0.0518782,-137.562,-0.0416398,
2,0,0,1,0,14990.7,-0.0452709,-0.0456333,-67.4445,8,0.00581558,10,0.00307772,-1.17105,1.06479,0.0554099,-145.751,-0.0456333,
2,0,0,1,0,14990.7,-0.0492661,-0.0496205,-66.85,8,0.00554705,10,0.00331713,-1.1749,1.04225,0.0566085,-147.644,-0.0496205,
2,0,0,1,0,14990.7,-0.0532612,-0.0536097,-66.2464,8,0.00528091,10,0.00355145,-1.17884,1.02156,0.0577549,-149.31,-0.05360971,
2,0,0,1,0,14990.7,-0.0572564,-0.0576467,-65.6552,8,0.00501716,10,0.00378481,-1.18273,1.04558,0.056428,-144.65,-0.0576467,
2,0,0,1,0,14990.7,-0.0612544,-0.0616412,-65.0544,8,0.00475581,10,0.00401003,-1.18672,1.06322,0.0554916,-140.993,-0.0616412,
2,0,0,1,0,14990.7,-0.0652967,-0.0656474,-64.5317,8,0.00449658,10,0.00423634,-1.19023,1.08081,0.0545885,-137.514,-0.0656474,
2,0,0,1,0,14990.7,-0.0692919,-0.0697226,-63.9746,8,0.00423965,10,0.00446048,-1.19399,1.13722,0.0518811,-129.612,-0.0697226,
2,0,0,1,0,14990.7,-0.0732871,-0.0736641,-63.4526,8,0.00398486,10,0.00467418,-1.19755,1.18504,0.0497875,-123.458,-0.0736641,
2,0,0,1,0,14990.7,-0.0772822,-0.0776131,-62.9842,8,0.00373204,10,0.0048884,-1.20077,1.27197,0.0463846,-114.157,-0.0776131,
2,0,0,1,0,14990.7,-0.0812774,-0.0816564,-62.5553,8,0.00348102,10,0.00510804,-1.20374,1.42034,0.0415395,-101.546,-0.0816564,
2,0,0,1,0,14990.7,-0.0852726,-0.0856414,-62.1574,8,0.00323162,10,0.00532325,-1.20651,1.58388,0.0372504,-90.5056,-0.0856414,
2,0,0,1,0,14990.7,-0.0892678,-0.0896349,-61.8308,8,0.0029837,10,0.0055422,-1.20879,1.83138,0.0322161,-77.8643,-0.0896349,
2,0,0,1,0,14990.7,-0.0932629,-0.0936432,-61.5334,8,0.00273703,10,0.00576219,-1.21089,2.16556,0.0272447,-65.5329,-0.0936432,
2,0,0,1,0,14990.7,-0.0972581,-0.0976611,-61.3091,8,0.00249136,10,0.00598752,-1.21248,2.78558,0.0211805,-50.7731,-0.0976611,
2,0,0,1,0,14990.7,-0.101253,-0.101601,-61.1115,8,0.00224655,10,0.00620896,-1.21388,3.51549,0.0167829,-40.0926,-0.101601,
2,0,0,1,0,14990.7,-0.105298,-0.105653,-61.0175,8,0.00200231,10,0.00644671,-1.21455,4.56735,0.0129178,-30.7842,-0.105653,
2,0,0,1,0,14990.7,-0.109294,-0.109666,-60.891,8,0.00175852,10,0.00667767,-1.21545,6.83902,0.00862697,-20.5197,-0.109666,
2,0,0,1,0,14990.7,-0.113289,-0.113644,-60.8171,8,0.00151513,10,0.00691147,-1.21597,10.1494,0.00581317,-13.818,-0.113644,
2,0,0,1,0,14990.7,-0.117284,-0.117658,-60.782,8,0.00127193,10,0.00715151,-1.21622,33.3019,0.00177167,-4.20785,-0.117658,
2,0,0,1,0,14990.7,-0.121279,-0.121631,-60.7968,8,0.00102877,10,0.00739475,-1.21612,-38.2571,-0.0015422,3.66217,-0.121631,
2,0,0,1,0,14990.7,-0.125274,-0.125629,-60.8238,8,0.000785543,10,0.00764126,-1.21593,-11.261,-0.00523931,12.4486,-0.125629,
2,0,0,1,0,14990.7,-0.129269,-0.129632,-60.8756,8,0.000542134,10,0.00789146,-1.21556,-7.23045,-0.00815994,19.4106,-0.129632,
2,0,0,1,0,14990.8,-0.133265,-0.133622,-60.9808,8,0.000298417,10,0.00814835,-1.21481,-5.05881,-0.0116628,27.7855,-0.133622,
2,0,0,1,0,14990.8,-0.13726,-0.137643,-61.1076,8,5.42343e-05,10,0.00841101,-1.2139,-3.72842,-0.0158244,37.7814,-0.137643,
2,0,0,1,0,14990.8,-0.141255,-0.141578,-61.267,8,-0.00019054,10,0.00867405,-1.21277,-3.32645,-0.0177366,42.4462,-0.1415779,
2,0,0,1,0,14990.8,-0.145286,-0.145599,-61.4789,8,-0.00043599,10,0.00895126,-1.21127,-2.9419,-0.0200551,48.1283,-0.145599,
2,0,0,1,0,14990.8,-0.149295,-0.149655,-61.6613,8,-0.000682308,10,0.00922792,-1.20999,-2.75746,-0.0213965,51.5053,-0.149655,
2,0,0,1,0,14990.8,-0.15329,-0.153614,-61.8762,8,-0.000929405,10,0.00950502,-1.20848,-2.71116,-0.0217619,52.5707,-0.153614,
2,0,0,1,0,14990.8,-0.157286,-0.157657,-62.0951,8,-0.00117736,10,0.00978972,-1.20694,-2.48332,-0.0237585,57.5983,-0.157657,
2,0,0,1,0,14990.8,-0.161281,-0.161617,-62.321,8,-0.00142623,10,0.0100722,-1.20537,-2.42321,-0.0243478,59.2443,-0.161617,
2,0,0,1,0,14990.8,-0.165276,-0.165596,-62.5795,8,-0.00167606,10,0.0103629,-1.20357,-2.30383,-0.0256095,62.5578,-0.165596,
2,0,0,1,0,14990.8,-0.169271,-0.169581,-62.8222,8,-0.00192687,10,0.0106535,-1.20189,-2.18406,-0.0270139,66.2597,-0.169581,
2,0,0,1,0,14990.8,-0.173266,-0.173576,-63.091,8,-0.00217873,10,0.0109511,-1.20003,-2.13453,-0.0276408,68.092,-0.173576,
2,0,0,1,0,14990.8,-0.177261,-0.1776,-63.38,8,-0.0024317,10,0.0112563,-1.19805,-2.0446,-0.0288566,71.391,-0.1776,
2,0,0,1,0,14990.8,-0.181257,-0.181585,-63.6682,8,-0.00268584,10,0.0115612,-1.19608,-1.90789,-0.0309242,76.8838,-0.181585,
2,0,0,1,0,14990.8,-0.185252,-0.185594,-63.9654,8,-0.00294115,10,0.0118716,-1.19405,-1.89262,-0.0311737,77.8647,-0.185594,
2,0,0,1,0,14990.8,-0.189297,-0.189598,-64.3229,8,-0.00319781,10,0.0121955,-1.19163,-1.8367,-0.0321228,80.6262,-0.189598,
2,0,0,1,0,14990.8,-0.193292,-0.193611,-64.6267,8,-0.00345575,10,0.0125124,-1.18959,-1.79527,-0.0328641,82.8187,-0.193611,
2,0,0,1,0,14990.8,-0.197287,-0.197633,-64.9621,8,-0.00371496,10,0.0128387,-1.18734,-3.1435,-0.0187689,47.3048,-0.197633,
2,0,0,0,0,14990.8,-0.199984,-0.200284,-65.182,8,-0.00389064,10,0.0130549,-1.18587,0.0620232,0.951257,-2246.03,-0.200284,
2,0,0,0,1,14990.8,-0.199984,-0.200513,-64.8392,8,-0.00392959,10,0.0130011,-1.18816,-0.0361523,-1.63198,3600.02,-0.200513,
2,0,0,1,1,14990.8,-0.196688,-0.197206,-56.5526,8,-0.00411459,10,0.0111525,-1.24755,-0.0596998,-0.988279,2043.32,-0.197206,
2,0,0,1,1,14990.8,-0.192693,-0.193157,-48.8485,8,-0.00432418,10,0.00943543,-1.31115,-0.062395,-0.945589,1825.19,-0.193157,
2,0,0,1,1,14990.8,-0.188698,-0.189135,-42.4009,8,-0.00450579,10,0.0080195,-1.37262,-0.0642585,-0.918167,1538.6,-0.189135,
2,0,0,1,1,14990.8,-0.184653,-0.185111,-36.727,8,-0.00466331,10,0.00679855,-1.43502,-0.0630355,-0.935981,1349.6,-0.185111,
2,0,0,1,1,14990.8,-0.180657,-0.181057,-31.7059,8,-0.00479954,10,0.00574058,-1.49886,-0.0602977,-0.978479,1210.31,-0.181057,
2,0,0,1,1,14990.8,-0.176662,-0.177084,-27.1555,8,-0.00491674,10,0.00480879,-1.56614,-0.0562824,-1.04829,1102.28,-0.177084,
2,0,0,1,1,14990.8,-0.172667,-0.173074,-22.9623,8,-0.00501644,10,0.00397417,-1.63899,-0.0512746,-1.15067,1015.96,-0.1730741,
2,0,0,1,1,14990.9,-0.168672,-0.169095,-19.0736,8,-0.00510004,10,0.00322525,-1.71957,-0.0454753,-1.29741,942.292,-0.169095,
2,0,0,1,1,14990.9,-0.164677,-0.165073,-15.4674,8,-0.0051687,10,0.00255325,-1.81058,-0.0386138,-1.52795,884.116,-0.165073,
2,0,0,1,1,14990.9,-0.160682,-0.161083,-12.0783,8,-0.00522338,10,0.00194562,-1.91799,-0.0311147,-1.89621,828.913,-0.161083,
2,0,0,1,1,14990.9,-0.156686,-0.157152,-8.88536,8,-0.00526495,10,0.00139635,-2.05132,-0.0224125,-2.63246,781.609,-0.157152,
2,0,0,1,1,14990.9,-0.152691,-0.153162,-5.86594,8,-0.0052941,10,0.000898438,-2.23166,-0.00978581,-6.02914,737.874,-0.153162,
2,0,0,1,1,14990.9,-0.148696,-0.149131,-3.00684,8,-0.00531153,10,0.000448413,-2.52189,-0.0272674,-2.16376,699.173,-0.149131,
2,0,0,1,1,14990.9,-0.14467,-0.145094,-0.280628,8,-0.00531784,10,4.07175e-05,-3.55187,-0.176559,-0.334165,664.657,-0.1450942,
2,1,0,1,1,14990.9,-0.140656,-0.141153,2.30099,8,-0.00531347,10,-0.000324791,-2.63809,0.0428415,1.37717,632.264,-0.141153,
2,1,0,1,1,14990.9,-0.136661,-0.137172,4.76183,8,-0.00529907,10,-0.00065319,-2.32223,0.0104511,5.64535,604.684,-0.137172,
2,1,0,1,1,14990.9,-0.132665,-0.133148,7.09897,8,-0.00527508,10,-0.000945211,-2.1488,0.0228896,2.57759,574.518,-0.133148,
2,1,0,1,1,14990.9,-0.12867,-0.129186,9.33882,8,-0.00524194,10,-0.00120644,-2.02971,0.0352179,1.67528,549.696,-0.129186,
2,1,0,1,1,14990.9,-0.124675,-0.125174,11.4808,8,-0.00520007,10,-0.0014371,-1.94003,0.0466709,1.26417,532.186,-0.125174,
2,1,0,1,1,14990.9,-0.12068,-0.121165,13.5607,8,-0.00514975,10,-0.00164309,-1.86772,0.058636,1.00621,510.485,-0.121165,
2,1,0,1,1,14990.9,-0.116685,-0.117225,15.573,8,-0.00509124,10,-0.00182554,-1.80763,0.0705476,0.836315,492.213,-0.117225,
2,1,0,1,1,14990.9,-0.112689,-0.113177,17.5112,8,-0.00502487,10,-0.00198186,-1.75669,0.0829857,0.710966,473.782,-0.113177,
2,1,0,1,1,14990.9,-0.108694,-0.109158,19.3642,8,-0.00495091,10,-0.00211376,-1.713,0.0962086,0.613251,455.025,-0.109158,
2,1,0,1,1,14990.9,-0.104699,-0.105147,21.15,8,-0.00486968,10,-0.00222385,-1.67469,0.109576,0.53844,437.902,-0.105147,
2,1,0,1,1,14990.9,-0.100654,-0.101069,22.9241,8,-0.00478127,10,-0.00231692,-1.63971,0.123135,0.479148,422.468,-0.101069,
2,1,0,1,1,14990.9,-0.0966588,-0.0970716,24.5638,8,-0.00468611,10,-0.00238444,-1.60971,0.136832,0.431185,408.467,-0.0970716,
2,1,0,1,1,14990.9,-0.0926637,-0.0930706,26.1607,8,-0.00458448,10,-0.00243479,-1.58235,0.153156,0.385228,389.697,-0.0930706,
2,1,0,1,1,14990.9,-0.0886685,-0.0891355,27.69,8,-0.00447661,10,-0.00246816,-1.55768,0.167074,0.353137,378.632,-0.0891355,
2,1,0,1,1,14990.9,-0.0846733,-0.0850476,29.1677,8,-0.00436272,10,-0.00248064,-1.5351,0.183364,0.321764,363.763,-0.0850476,
2,1,0,1,1,14990.9,-0.0806781,-0.0811188,30.604,8,-0.00424303,10,-0.00248256,-1.51422,0.199647,0.295522,350.861,-0.0811188,
2,1,0,1,1,14990.9,-0.076683,-0.077103,31.9691,8,-0.00411773,10,-0.00246491,-1.49527,0.214962,0.274467,340.743,-0.077103,
2,1,0,1,1,14990.9,-0.0726878,-0.0730692,33.327,8,-0.00398698,10,-0.00243518,-1.4772,0.233125,0.253083,327.471,-0.0730692,
2,1,0,1,1,14991,-0.0686926,-0.0690789,34.6089,8,-0.00385097,10,-0.00239075,-1.46081,0.247253,0.238622,321.113,-0.06907893,
2,1,0,1,1,14991,-0.0646974,-0.0651183,35.8437,8,-0.00370991,10,-0.00233408,-1.44559,0.267515,0.220549,307.554,-0.0651183,
2,1,0,1,1,14991,-0.0606523,-0.0610559,37.122,8,-0.00356389,10,-0.00226652,-1.43037,0.285943,0.206335,297.449,-0.0610559,
2,1,0,1,1,14991,-0.0566571,-0.0570645,38.2493,8,-0.00341303,10,-0.00218268,-1.41738,0.306801,0.192307,285.904,-0.0570645,
2,1,0,1,1,14991,-0.052662,-0.0530731,39.3698,8,-0.00325765,10,-0.00208948,-1.40484,0.333182,0.17708,271.216,-0.0530731,
2,1,0,1,1,14991,-0.0486668,-0.049051,40.4374,8,-0.00309794,10,-0.0019835,-1.39322,0.353775,0.166773,262.347,-0.049051,
2,1,0,1,1,14991,-0.0446716,-0.0451105,41.4467,8,-0.00293404,10,-0.00186968,-1.38251,0.37965,0.155406,250.742,-0.0451105,
2,1,0,1,1,14991,-0.0406764,-0.0410969,42.4384,8,-0.00276616,10,-0.00174409,-1.37224,0.403272,0.146303,241.722,-0.0410969,
2,1,0,1,1,14991,-0.0366813,-0.0370811,43.3797,8,-0.00259442,10,-0.00160857,-1.36271,0.429381,0.137407,232.077,-0.0370811,
2,1,0,1,1,14991,-0.0326861,-0.0331089,44.291,8,-0.00241895,10,-0.00146642,-1.35368,0.46009,0.128236,221.117,-0.0331089,
2,1,0,1,1,14991,-0.0286909,-0.0291069,45.1607,8,-0.00223996,10,-0.00131449,-1.34524,0.486341,0.121314,213.361,-0.0291069,
2,1,0,1,1,14991,-0.0246957,-0.0251092,45.9736,8,-0.0020576,10,-0.00115436,-1.33749,0.521624,0.113108,202.606,-0.0251092,
2,1,0,1,1,14991,-0.0206756,-0.0210796,46.7938,8,-0.00187201,10,-0.000986395,-1.32981,0.559201,0.105508,192.222,-0.0210796,
2,1,0,1,1,14991,-0.0166554,-0.0170564,47.5433,8,-0.00168322,10,-0.000810918,-1.32291,0.595848,0.0990186,183.279,-0.0170564,
2,1,0,1,1,14991,-0.0126603,-0.0130958,48.2384,8,-0.00149156,10,-0.000631721,-1.31661,0.651366,0.0905789,170.189,-0.0130958,
2,1,0,1,1,14991,-0.0086651,-0.0090758,48.9121,8,-0.00129717,10,-0.000443917,-1.31058,0.697298,0.0846123,161.123,-0.0090758,
2,1,0,1,1,14991,-0.00466992,-0.00506216,49.5198,8,-0.00110023,10,-0.000250677,-1.30522, , , ,-0.00506216,
2,1,0,1,1,14991,-0.000974387,-0.00140535,50.065,8,-0.000915953,10,-7.03588e-05,-1.30047, , , ,-0.00140535,
2,1,0,0,1,14991,-0.000175352,-0.000478022,50.1688,8,-0.000875873,10,-2.39818e-05,-1.29957, , , ,-0.000478022,