File: Figure_codes/Fig_3-5/rawdata_trumpetplot_data/after 10th/20221101_1-115_003_TrumpetPlot_ParaChange_from10_every3_05_CV_C01_32.csv
mode,ox/red,error,control changes,counter inc.,time/s,control/V,Ewe/V,<I>/mA,cycle number,(Q-Qo)/C,I Range,P/W,log(|I|),Tafel slope mV/dec,alpha_eff,dI/d(E-IR),E-IR/V,
2,0,0,1,0,64164.2,2.44065e-05,-0.000306236,-0.735426,33,0.0000000E+000,10,2.25214e-07,-3.13346, , , ,-0.000306236,
2,0,0,1,0,64164.3,0.00129787,0.000921686,-0.035506,33,-1.82073e-05,10,-3.27254e-08,-4.4497, , , ,0.000921686,
2,1,0,1,0,64164.3,0.00279606,0.00249006,0.304231,33,-5.27112e-06,10,7.57551e-07,-3.5168,0.011771,5.01231,174.549,0.00249006,
2,1,0,1,0,64164.4,0.00429425,0.00395125,0.459,33,2.5127e-05,10,1.81362e-06,-3.33819,0.00964346,6.11813,88.3985,0.00395125,
2,1,0,1,0,64164.5,0.00579244,0.00545694,0.55113,33,6.45049e-05,10,3.00748e-06,-3.25875,0.021908,2.69308,54.3268,0.00545694,
2,1,0,1,0,64164.6,0.00729063,0.00694069,0.614857,33,0.000109446,10,4.26754e-06,-3.21123,0.0368297,1.60197,37.4649,0.00694069,
2,1,0,1,0,64164.6,0.00878882,0.00846635,0.663071,33,0.000158637,10,5.61379e-06,-3.17844,0.0523704,1.12659,28.6719,0.00846635,
2,1,0,1,0,64164.7,0.010287,0.00994762,0.700933,33,0.000211011,10,6.97262e-06,-3.15432,0.0721283,0.817987,22.1332,0.00994762,
2,1,0,1,0,64164.8,0.0117852,0.0114623,0.731617,33,0.000265886,10,8.386e-06,-3.13572,0.0871334,0.677123,19.2257,0.0114623,
2,1,0,1,0,64164.9,0.0132847,0.0129444,0.757794,33,0.000322897,10,9.80917e-06,-3.12045,0.0969217,0.608739,18.0251,0.0129444,
2,1,0,1,0,64164.9,0.0147802,0.01448,0.782823,33,0.000381785,10,1.13353e-05,-3.10634,0.107422,0.549234,16.7772,0.01448,
2,1,0,1,0,64165,0.0162798,0.0159532,0.806809,33,0.000442733,10,1.28712e-05,-3.09323,0.13849,0.426024,13.3572,0.0159532,
2,1,0,1,0,64165.1,0.017778,0.0174185,0.827897,33,0.000505169,10,1.44208e-05,-3.08202,0.152622,0.386577,12.4694,0.0174185,
2,1,0,1,0,64165.2,0.0192761,0.0189506,0.845152,33,0.000568861,10,1.60161e-05,-3.07307,0.15622,0.377673,12.4606,0.0189506,
2,1,0,1,0,64165.2,0.0207743,0.0203855,0.864614,33,0.000634054,10,1.76256e-05,-3.06318,0.151549,0.389313,13.1145,0.0203855,
2,1,0,1,0,64165.3,0.0222725,0.0219485,0.88411,33,0.000700744,10,1.94049e-05,-3.05349,0.15987,0.36905,12.7074,0.0219485,
2,1,0,1,0,64165.4,0.0237707,0.0234538,0.901996,33,0.000768827,10,2.11553e-05,-3.0448,0.174844,0.337444,11.8767,0.0234538,
2,1,0,1,0,64165.5,0.0252689,0.0249307,0.917807,33,0.000838129,10,2.28816e-05,-3.03725,0.178587,0.330371,11.8561,0.0249307,
2,1,0,1,0,64165.5,0.0267671,0.0264295,0.936126,33,0.000908761,10,2.47414e-05,-3.02867,0.176085,0.335065,12.2273,0.0264295,
2,1,0,1,0,64165.6,0.0282653,0.027912,0.955558,33,0.000980798,10,2.66715e-05,-3.01974,0.17949,0.328709,12.2427,0.027912,
2,1,0,1,0,64165.7,0.0297644,0.0294828,0.974068,33,0.00105428,10,2.87182e-05,-3.01141,0.198992,0.296495,11.2271,0.0294828,
2,1,0,1,0,64165.8,0.0312599,0.0309094,0.986261,33,0.00112886,10,3.04847e-05,-3.00601,0.188428,0.313116,12.0831,0.0309094,
2,1,0,1,0,64165.8,0.0327599,0.032437,1.00694,33,0.00120478,10,3.2662e-05,-2.997,0.190205,0.310192,12.1904,0.032437,
2,1,0,1,0,64165.9,0.034258,0.0339481,1.02684,33,0.00128212,10,3.48594e-05,-2.9885,0.194254,0.303726,12.1298,0.0339481,
2,1,0,1,0,64166,0.0357562,0.0354325,1.04312,33,0.00136078,10,3.69603e-05,-2.98167,0.225354,0.26181,10.6499,0.0354325,
2,1,0,1,0,64166.1,0.0372544,0.0369347,1.05961,33,0.00144069,10,3.91363e-05,-2.97485,0.229105,0.257524,10.6553,0.0369347,
2,1,0,1,0,64166.1,0.0387526,0.0383957,1.07831,33,0.00152175,10,4.14026e-05,-2.96725,0.216539,0.272468,11.4727,0.0383957,
2,1,0,1,0,64166.2,0.0402508,0.0399223,1.09334,33,0.00160427,10,4.36488e-05,-2.96124,0.206033,0.286362,12.2296,0.0399223,
2,1,0,1,0,64166.3,0.041749,0.0413857,1.11492,33,0.0016882,10,4.61418e-05,-2.95276,0.22544,0.261711,11.3586,0.0413857,
2,1,0,1,0,64166.4,0.0432472,0.0429437,1.13369,33,0.0017734,10,4.86846e-05,-2.94551,0.242576,0.243223,10.7233,0.0429437,
2,1,0,1,0,64166.4,0.0447449,0.04439,1.14608,33,0.00185977,10,5.08744e-05,-2.94079,0.240646,0.245173,10.9656,0.04439,
2,1,0,1,0,64166.5,0.0462445,0.0458739,1.1652,33,0.0019476,10,5.34524e-05,-2.9336,0.221929,0.26585,12.0628,0.0458739,
2,1,0,1,0,64166.6,0.04774,0.0473712,1.18122,33,0.00203646,10,5.59558e-05,-2.92767,0.225913,0.261163,12.0295,0.0473712,
2,1,0,1,0,64166.7,0.0492399,0.0488793,1.19725,33,0.00212678,10,5.85209e-05,-2.92181,0.257288,0.229315,10.7036,0.04887931,
2,1,0,1,0,64166.7,0.0507381,0.0504056,1.21136,33,0.00221815,10,6.10594e-05,-2.91673,0.248356,0.237562,11.2392,0.0504056,
2,1,0,1,0,64166.8,0.0522363,0.0519147,1.22809,33,0.00231071,10,6.37561e-05,-2.91077,0.244733,0.241079,11.5511,0.0519147,
2,1,0,1,0,64166.9,0.0537345,0.0533825,1.24752,33,0.00240466,10,6.65958e-05,-2.90395,0.256462,0.230054,11.1827,0.0533825,
2,1,0,1,0,64167,0.0552327,0.0549231,1.26279,33,0.00249976,10,6.93565e-05,-2.89867,0.313571,0.188155,9.25924,0.0549231,
2,1,0,1,0,64167,0.0567309,0.0564255,1.27409,33,0.00259599,10,7.18912e-05,-2.8948,0.286086,0.206232,10.2726,0.0564255,
2,1,0,1,0,64167.1,0.0582291,0.0578686,1.29039,33,0.00269321,10,7.46729e-05,-2.88928,0.30521,0.193309,9.7439,0.0578686,
2,1,0,1,0,64167.2,0.0597291,0.0594147,1.30546,33,0.00279173,10,7.75632e-05,-2.88424,0.313579,0.18815,9.58435,0.0594147,
2,1,0,1,0,64167.2,0.0612246,0.0609132,1.3185,33,0.00289106,10,8.03143e-05,-2.87992,0.330693,0.178413,9.18183,0.0609132,
2,1,0,1,0,64167.3,0.0627241,0.0623803,1.33202,33,0.00299173,10,8.30916e-05,-2.87549,0.348326,0.169381,8.81552,0.0623803,
2,1,0,1,0,64167.4,0.0642218,0.063964,1.34644,33,0.00309318,10,8.61239e-05,-2.87081,0.336365,0.175405,9.22261,0.063964,
2,1,0,1,0,64167.5,0.06572,0.0653988,1.36154,33,0.00319573,10,8.9043e-05,-2.86597,0.332238,0.177584,9.42652,0.0653988,
2,1,0,1,0,64167.5,0.0672182,0.0669033,1.37619,33,0.00329939,10,9.2072e-05,-2.86132,0.35302,0.167129,8.94589,0.0669033,
2,1,0,1,0,64167.6,0.0687164,0.0684029,1.38718,33,0.00340395,10,9.4887e-05,-2.85787,0.441912,0.133511,7.21711,0.0684029,
2,1,0,1,0,64167.7,0.0702146,0.069874,1.39459,33,0.00350931,10,9.74454e-05,-2.85555,0.403883,0.146082,7.96012,0.069874,
2,1,0,1,0,64167.8,0.0717128,0.0713825,1.40901,33,0.0036155,10,0.000100578,-2.85109,0.421684,0.139915,7.68575,0.0713825,
2,1,0,1,0,64167.8,0.073211,0.072881,1.41978,33,0.00372258,10,0.000103475,-2.84778,0.464922,0.126903,7.02588,0.072881,
2,1,0,1,0,64167.9,0.0747092,0.0743656,1.42991,33,0.00383048,10,0.000106336,-2.84469,0.542901,0.108675,6.05774,0.0743656,
2,1,0,1,0,64168,0.0762087,0.0758534,1.43625,33,0.00393922,10,0.000108945,-2.84277,0.494951,0.119204,6.69565,0.0758534,
2,1,0,1,0,64168.1,0.0777042,0.0773802,1.44983,33,0.0040483,10,0.000112188,-2.83868,0.460041,0.12825,7.25683,0.0773802,
2,1,0,1,0,64168.1,0.0792037,0.0788656,1.4612,33,0.00415851,10,0.000115238,-2.83529,0.459209,0.128482,7.31209,0.0788656,
2,1,0,1,0,64168.2,0.0807019,0.0804126,1.4691,33,0.00426949,10,0.000118134,-2.83295,0.592925,0.0995067,5.69127,0.0804126,
2,1,0,1,0,64168.3,0.0822001,0.0818744,1.47797,33,0.00438107,10,0.000121008,-2.83033,0.683298,0.086346,4.98171,0.0818744,
2,1,0,1,0,64168.4,0.0836983,0.0833872,1.48664,33,0.00449315,10,0.000123966,-2.8278,0.519099,0.113659,6.59824,0.0833872,
2,1,0,1,0,64168.4,0.0851965,0.0848156,1.49812,33,0.00460606,10,0.000127064,-2.82445,0.485879,0.121429,7.10309,0.0848156,
2,1,0,1,0,64168.5,0.0866947,0.0863421,1.507,33,0.00471979,10,0.000130117,-2.82189,0.575706,0.102483,6.02696,0.0863421,
2,1,0,1,0,64168.6,0.0881929,0.0878582,1.51942,33,0.00483434,10,0.000133494,-2.81832,0.529433,0.11144,6.6045,0.0878582,
2,1,0,1,0,64168.7,0.0896911,0.0893933,1.52909,33,0.00494953,10,0.00013669,-2.81557,0.406163,0.145262,8.69211,0.0893933,
2,1,0,1,0,64168.7,0.0911893,0.0908324,1.54325,33,0.00506567,10,0.000140177,-2.81156,0.332289,0.177556,10.6972,0.0908324,
2,1,0,1,0,64168.8,0.0926884,0.0923346,1.55885,33,0.00518328,10,0.000143936,-2.80719,0.340317,0.173368,10.5502,0.0923346,
2,1,0,1,0,64168.9,0.0941839,0.0938399,1.57499,33,0.00530172,10,0.000147797,-2.80272,0.338156,0.174475,10.735,0.0938399,
2,1,0,1,0,64169,0.0956838,0.0953423,1.5912,33,0.00542153,10,0.000151709,-2.79827,0.28868,0.204379,12.7252,0.0953423,
2,1,0,1,0,64169,0.097182,0.0968651,1.61354,33,0.00554269,10,0.000156296,-2.79222,0.239932,0.245903,15.4762,0.0968651,
2,1,0,1,0,64169.1,0.0986802,0.0983711,1.63622,33,0.00566553,10,0.000160957,-2.78616,0.241282,0.244527,15.6099,0.0983711,
2,1,0,1,0,64169.2,0.100178,0.0998279,1.66037,33,0.00579015,10,0.000165752,-2.77979,0.237456,0.248467,16.1001,0.0998279,
2,1,0,1,0,64169.3,0.101677,0.101344,1.68304,33,0.00591655,10,0.000170565,-2.77391,0.220807,0.267202,17.5965,0.101344,
2,1,0,1,0,64169.3,0.103175,0.102825,1.71269,33,0.00604482,10,0.000176106,-2.76632,0.211698,0.278699,18.6431,0.102825,
2,1,0,1,0,64169.4,0.104673,0.10434,1.74392,33,0.00617539,10,0.00018196,-2.75847,0.198628,0.297038,20.1745,0.10434,
2,1,0,1,0,64169.5,0.106171,0.105812,1.77462,33,0.0063083,10,0.000187776,-2.75089,0.205347,0.287319,19.8412,0.105812,
2,1,0,1,0,64169.6,0.107669,0.107373,1.80067,33,0.00644331,10,0.000193343,-2.74457,0.218846,0.269596,18.9533,0.107373,
2,1,0,1,0,64169.6,0.109168,0.108793,1.82946,33,0.0065805,10,0.000199032,-2.73768,0.216705,0.27226,19.4555,0.108793,
2,1,0,1,0,64169.7,0.110664,0.110337,1.85784,33,0.00671969,10,0.000204989,-2.73099,0.22091,0.267077,19.3655,0.110337,
2,1,0,1,0,64169.8,0.112164,0.111812,1.88647,33,0.00686147,10,0.000210931,-2.72435,0.243044,0.242755,17.8716,0.1118125,
2,1,0,1,0,64169.9,0.113662,0.113309,1.91591,33,0.00700509,10,0.00021709,-2.71762,0.268949,0.219373,16.3587,0.113309,
2,1,0,1,0,64169.9,0.11516,0.114806,1.93534,33,0.00715043,10,0.000222189,-2.71324,0.296394,0.199059,15.034,0.114806,
2,1,0,1,0,64170,0.116658,0.116332,1.95983,33,0.00729754,10,0.000227991,-2.70778,0.293532,0.201,15.3469,0.1163323,
2,1,0,1,0,64170.1,0.118157,0.117876,1.98255,33,0.00744639,10,0.000233696,-2.70278,0.351114,0.168036,12.9673,0.117876,
2,1,0,1,0,64170.2,0.119655,0.119337,2.00112,33,0.0075966,10,0.000238808,-2.69873,0.499805,0.118046,9.19423,0.119337,
2,1,0,1,0,64170.2,0.121153,0.120824,2.00976,33,0.00774788,10,0.000242827,-2.69686,0.510259,0.115628,9.06889,0.120824,
2,1,0,1,0,64170.3,0.122653,0.122331,2.02347,33,0.00790025,10,0.000247533,-2.6939,0.550709,0.107135,8.45134,0.122331,
2,1,0,1,0,64170.4,0.124149,0.123795,2.03486,33,0.00805322,10,0.000251906,-2.69147,0.665718,0.0886261,7.03033,0.123795,
2,1,0,1,0,64170.5,0.125648,0.12534,2.04426,33,0.0082073,10,0.000256228,-2.68946,0.965216,0.0611262,4.87049,0.1253401,
2,1,0,1,0,64170.5,0.127146,0.126783,2.04669,33,0.00836172,10,0.000259486,-2.68895,1.10204,0.053537,4.28328,0.126783,
2,1,0,1,0,64170.6,0.128644,0.12834,2.05731,33,0.00851663,10,0.000264036,-2.6867,1.07397,0.0549366,4.40738,0.12834,
2,1,0,1,0,64170.7,0.130142,0.129834,2.0651,33,0.00867214,10,0.000268121,-2.68506,1.43142,0.0412178,3.31562,0.129834,
2,1,0,1,0,64170.8,0.13164,0.131258,2.06662,33,0.00882806,10,0.000271261,-2.68474,4.62668,0.0127521,1.02708,0.131258,
2,1,0,1,0,64170.8,0.133139,0.132828,2.0688,33,0.00898419,10,0.000274795,-2.68428,-25.7234,-0.00229363,-0.185063,0.132828,
2,1,0,1,0,64170.9,0.134637,0.134285,2.06671,33,0.00914013,10,0.000277528,-2.68472,-1.74976,-0.0337188,-2.7178,0.134285,
2,1,0,1,0,64171,0.136135,0.135788,2.06387,33,0.00929598,10,0.00028025,-2.68532,-1.1136,-0.0529812,-4.25029,0.135788,
2,1,0,1,0,64171.1,0.137633,0.137297,2.05498,33,0.00945126,10,0.000282143,-2.68719,-0.501866,-0.117561,-9.38629,0.1372973,
2,1,0,1,0,64171.1,0.139133,0.138815,2.03637,33,0.00960572,10,0.000282679,-2.69114,-0.316049,-0.18668,-14.7691,0.138815,
2,1,0,1,0,64171.2,0.140628,0.140275,2.00807,33,0.00975807,10,0.000281682,-2.69722,-0.244187,-0.241618,-18.8893,0.140275,
2,1,0,1,0,64171.3,0.142128,0.14182,1.97667,33,0.00990872,10,0.000280332,-2.70406,-0.192249,-0.306894,-23.5738,0.14182,
2,1,0,1,0,64171.4,0.143626,0.143331,1.93717,33,0.0100565,10,0.000277655,-2.71283,-0.147573,-0.399802,-30.1006,0.1433308,
2,1,0,1,0,64171.4,0.145124,0.144821,1.88465,33,0.0102009,10,0.000272937,-2.72477,-0.119356,-0.494321,-36.2556,0.1448212,
2,1,0,1,0,64171.5,0.146622,0.14626,1.82604,33,0.0103411,10,0.000267077,-2.73849,-0.104732,-0.563341,-40.0917,0.1462602,
2,1,0,1,0,64171.6,0.14812,0.14781,1.76604,33,0.0104768,10,0.000261039,-2.753,-0.0948999,-0.621708,-42.71,0.14781,
2,1,0,1,0,64171.7,0.149619,0.149311,1.70089,33,0.0106077,10,0.00025396,-2.76932,-0.0862086,-0.684386,-45.3443,0.149311,
2,1,0,1,0,64171.7,0.151117,0.15079,1.63516,33,0.0107337,10,0.000246565,-2.78644,-0.0829775,-0.711036,-45.2237,0.15079,
2,1,0,1,0,64171.8,0.152615,0.152261,1.56314,33,0.0108545,10,0.000238004,-2.806,-0.0828473,-0.712154,-43.4898,0.152261,
2,1,0,1,0,64171.9,0.154113,0.153784,1.50252,33,0.0109704,10,0.000231064,-2.82318,-0.0840362,-0.702078,-41.2174,0.1537839,
2,1,0,1,0,64172,0.155613,0.155256,1.44151,33,0.0110817,10,0.000223802,-2.84118,-0.0893055,-0.660654,-37.223,0.155256,
2,1,0,1,0,64172,0.157108,0.15675,1.38416,33,0.0111886,10,0.000216967,-2.85881,-0.0893039,-0.660665,-35.7564,0.15675,
2,1,0,1,0,64172.1,0.158608,0.158283,1.3348,33,0.0112917,10,0.000211276,-2.87458,-0.0954953,-0.617832,-32.277,0.158283,
2,1,0,1,0,64172.2,0.160106,0.159762,1.28814,33,0.0113909,10,0.000205796,-2.89004,-0.104496,-0.564613,-28.4593,0.159762,
2,1,0,1,0,64172.3,0.161604,0.161309,1.24853,33,0.011487,10,0.000201399,-2.9036,-0.112502,-0.524435,-25.6168,0.161309,
2,1,0,1,0,64172.3,0.163102,0.162787,1.21313,33,0.0115802,10,0.000197483,-2.91609,-0.124629,-0.473405,-22.4445,0.162787,
2,1,0,1,0,64172.4,0.164601,0.164248,1.17986,33,0.0116709,10,0.000193791,-2.92817,-0.134587,-0.438377,-20.2379,0.164248,
2,1,0,1,0,64172.5,0.166099,0.165734,1.15117,33,0.0117592,10,0.000190788,-2.93886,-0.153809,-0.383594,-17.2966,0.165734,
2,1,0,1,0,64172.6,0.167597,0.167224,1.12945,33,0.0118457,10,0.000188871,-2.94713,-0.183503,-0.32152,-14.1857,0.167224,
2,1,0,1,0,64172.6,0.169095,0.168784,1.10848,33,0.0119306,10,0.000187093,-2.95527,-0.201621,-0.292628,-12.6808,0.168784,
2,1,0,1,0,64172.7,0.170593,0.170286,1.08954,33,0.0120141,10,0.000185533,-2.96276,-0.20365,-0.289712,-12.3419,0.170286,
2,1,0,1,0,64172.8,0.172092,0.171761,1.07107,33,0.0120962,10,0.000183968,-2.97018,-0.232171,-0.254123,-10.6639,0.171761,
2,1,0,1,0,64172.9,0.173588,0.173286,1.05651,33,0.0121769,10,0.000183078,-2.97613,-0.273114,-0.216027,-8.92854,0.173286,
2,1,0,1,0,64172.9,0.175088,0.174752,1.04637,33,0.0122569,10,0.000182854,-2.98032,-0.311148,-0.189621,-7.73619,0.174752,
2,1,0,1,0,64173,0.176586,0.17623,1.03496,33,0.0123359,10,0.000182392,-2.98507,-0.313665,-0.188099,-7.5832,0.17623,
2,1,0,1,0,64173.1,0.178084,0.17773,1.02349,33,0.0124141,10,0.000181905,-2.98992,-0.354099,-0.16662,-6.67226,0.17773,
2,1,0,1,0,64173.2,0.179582,0.179228,1.01465,33,0.0124914,10,0.000181855,-2.99368,-0.404097,-0.146004,-5.79456,0.179228,
2,1,0,1,0,64173.2,0.181081,0.180779,1.00826,33,0.0125683,10,0.000182271,-2.99643,-0.48238,-0.12231,-4.81531,0.180779,
2,1,0,1,0,64173.3,0.182579,0.182245,1.00066,33,0.0126446,10,0.000182366,-2.99971,-0.455394,-0.129558,-5.05709,0.182245,
2,1,0,1,0,64173.4,0.184077,0.183757,0.995473,33,0.0127204,10,0.000182925,-3.00197,-0.467247,-0.126272,-4.90143,0.183757,
2,1,0,1,0,64173.5,0.185577,0.185295,0.987665,33,0.0127957,10,0.000183009,-3.00539,-0.510324,-0.115613,-4.46129,0.185295,
2,1,0,1,0,64173.5,0.187073,0.186728,0.983092,33,0.0128705,10,0.000183571,-3.00741,-0.751047,-0.078557,-3.00337,0.186728,
2,1,0,1,0,64173.6,0.188572,0.188259,0.978424,33,0.012945,10,0.000184197,-3.00947,-0.687629,-0.0858021,-3.2693,0.188259,
2,1,0,1,0,64173.7,0.19007,0.189747,0.971604,33,0.0130192,10,0.000184359,-3.01251,-0.818058,-0.072122,-2.73556,0.189747,
2,1,0,1,0,64173.8,0.191568,0.191237,0.966272,33,0.0130928,10,0.000184787,-3.0149,-1.05819,-0.0557556,-2.10698,0.191237,
2,1,0,1,0,64173.8,0.193066,0.192712,0.962466,33,0.0131663,10,0.000185479,-3.01661,-1.60205,-0.0368277,-1.38378,0.192712,
2,1,0,1,0,64173.9,0.194564,0.194239,0.963174,33,0.0132396,10,0.000187086,-3.0163,-0.819707,-0.071977,-2.70279,0.1942392,
2,1,0,1,0,64174,0.196063,0.195713,0.957017,33,0.0133126,10,0.000187301,-3.01908,-0.769764,-0.0766469,-2.86437,0.195713,
2,1,0,1,0,64174.1,0.197561,0.197202,0.952944,33,0.0133853,10,0.000187922,-3.02093,-0.895349,-0.0658961,-2.45666,0.197202,
2,1,0,1,0,64174.1,0.199059,0.198731,0.951176,33,0.0134577,10,0.000189028,-3.02174,-0.980477,-0.0601748,-2.23564,0.198731,
2,1,0,1,0,64174.2,0.200557,0.200226,0.949511,33,0.01353,10,0.000190117,-3.0225,-1.38086,-0.042727,-1.58206,0.200226,
2,1,0,1,0,64174.3,0.202057,0.201739,0.948187,33,0.0136022,10,0.000191287,-3.02311,-1.09099,-0.0540793,-1.99621,0.201739,
2,1,0,1,0,64174.4,0.203552,0.203183,0.942861,33,0.013674,10,0.000191573,-3.02555,-1.9486,-0.0302781,-1.11552,0.203183,
2,1,0,1,0,64174.4,0.205052,0.204741,0.941575,33,0.0137457,10,0.000192779,-3.02614,-4.3901,-0.0134393,-0.49552,0.204741,
2,1,0,1,0,64174.5,0.20655,0.206233,0.941119,33,0.0138173,10,0.000194089,-3.02636,-2.16441,-0.0272592,-0.999623,0.206233,
2,1,0,1,0,64174.6,0.208048,0.207706,0.939043,33,0.0138889,10,0.000195045,-3.02731,-1.35493,-0.0435446,-1.59291,0.207706,
2,1,0,1,0,64174.7,0.209546,0.209179,0.935602,33,0.0139602,10,0.000195708,-3.02891,-0.961205,-0.0613813,-2.24464,0.209179,
2,1,0,1,0,64174.7,0.211044,0.210681,0.933649,33,0.0140313,10,0.000196702,-3.02982,-1.78974,-0.0329656,-1.20187,0.210681,
2,1,0,1,0,64174.8,0.212543,0.212207,0.933116,33,0.0141023,10,0.000198013,-3.03006,-2.39921,-0.0245915,-0.894429,0.212207,
2,1,0,1,0,64174.9,0.214041,0.213705,0.932579,33,0.0141732,10,0.000199297,-3.03031,-1.9601,-0.0301005,-1.09432,0.213705,
2,1,0,1,0,64175,0.215539,0.215197,0.9274,33,0.014244,10,0.000199574,-3.03273,-2.15136,-0.0274245,-0.996181,0.215197,
2,1,0,1,0,64175,0.217037,0.21672,0.927927,33,0.0143145,10,0.000201101,-3.03249,-2.14513,-0.0275042,-0.997802,0.21672,
2,1,0,1,0,64175.1,0.218536,0.218202,0.925548,33,0.0143851,10,0.000201957,-3.0336,-67.0558,-0.000879864,-0.031808,0.218202,
2,1,0,1,0,64175.2,0.220032,0.219724,0.927888,33,0.0144554,10,0.000203879,-3.0325,-4.15077,-0.0142142,-0.513443,0.219724,
2,1,0,1,0,64175.3,0.221532,0.221199,0.923546,33,0.0145259,10,0.000204287,-3.03454,-2.12059,-0.0278225,-1.0028,0.221199,
2,1,0,1,0,64175.3,0.22303,0.222655,0.917527,33,0.0145961,10,0.000204292,-3.03738,-1.30596,-0.0451773,-1.62794,0.222655,
2,1,0,1,0,64175.4,0.224528,0.224232,0.921005,33,0.0146662,10,0.000206519,-3.03574,-1.86024,-0.0317163,-1.14006,0.224232,
2,1,0,1,0,64175.5,0.226026,0.225715,0.921129,33,0.0147362,10,0.000207913,-3.03568,-6.02707,-0.00978917,-0.351093,0.225715,
2,1,0,1,0,64175.6,0.227525,0.227185,0.918742,33,0.0148062,10,0.000208724,-3.03681,-1.26384,-0.046683,-1.67154,0.227185,
2,1,0,1,0,64175.6,0.229023,0.228684,0.916776,33,0.014876,10,0.000209652,-3.03774,-1.63921,-0.035993,-1.2873,0.228684,
2,1,0,1,0,64175.7,0.230521,0.230207,0.915542,33,0.0149458,10,0.000210765,-3.03832,-3.74327,-0.0157616,-0.564443,0.230207,
2,1,0,1,0,64175.8,0.232019,0.231681,0.915653,33,0.0150154,10,0.00021214,-3.03827,-4.07072,-0.0144938,-0.518986,0.231681,
2,1,0,1,0,64175.9,0.233517,0.233189,0.913781,33,0.0150851,10,0.000213084,-3.03916,-1.84817,-0.0319235,-1.13794,0.233189,
2,1,0,1,0,64175.9,0.235016,0.234697,0.914452,33,0.0151548,10,0.000214619,-3.03884,-2.60543,-0.0226451,-0.807389,0.234697,
2,1,0,1,0,64176,0.236512,0.236182,0.91191,33,0.015224,10,0.000215377,-3.04005,-3.04572,-0.0193714,-0.689415,0.236182,
2,1,0,1,0,64176.1,0.238012,0.237697,0.912119,33,0.0152935,10,0.000216807,-3.03995,26.0437,0.00226543,0.0804837,0.2376965,
2,1,0,1,0,64176.2,0.23951,0.239204,0.910207,33,0.0153628,10,0.000217726,-3.04086,-10.212,-0.00577749,-0.205317,0.239204,
2,1,0,1,0,64176.2,0.241008,0.240696,0.90976,33,0.015432,10,0.000218975,-3.04107,-3.25274,-0.0181386,-0.644458,0.240696,
2,1,0,1,0,64176.3,0.242506,0.242163,0.905486,33,0.0155011,10,0.000219275,-3.04312,-2.23516,-0.0263963,-0.936568,0.242163,
2,1,0,1,0,64176.4,0.244005,0.243669,0.906857,33,0.0155701,10,0.000220973,-3.04246,-4.26162,-0.0138445,-0.489983,0.243669,
2,1,0,1,0,64176.5,0.245503,0.24518,0.908889,33,0.0156392,10,0.000222841,-3.04149,-5.19674,-0.0113533,-0.401573,0.24518,
2,1,0,1,0,64176.5,0.247001,0.24672,0.907562,33,0.0157081,10,0.000223914,-3.04212,-2.80577,-0.0210281,-0.741733,0.24672,
2,1,0,1,0,64176.6,0.248501,0.24817,0.903043,33,0.0157771,10,0.000224108,-3.04429,-2.82761,-0.0208657,-0.736344,0.24817,
2,1,0,1,0,64176.7,0.249997,0.24967,0.904148,33,0.0158456,10,0.000225739,-3.04376,-4.35912,-0.0135348,-0.477287,0.24967,
2,1,0,1,0,64176.8,0.251496,0.251182,0.902737,33,0.0159145,10,0.000226751,-3.04444,-8.85796,-0.00666067,-0.23459,0.251182,
2,1,0,1,0,64176.8,0.252994,0.252634,0.900904,33,0.0159831,10,0.000227599,-3.04532,-1.69882,-0.03473,-1.22056,0.2526345,
2,1,0,1,0,64176.9,0.254492,0.254175,0.901597,33,0.0160517,10,0.000229164,-3.04499,-2.05241,-0.0287466,-1.01048,0.254175,
2,1,0,1,0,64177,0.25599,0.255653,0.898937,33,0.0161201,10,0.000229816,-3.04627,-15.3299,-0.00384869,-0.135251,0.255653,
2,1,0,1,0,64177.1,0.257488,0.257167,0.898298,33,0.0161884,10,0.000231012,-3.04658,-2.23531,-0.0263946,-0.924137,0.257167,
2,1,0,1,0,64177.1,0.258987,0.258684,0.897814,33,0.0162569,10,0.00023225,-3.04681,-3.28846,-0.0179416,-0.628501,0.258684,
2,1,0,1,0,64177.2,0.260485,0.260191,0.896754,33,0.0163251,10,0.000233328,-3.04733,-1.57162,-0.0375408,-1.31405,0.260191,
2,1,0,1,0,64177.3,0.261983,0.261643,0.894702,33,0.0163932,10,0.000234092,-3.04832,-2.35544,-0.0250484,-0.874929,0.2616429,
2,1,0,1,0,64177.4,0.263481,0.26316,0.893023,33,0.0164613,10,0.000235008,-3.04914,-13.9815,-0.00421985,-0.146858,0.26316,
2,1,0,1,0,64177.4,0.264981,0.264645,0.893493,33,0.0165293,10,0.000236458,-3.04891,5.19699,0.0113527,0.395708,0.264645,
2,1,0,1,0,64177.5,0.266476,0.26619,0.892504,33,0.0165972,10,0.000237575,-3.04939,-48.69,-0.00121175,-0.042196,0.26619,
2,1,0,1,0,64177.6,0.267976,0.267675,0.888005,33,0.016665,10,0.000237696,-3.05158,-32.2597,-0.00182891,-0.0635999,0.267675,
2,1,0,1,0,64177.7,0.269474,0.269176,0.888767,33,0.0167328,10,0.000239235,-3.05121,-8.48898,-0.00695019,-0.241209,0.2691761,
2,1,0,1,0,64177.7,0.270972,0.270628,0.892154,33,0.0168005,10,0.000241442,-3.04956,-3.29536,-0.017904,-0.621011,0.270628,
2,1,0,1,0,64177.8,0.27247,0.272132,0.889333,33,0.0168681,10,0.000242016,-3.05094,-1.27164,-0.0463969,-1.60247,0.272132,
2,1,0,1,0,64177.9,0.273968,0.273634,0.884185,33,0.0169357,10,0.000241943,-3.05346,-2.53938,-0.023234,-0.803484,0.273634,
2,1,0,1,0,64178,0.275467,0.275109,0.884565,33,0.017003,10,0.000243352,-3.05327,-2.2454,-0.0262759,-0.908975,0.275109,
2,1,0,1,0,64178,0.276965,0.276605,0.882545,33,0.0170702,10,0.000244116,-3.05426,-1.69378,-0.0348334,-1.20049,0.276605,
2,1,0,1,0,64178.1,0.278463,0.278179,0.882575,33,0.0171375,10,0.000245514,-3.05425,-1.33094,-0.0443295,-1.52464,0.278179,
2,1,0,1,0,64178.2,0.279961,0.279664,0.881349,33,0.0172046,10,0.000246482,-3.05485,-1.95681,-0.0301511,-1.03517,0.279664,
2,1,0,1,0,64178.3,0.28146,0.281108,0.878261,33,0.0172716,10,0.000246886,-3.05638,-8.4661,-0.00696897,-0.239714,0.281108,
2,1,0,1,0,64178.3,0.282956,0.282645,0.878339,33,0.0173383,10,0.000248259,-3.05634,7.44391,0.00792594,0.271723,0.282645,
2,1,0,1,0,64178.4,0.284456,0.28412,0.877746,33,0.0174053,10,0.000249385,-3.05663,-4.37576,-0.0134834,-0.461827,0.28412,
2,1,0,1,0,64178.5,0.285954,0.285622,0.876892,33,0.017472,10,0.00025046,-3.05705,-1.73627,-0.0339809,-1.16247,0.285622,
2,1,0,1,0,64178.6,0.287452,0.287116,0.872744,33,0.0175386,10,0.000250579,-3.05911,-1.98963,-0.0296538,-1.0111,0.287116,
2,1,0,1,0,64178.6,0.28895,0.288639,0.872649,33,0.0176051,10,0.00025188,-3.05916,-3.85912,-0.0152885,-0.52046,0.288639,
2,1,0,1,0,64178.7,0.290449,0.290103,0.870676,33,0.0176714,10,0.000252586,-3.06014,-1.95841,-0.0301265,-1.02575,0.290103,
2,1,0,1,0,64178.8,0.291947,0.291673,0.869566,33,0.0177377,10,0.000253629,-3.0607,-1.91206,-0.0308568,-1.04703,0.291673,
2,1,0,1,0,64178.9,0.293445,0.293093,0.865142,33,0.0178038,10,0.000253567,-3.06291,-3.04329,-0.0193869,-0.656399,0.293093,
2,1,0,1,0,64178.9,0.294943,0.294582,0.868856,33,0.0178698,10,0.000255949,-3.06105,-6.52918,-0.00903635,-0.306138,0.294582,
2,1,0,1,0,64179,0.296441,0.296121,0.867246,33,0.0179357,10,0.00025681,-3.06186,13.0063,0.00453625,0.153343,0.296121,
2,1,0,1,0,64179.1,0.29794,0.297624,0.863971,33,0.0180018,10,0.000257139,-3.0635,-1.71654,-0.0343715,-1.15708,0.2976242,
2,1,0,1,0,64179.2,0.299436,0.299088,0.86212,33,0.0180675,10,0.000257849,-3.06443,-0.00462069,-12.7686,-286.339,0.299088,
2,1,0,1,0,64179.2,0.299739,0.29942,0.610381,33,0.0181015,10,0.00018276,-3.2144,0.00100892,58.4783,662.607,0.29942,
2,1,0,1,0,64179.3,0.298239,0.297912,0.11839,33,0.0181235,10,3.52697e-05,-3.92669,0.00327111,18.0367,249.389,0.2979117,
2,0,0,1,0,64179.4,0.296741,0.296441,-0.033582,33,0.0181247,10,-9.95508e-06,-4.47389,0.0173974,3.39131,84.2676,0.2964409,
2,0,0,1,0,64179.4,0.295243,0.294889,-0.109956,33,0.018118,10,-3.24248e-05,-3.95878,-0.00240559,-24.5262,41.972,0.294889,
2,0,0,1,0,64179.5,0.293745,0.293398,-0.155677,33,0.018107,10,-4.56754e-05,-3.80777,-0.0116292,-5.07345,26.7811,0.293398,
2,0,0,1,0,64179.6,0.292246,0.291865,-0.18689,33,0.0180932,10,-5.45465e-05,-3.72842,-0.0201523,-2.9277,20.3038,0.291865,
2,0,0,1,0,64179.7,0.290748,0.290441,-0.216594,33,0.018077,10,-6.29079e-05,-3.66435,-0.0281459,-2.09622,16.9633,0.290441,
2,0,0,1,0,64179.7,0.28925,0.288903,-0.238514,33,0.0180589,10,-6.89075e-05,-3.62249,-0.0396655,-1.48744,13.5816,0.288903,
2,0,0,1,0,64179.8,0.287752,0.287447,-0.257132,33,0.0180393,10,-7.39117e-05,-3.58984,-0.0487405,-1.21049,11.9644,0.287447,
2,0,0,1,0,64179.9,0.286254,0.285946,-0.270943,33,0.0180185,10,-7.74752e-05,-3.56712,-0.0592134,-0.996395,10.5052,0.285946,
2,0,0,1,0,64180,0.284754,0.284458,-0.289902,33,0.0179964,10,-8.24648e-05,-3.53775,-0.0635208,-0.92883,10.3789,0.284458,
2,0,0,1,0,64180,0.283259,0.282921,-0.303852,33,0.0179732,10,-8.59662e-05,-3.51734,-0.0718991,-0.820595,9.61647,0.282921,
2,0,0,1,0,64180.1,0.281759,0.281416,-0.315265,33,0.0179489,10,-8.87205e-05,-3.50132,-0.0889903,-0.662994,8.12268,0.281416,
2,0,0,1,0,64180.2,0.280261,0.279892,-0.325619,33,0.0179238,10,-9.11382e-05,-3.48729,-0.0952765,-0.61925,7.89737,0.279892,
2,0,0,1,0,64180.3,0.278763,0.278415,-0.339946,33,0.0178978,10,-9.46459e-05,-3.46859,-0.107655,-0.548047,7.22296,0.278415,
2,0,0,1,0,64180.3,0.277264,0.27696,-0.348367,33,0.0178708,10,-9.64839e-05,-3.45796,-0.108214,-0.545214,7.4259,0.27696,
2,0,0,1,0,64180.4,0.275766,0.275439,-0.359501,33,0.0178431,10,-9.90205e-05,-3.4443,-0.13144,-0.448873,6.28596,0.275439,
2,0,0,1,0,64180.5,0.274268,0.273936,-0.369978,33,0.0178147,10,-0.00010135,-3.43182,-0.136184,-0.433237,6.27394,0.273936,
2,0,0,1,0,64180.6,0.27277,0.272464,-0.379867,33,0.0177855,10,-0.0001035,-3.42037,-0.133536,-0.441828,6.55945,0.272464,
2,0,0,1,0,64180.6,0.271272,0.270957,-0.389374,33,0.0177557,10,-0.000105504,-3.40963,-0.138035,-0.427427,6.47107,0.270957,
2,0,0,1,0,64180.7,0.269774,0.26944,-0.397336,33,0.0177251,10,-0.000107058,-3.40084,-0.155933,-0.378367,5.85993,0.26944,
2,0,0,1,0,64180.8,0.268274,0.267944,-0.406964,33,0.0176938,10,-0.000109044,-3.39044,-0.171258,-0.34451,5.44979,0.267944,
2,0,0,1,0,64180.9,0.266779,0.266458,-0.411794,33,0.0176621,10,-0.000109726,-3.38532,-0.163207,-0.361504,5.82973,0.266458,
2,0,0,1,0,64180.9,0.265279,0.264994,-0.42202,33,0.0176298,10,-0.000111833,-3.37467,-0.168929,-0.349258,5.72704,0.264994,
2,0,0,1,0,64181,0.263781,0.26343,-0.429556,33,0.0175968,10,-0.000113158,-3.36698,-0.192952,-0.305776,5.12288,0.26343,
2,0,0,1,0,64181.1,0.262283,0.261945,-0.437073,33,0.0175633,10,-0.000114489,-3.35945,-0.217168,-0.271679,4.61148,0.261945,
2,0,0,1,0,64181.2,0.260784,0.260452,-0.441309,33,0.0175292,10,-0.00011494,-3.35526,-0.235985,-0.250016,4.32451,0.260452,
2,0,0,1,0,64181.2,0.259286,0.258957,-0.453151,33,0.0174946,10,-0.000117347,-3.34376,-0.211472,-0.278996,4.90545,0.258957,
2,0,0,1,0,64181.3,0.257788,0.257439,-0.459303,33,0.0174595,10,-0.000118242,-3.3379,-0.212932,-0.277084,4.95438,0.257439,
2,0,0,1,0,64181.4,0.25629,0.255973,-0.465409,33,0.0174237,10,-0.000119132,-3.33217,-0.250075,-0.235929,4.26215,0.255973,
2,0,0,1,0,64181.5,0.25479,0.254478,-0.470722,33,0.0173874,10,-0.000119788,-3.32724,-0.233087,-0.253125,4.65946,0.254478,
2,0,0,1,0,64181.5,0.253294,0.252982,-0.479592,33,0.0173509,10,-0.000121328,-3.31913,-0.214733,-0.27476,5.13218,0.252982,
2,0,0,1,0,64181.6,0.251795,0.251487,-0.484417,33,0.0173136,10,-0.000121825,-3.31478,-0.246462,-0.239388,4.52303,0.251487,
2,0,0,1,0,64181.7,0.250297,0.249965,-0.490787,33,0.0172759,10,-0.000122679,-3.30911,-0.314535,-0.187578,3.58776,0.249965,
2,0,0,1,0,64181.8,0.248799,0.248432,-0.497153,33,0.0172377,10,-0.000123509,-3.30351,-0.30445,-0.193792,3.76524,0.248432,
2,0,0,1,0,64181.8,0.247301,0.246936,-0.503601,33,0.0171992,10,-0.000124357,-3.29791,-0.286933,-0.205623,4.04546,0.246936,
2,0,0,1,0,64181.9,0.245802,0.245471,-0.50954,33,0.0171601,10,-0.000125077,-3.29282,-0.280605,-0.21026,4.17512,0.245471,
2,0,0,1,0,64182,0.244304,0.243937,-0.517345,33,0.0171206,10,-0.0001262,-3.28622,-0.283666,-0.207991,4.17198,0.243937,
2,0,0,1,0,64182,0.242806,0.242484,-0.521641,33,0.0170806,10,-0.00012649,-3.28263,-0.355515,-0.165957,3.38027,0.242484,
2,0,0,1,0,64182.1,0.241308,0.240993,-0.52622,33,0.0170403,10,-0.000126815,-3.27883,-0.348045,-0.169518,3.48055,0.240993,
2,0,0,1,0,64182.2,0.23981,0.239463,-0.531509,33,0.0169996,10,-0.000127277,-3.27449,-0.284872,-0.207111,4.29656,0.239463,
2,0,0,1,0,64182.3,0.23831,0.237935,-0.537252,33,0.0169584,10,-0.000127831,-3.26982,-0.321229,-0.18367,3.84723,0.237935,
2,0,0,1,0,64182.3,0.236815,0.236476,-0.543839,33,0.0169168,10,-0.000128605,-3.26453,-0.326724,-0.180581,3.82653,0.236476,
2,0,0,1,0,64182.4,0.235315,0.234996,-0.5442,33,0.0168748,10,-0.000127885,-3.26424,-0.330413,-0.178564,3.82146,0.234996,
2,0,0,1,0,64182.5,0.233817,0.233502,-0.551528,33,0.0168325,10,-0.000128783,-3.25843,-0.376014,-0.156909,3.38674,0.233502,
2,0,0,1,0,64182.6,0.232319,0.231986,-0.559512,33,0.0167896,10,-0.000129799,-3.25219,-0.347125,-0.169968,3.70544,0.231986,
2,0,0,1,0,64182.6,0.230821,0.230488,-0.565867,33,0.0167464,10,-0.000130426,-3.24729,-0.470919,-0.125287,2.75722,0.230488,
2,0,0,1,0,64182.7,0.229322,0.22898,-0.569105,33,0.0167027,10,-0.000130314,-3.24481,-0.400365,-0.147365,3.27827,0.22898,
2,0,0,1,0,64182.8,0.227824,0.227513,-0.571537,33,0.0166588,10,-0.000130032,-3.24296,-0.474712,-0.124286,2.7888,0.227513,
2,0,0,1,0,64182.9,0.226326,0.225992,-0.581593,33,0.0166144,10,-0.000131435,-3.23538,-0.388816,-0.151743,3.42885,0.225992,
2,0,0,1,0,64182.9,0.224828,0.224489,-0.585352,33,0.0165696,10,-0.000131405,-3.23258,-0.459417,-0.128424,2.92642,0.224489,
2,0,0,1,0,64183,0.22333,0.223006,-0.589885,33,0.0165245,10,-0.000131548,-3.22923,-0.44129,-0.133699,3.07462,0.223006,
2,0,0,1,0,64183.1,0.22183,0.221506,-0.593766,33,0.016479,10,-0.000131523,-3.22638,-0.416868,-0.141532,3.28529,0.221506,
2,0,0,1,0,64183.2,0.220335,0.220028,-0.601587,33,0.0164332,10,-0.000132366,-3.2207,-0.340158,-0.173449,4.05506,0.220028,
2,0,0,1,0,64183.2,0.218835,0.218494,-0.607347,33,0.0163867,10,-0.000132702,-3.21656,-0.417693,-0.141252,3.34404,0.218494,
2,0,0,1,0,64183.3,0.217337,0.217018,-0.611067,33,0.0163401,10,-0.000132612,-3.21391,-0.447004,-0.13199,3.15053,0.217018,
2,0,0,1,0,64183.4,0.215839,0.215485,-0.612104,33,0.0162931,10,-0.000131899,-3.21317,-0.418118,-0.141109,3.38336,0.215485,
2,0,0,1,0,64183.5,0.21434,0.213995,-0.618389,33,0.0162457,10,-0.000132332,-3.20874,-0.375678,-0.157049,3.79225,0.213995,
2,0,0,1,0,64183.5,0.212842,0.212519,-0.623327,33,0.0161979,10,-0.000132469,-3.20528,-0.434295,-0.135852,3.32367,0.212519,
2,0,0,1,0,64183.6,0.211344,0.211036,-0.632142,33,0.0161497,10,-0.000133405,-3.19919,-0.595787,-0.0990287,2.43664,0.211036,
2,0,0,1,0,64183.7,0.209846,0.209546,-0.632434,33,0.0161012,10,-0.000132524,-3.19898,-0.47789,-0.123459,3.05901,0.209546,
2,0,0,1,0,64183.8,0.208348,0.208042,-0.640084,33,0.0160524,10,-0.000133164,-3.19376,-0.343766,-0.171628,4.29965,0.208042,
2,0,0,1,0,64183.8,0.20685,0.206516,-0.649367,33,0.0160031,10,-0.000134104,-3.18751,-0.370819,-0.159107,4.00858,0.2065156,
2,0,0,1,0,64183.9,0.20535,0.205002,-0.650352,33,0.0159532,10,-0.000133324,-3.18685,-0.571683,-0.103204,2.61854,0.205002,
2,0,0,1,0,64184,0.203855,0.203485,-0.654034,33,0.0159032,10,-0.000133086,-3.1844,-0.594709,-0.0992082,2.53702,0.203485,
2,0,0,1,0,64184.1,0.202355,0.202006,-0.660064,33,0.0158528,10,-0.000133337,-3.18041,-0.43305,-0.136243,3.5115,0.202006,
2,0,0,1,0,64184.1,0.200857,0.20049,-0.665235,33,0.0158021,10,-0.000133373,-3.17703,-0.428135,-0.137807,3.57307,0.20049,
2,0,0,1,0,64184.2,0.199359,0.199039,-0.670818,33,0.0157509,10,-0.000133519,-3.1734,-0.51615,-0.114308,2.98389,0.199039,
2,0,0,1,0,64184.3,0.19786,0.197488,-0.675405,33,0.0156993,10,-0.000133384,-3.17044,-0.494574,-0.119295,3.13681,0.1974881,
2,0,0,1,0,64184.4,0.196362,0.196013,-0.679256,33,0.0156474,10,-0.000133143,-3.16797,-0.490686,-0.12024,3.19116,0.196013,
2,0,0,1,0,64184.4,0.194864,0.194548,-0.685042,33,0.0155951,10,-0.000133274,-3.16428,-0.344201,-0.171412,4.58607,0.194548,
2,0,0,1,0,64184.5,0.193366,0.193008,-0.692573,33,0.0155423,10,-0.000133672,-3.15953,-0.384285,-0.153532,4.13989,0.193008,
2,0,0,1,0,64184.6,0.191866,0.191532,-0.696719,33,0.015489,10,-0.000133444,-3.15694,-0.633517,-0.0931308,2.53906,0.191532,
2,0,0,1,0,64184.7,0.19037,0.190008,-0.701654,33,0.0154355,10,-0.00013332,-3.15388,-0.48267,-0.122237,3.36121,0.190008,
2,0,0,1,0,64184.7,0.188871,0.188525,-0.70916,33,0.0153815,10,-0.000133695,-3.14926,-0.336971,-0.175089,4.84119,0.188525,
2,0,0,1,0,64184.8,0.187373,0.187024,-0.714917,33,0.0153271,10,-0.000133707,-3.14574,-0.422595,-0.139613,3.89664,0.187024,
2,0,0,1,0,64184.9,0.185875,0.185483,-0.72023,33,0.0152721,10,-0.00013359,-3.14253,-0.503486,-0.117183,3.28415,0.185483,
2,0,0,1,0,64185,0.184377,0.184034,-0.723732,33,0.0152167,10,-0.000133191,-3.14042,-0.436195,-0.135261,3.83159,0.184034,
2,0,0,1,0,64185,0.182878,0.182547,-0.731739,33,0.0151611,10,-0.000133577,-3.13564,-0.470674,-0.125352,3.5931,0.182547,
2,0,0,1,0,64185.1,0.18138,0.181051,-0.738876,33,0.0151048,10,-0.000133774,-3.13143,-0.388265,-0.151958,4.38279,0.181051,
2,0,0,1,0,64185.2,0.179882,0.179561,-0.745316,33,0.015048,10,-0.00013383,-3.12766,-0.494465,-0.119321,3.46661,0.179561,
2,0,0,1,0,64185.3,0.178384,0.178039,-0.752311,33,0.0149907,10,-0.00013394,-3.1236,-0.407387,-0.144825,4.26248,0.178039,
2,0,0,1,0,64185.3,0.176886,0.176552,-0.760618,33,0.014933,10,-0.000134288,-3.11883,-0.3818,-0.154531,4.58399,0.176552,
2,0,0,1,0,64185.4,0.175386,0.175034,-0.765221,33,0.0148747,10,-0.00013394,-3.11621,-0.308425,-0.191294,5.70797,0.175034,
2,0,0,1,0,64185.5,0.173891,0.173508,-0.773278,33,0.0148159,10,-0.00013417,-3.11166,-0.332278,-0.177562,5.36248,0.173508,
2,0,0,1,0,64185.6,0.172391,0.172023,-0.781431,33,0.0147565,10,-0.000134424,-3.10711,-0.400245,-0.14741,4.49546,0.172023,
2,0,0,1,0,64185.6,0.170893,0.170596,-0.787376,33,0.0146966,10,-0.000134323,-3.10382,-0.34768,-0.169696,5.22362,0.170596,
2,0,0,1,0,64185.7,0.169395,0.169019,-0.796211,33,0.0146361,10,-0.000134575,-3.09897,-0.27853,-0.211827,6.5711,0.169019,
2,0,0,1,0,64185.8,0.167897,0.167525,-0.806906,33,0.0145747,10,-0.000135177,-3.09318,-0.297708,-0.198181,6.25021,0.167525,
2,0,0,1,0,64185.9,0.166398,0.166046,-0.814999,33,0.0145128,10,-0.000135327,-3.08884,-0.338944,-0.17407,5.55474,0.166046,
2,0,0,1,0,64185.9,0.1649,0.164609,-0.821567,33,0.0144502,10,-0.000135238,-3.08536,-0.273022,-0.2161,6.97602,0.164609,
2,0,0,1,0,64186,0.163402,0.163055,-0.836678,33,0.0143868,10,-0.000136424,-3.07744,-0.250292,-0.235725,7.69072,0.1630546,
2,0,0,1,0,64186.1,0.161904,0.161587,-0.849419,33,0.0143225,10,-0.000137255,-3.07088,-0.246423,-0.239426,7.92356,0.161587,
2,0,0,1,0,64186.2,0.160406,0.160103,-0.862783,33,0.0142573,10,-0.000138135,-3.0641,-0.248852,-0.237089,7.96205,0.1601034,
2,0,0,1,0,64186.2,0.158906,0.158586,-0.872608,33,0.0141912,10,-0.000138383,-3.05918,-0.239883,-0.245953,8.39101,0.158586,
2,0,0,1,0,64186.3,0.157411,0.1571,-0.886951,33,0.0141244,10,-0.00013934,-3.0521,-0.190642,-0.30948,10.7345,0.1571,
2,0,0,1,0,64186.4,0.155911,0.155532,-0.903681,33,0.0140562,10,-0.000140552,-3.04398,-0.188618,-0.312801,11.0374,0.155532,
2,0,0,1,0,64186.5,0.154413,0.154032,-0.918045,33,0.0139867,10,-0.000141408,-3.03714,-0.192363,-0.306712,10.9964,0.154032,
2,0,0,1,0,64186.5,0.152915,0.152591,-0.936447,33,0.0139161,10,-0.000142893,-3.02852,-0.182989,-0.322424,11.8192,0.152591,
2,0,0,1,0,64186.6,0.151417,0.151115,-0.95479,33,0.0138441,10,-0.000144283,-3.02009,-0.15538,-0.379714,14.1931,0.151115,
2,0,0,1,0,64186.7,0.149918,0.149567,-0.979953,33,0.0137704,10,-0.000146569,-3.00879,-0.136876,-0.431046,16.4675,0.1495672,
2,0,0,1,0,64186.8,0.14842,0.148064,-1.00493,33,0.013695,10,-0.000148793,-2.99787,-0.133159,-0.44308,17.4107,0.148064,
2,0,0,1,0,64186.8,0.146922,0.146585,-1.03279,33,0.0136176,10,-0.000151393,-2.98599,-0.123769,-0.476693,19.2189,0.1465854,
2,0,0,1,0,64186.9,0.145424,0.145076,-1.05862,33,0.013538,10,-0.000153579,-2.97526,-0.113757,-0.518648,21.5489,0.145076,
2,0,0,1,0,64187,0.143926,0.143604,-1.09699,33,0.013456,10,-0.000157532,-2.9598,-0.095988,-0.61466,26.3326,0.143604,
2,0,0,1,0,64187.1,0.142426,0.142092,-1.13614,33,0.0133711,10,-0.000161437,-2.94457,-0.0973083,-0.60632,26.9053,0.142092,
2,0,0,1,0,64187.1,0.140931,0.140583,-1.17468,33,0.0132834,10,-0.00016514,-2.93008,-0.0948694,-0.621907,28.6023,0.140583,
2,0,0,1,0,64187.2,0.139431,0.139066,-1.21726,33,0.0131924,10,-0.000169279,-2.91462,-0.0933082,-0.632313,30.1322,0.1390661,
2,0,0,1,0,64187.3,0.137933,0.137603,-1.26931,33,0.013098,10,-0.00017466,-2.89643,-0.0863714,-0.683097,33.8534,0.137603,
2,0,0,1,0,64187.4,0.136435,0.136113,-1.31992,33,0.013,10,-0.000179658,-2.87945,-0.0891122,-0.662086,34.0588,0.136113,
2,0,0,1,0,64187.4,0.134936,0.134523,-1.36963,33,0.012898,10,-0.000184247,-2.8634,-0.0943496,-0.625334,33.3745,0.134523,
2,0,0,1,0,64187.5,0.133438,0.133073,-1.42053,33,0.0127923,10,-0.000189033,-2.84755,-0.0926256,-0.636973,35.3473,0.133073,
2,0,0,1,0,64187.6,0.13194,0.131605,-1.4768,33,0.0126828,10,-0.000194354,-2.83068,-0.0952548,-0.619391,35.6987,0.131605,
2,0,0,1,0,64187.7,0.130442,0.13009,-1.52979,33,0.012569,10,-0.000199011,-2.81537,-0.0943149,-0.625564,37.2682,0.13009,
2,0,0,1,0,64187.7,0.128942,0.128653,-1.58387,33,0.0124509,10,-0.000203769,-2.80028,-0.104397,-0.565152,34.8243,0.128653,
2,0,0,1,0,64187.8,0.127446,0.127118,-1.63583,33,0.0123292,10,-0.000207945,-2.78626,-0.109788,-0.537399,34.2814,0.127118,
2,0,0,1,0,64187.9,0.125947,0.125605,-1.68501,33,0.0122034,10,-0.000211646,-2.7734,-0.11441,-0.515689,33.9122,0.125605,
2,0,0,1,0,64188,0.124449,0.124119,-1.73703,33,0.012074,10,-0.000215598,-2.76019,-0.12135,-0.486196,32.8713,0.124119,
2,0,0,1,0,64188,0.122951,0.122623,-1.78201,33,0.0119408,10,-0.000218516,-2.74909,-0.129872,-0.454295,31.5764,0.122623,
2,0,0,1,0,64188.1,0.121453,0.121072,-1.82792,33,0.0118042,10,-0.000221309,-2.73804,-0.147018,-0.40131,28.5813,0.121072,
2,0,0,1,0,64188.2,0.119955,0.119608,-1.87125,33,0.0116646,10,-0.000223818,-2.72787,-0.160352,-0.367939,26.8264,0.119608,
2,0,0,1,0,64188.3,0.118456,0.118131,-1.90953,33,0.0115219,10,-0.000225576,-2.71907,-0.172968,-0.341103,25.3774,0.118131,
2,0,0,1,0,64188.3,0.116958,0.11659,-1.94738,33,0.0113761,10,-0.000227045,-2.71055,-0.196289,-0.300577,22.7717,0.11659,
2,0,0,1,0,64188.4,0.11546,0.115127,-1.9807,33,0.0112278,10,-0.000228031,-2.70318,-0.246305,-0.23954,18.4424,0.115127,
2,0,0,1,0,64188.5,0.113962,0.113672,-2.00174,33,0.0110774,10,-0.000227541,-2.69859,-0.267936,-0.220202,17.2023,0.113672,
2,0,0,1,0,64188.6,0.112462,0.112162,-2.02743,33,0.0109251,10,-0.000227399,-2.69305,-0.32046,-0.18411,14.5536,0.112162,
2,0,0,1,0,64188.6,0.110967,0.110637,-2.04768,33,0.0107713,10,-0.00022655,-2.68874,-0.373487,-0.157971,12.5998,0.110637,
2,0,0,1,0,64188.7,0.109467,0.109112,-2.06186,33,0.0106159,10,-0.000224974,-2.68574,-0.574688,-0.102664,8.24629,0.109112,
2,0,0,1,0,64188.8,0.107969,0.107606,-2.07383,33,0.0104596,10,-0.000223157,-2.68323,-0.896011,-0.0658474,5.32548,0.107606,
2,0,0,1,0,64188.9,0.106471,0.10614,-2.07621,33,0.010303,10,-0.000220368,-2.68273,-1.34419,-0.0438925,3.56026,0.10614,
2,0,0,1,0,64188.9,0.104973,0.104658,-2.08336,33,0.0101459,10,-0.00021804,-2.68124,-3.20312,-0.0184195,1.49468,0.104658,
2,0,0,1,0,64189,0.103474,0.103129,-2.0849,33,0.00998859,10,-0.000215014,-2.68091,3.25439,0.0181294,-1.46993,0.1031292,
2,0,0,1,0,64189.1,0.101976,0.101633,-2.08147,33,0.00983153,10,-0.000211545,-2.68163,1.2652,0.0466331,-3.77727,0.101633,
2,0,0,1,0,64189.2,0.100478,0.100159,-2.07146,33,0.009675,10,-0.000207476,-2.68372,0.857,0.0688448,-5.56312,0.100159,
2,0,0,1,0,64189.2,0.0989799,0.0986086,-2.06437,33,0.00951896,10,-0.000203565,-2.68521,0.857261,0.0688238,-5.53478,0.0986086,
2,0,0,1,0,64189.3,0.0974817,0.0971207,-2.05447,33,0.00936349,10,-0.000199532,-2.6873,0.73761,0.0799881,-6.40893,0.0971207,
2,0,0,1,0,64189.4,0.0959821,0.0956284,-2.04334,33,0.00920858,10,-0.000195402,-2.68966,0.685059,0.0861239,-6.86854,0.0956284,
2,0,0,1,0,64189.5,0.0944866,0.0941224,-2.02843,33,0.00905503,10,-0.000190921,-2.69284,0.615054,0.0959266,-7.60972,0.09412238,
2,0,0,1,0,64189.5,0.0929871,0.0926036,-2.02049,33,0.00890187,10,-0.000187105,-2.69454,0.79001,0.0746826,-5.88991,0.0926036,
2,0,0,1,0,64189.6,0.0914889,0.0911507,-2.01237,33,0.00874961,10,-0.000183429,-2.69629,0.721441,0.0817808,-6.41666,0.0911507,
2,0,0,1,0,64189.7,0.0899907,0.0896744,-2.00189,33,0.00859803,10,-0.000179518,-2.69856,0.646084,0.0913194,-7.12668,0.0896744,
2,0,0,1,0,64189.8,0.0884925,0.0881728,-1.98949,33,0.00844731,10,-0.000175419,-2.70126,0.598832,0.0985251,-7.65649,0.0881728,
2,0,0,1,0,64189.8,0.0869943,0.0866642,-1.98113,33,0.00829748,10,-0.000171693,-2.70309,0.716723,0.0823192,-6.36879,0.0866642,
2,0,0,1,0,64189.9,0.0854961,0.0851542,-1.97347,33,0.00814827,10,-0.000168049,-2.70477,0.756009,0.0780414,-6.00837,0.0851542,
2,0,0,1,0,64190,0.083998,0.0836739,-1.96383,33,0.0079997,10,-0.000164321,-2.7069,0.693985,0.0850163,-6.51328,0.0836739,
2,0,0,1,0,64190.1,0.0824998,0.0821687,-1.95531,33,0.00785181,10,-0.000160666,-2.70878,0.715754,0.0824306,-6.28604,0.0821687,
2,0,0,1,0,64190.1,0.081002,0.0806503,-1.94512,33,0.00770469,10,-0.000156874,-2.71105,0.829318,0.0711428,-5.40245,0.0806503,
2,0,0,1,0,64190.2,0.0795025,0.0791934,-1.93794,33,0.00755797,10,-0.000153472,-2.71266,0.906954,0.0650529,-4.9178,0.0791934,
2,0,0,1,0,64190.3,0.078007,0.0776925,-1.92992,33,0.00741211,10,-0.00014994,-2.71446,0.844578,0.0698574,-5.26091,0.0776925,
2,0,0,1,0,64190.4,0.076507,0.0761647,-1.92083,33,0.00726646,10,-0.000146299,-2.71651,0.727336,0.081118,-6.077,0.0761647,
2,0,0,1,0,64190.4,0.0750088,0.0746751,-1.91128,33,0.00712178,10,-0.000142725,-2.71868,0.757374,0.0779007,-5.81057,0.0746751,
2,0,0,1,0,64190.5,0.0735106,0.0732033,-1.90276,33,0.0069777,10,-0.000139288,-2.72062,0.909269,0.0648873,-4.82015,0.0732033,
2,0,0,1,0,64190.6,0.0720124,0.0716243,-1.89597,33,0.00683426,10,-0.000135798,-2.72217,0.731374,0.08067,-5.96817,0.0716243,
2,0,0,1,0,64190.7,0.0705142,0.0701768,-1.88553,33,0.00669143,10,-0.00013232,-2.72457,0.715654,0.0824421,-6.06496,0.0701768,
2,0,0,1,0,64190.7,0.069016,0.0686806,-1.87352,33,0.00654937,10,-0.000128675,-2.72734,0.688445,0.0857004,-6.28364,0.0686806,
2,0,0,1,0,64190.8,0.0675179,0.0671696,-1.86852,33,0.00640799,10,-0.000125507,-2.7285,0.753518,0.0782994,-5.71017,0.0671696,
2,0,0,1,0,64190.9,0.0660179,0.0656831,-1.86444,33,0.00626702,10,-0.000122462,-2.72945,0.778314,0.0758049,-5.49661,0.0656831,
2,0,0,1,0,64191,0.0645224,0.0641649,-1.85039,33,0.00612704,10,-0.00011873,-2.73274,0.603237,0.0978057,-7.05098,0.0641649,
2,0,0,1,0,64191,0.0630229,0.0626836,-1.83724,33,0.00598749,10,-0.000115165,-2.73583,0.567297,0.104002,-7.46172,0.0626836,
2,0,0,1,0,64191.1,0.0615251,0.0611783,-1.82935,33,0.00584904,10,-0.000111916,-2.7377,0.597842,0.0986883,-7.05018,0.0611783,
2,0,0,1,0,64191.2,0.0600269,0.0596774,-1.81937,33,0.00571132,10,-0.000108575,-2.74008,0.63784,0.0924996,-6.56892,0.0596774,
2,0,0,1,0,64191.3,0.0585287,0.0581836,-1.80851,33,0.00557421,10,-0.000105226,-2.74268,0.508903,0.115936,-8.17143,0.0581836,
2,0,0,1,0,64191.3,0.0570305,0.0566929,-1.79723,33,0.0054379,10,-0.00010189,-2.7454,0.494685,0.119268,-8.36388,0.0566929,
2,0,0,1,0,64191.4,0.0555323,0.0552227,-1.78568,33,0.00530264,10,-9.86101e-05,-2.7482,0.620756,0.0950454,-6.63053,0.0552227,
2,0,0,1,0,64191.5,0.0540341,0.0536759,-1.77493,33,0.00516807,10,-9.52712e-05,-2.75082,0.629432,0.0937352,-6.4943,0.0536759,
2,0,0,1,0,64191.6,0.052536,0.052173,-1.76589,33,0.00503408,10,-9.21315e-05,-2.75304,0.593489,0.0994122,-6.84493,0.052173,
2,0,0,1,0,64191.6,0.0510378,0.0507211,-1.75566,33,0.00490093,10,-8.90489e-05,-2.75556,0.478267,0.123362,-8.45357,0.05072106,
2,0,0,1,0,64191.7,0.0495382,0.0492233,-1.74185,33,0.00476867,10,-8.57397e-05,-2.75899,0.529237,0.111481,-7.59084,0.0492233,
2,0,0,1,0,64191.8,0.0480427,0.0477221,-1.73113,33,0.00463752,10,-8.26132e-05,-2.76167,0.667155,0.0884353,-5.97859,0.0477221,
2,0,0,1,0,64191.9,0.0465432,0.0461638,-1.72212,33,0.00450676,10,-7.94997e-05,-2.76394,0.542886,0.108678,-7.30294,0.0461638,
2,0,0,1,0,64191.9,0.045045,0.0447218,-1.70951,33,0.00437696,10,-7.64526e-05,-2.76713,0.516348,0.114264,-7.62246,0.0447218,
2,0,0,1,0,64192,0.0435468,0.0432808,-1.69694,33,0.00424814,10,-7.3445e-05,-2.77033,0.448217,0.131633,-8.72598,0.0432808,
2,0,0,1,0,64192.1,0.0420486,0.0417744,-1.68352,33,0.00412033,10,-7.03279e-05,-2.77378,0.485533,0.121516,-7.98801,0.0417744,
2,0,0,1,0,64192.2,0.0405504,0.0401841,-1.67775,33,0.00399325,10,-6.7419e-05,-2.77527,0.526756,0.112006,-7.30398,0.0401841,
2,0,0,1,0,64192.2,0.0390523,0.038687,-1.66407,33,0.00386697,10,-6.43777e-05,-2.77883,0.434127,0.135905,-8.80315,0.038687,
2,0,0,1,0,64192.3,0.0375541,0.0371898,-1.6502,33,0.00374171,10,-6.13706e-05,-2.78246,0.410069,0.143878,-9.27043,0.0371898,
2,0,0,1,0,64192.4,0.0360559,0.0357081,-1.63528,33,0.00361755,10,-5.83927e-05,-2.78641,0.442627,0.133295,-8.52605,0.0357081,
2,0,0,1,0,64192.5,0.0345577,0.0342336,-1.62576,33,0.00349424,10,-5.56556e-05,-2.78894,0.476205,0.123896,-7.85258,0.0342336,
2,0,0,1,0,64192.5,0.0330582,0.0327472,-1.61334,33,0.0033716,10,-5.28323e-05,-2.79227,0.459894,0.12829,-8.0691,0.0327472,
2,0,0,1,0,64192.6,0.0315626,0.0312684,-1.6012,33,0.00325022,10,-5.0067e-05,-2.79555,0.429638,0.137325,-8.57685,0.0312684,
2,0,0,1,0,64192.7,0.0300631,0.0297251,-1.58797,33,0.00312955,10,-4.72026e-05,-2.79916,0.449349,0.131301,-8.13573,0.0297251,
2,0,0,1,0,64192.8,0.0285649,0.0282357,-1.57483,33,0.00300989,10,-4.44664e-05,-2.80277,0.532264,0.110847,-6.81473,0.0282357,
2,0,0,1,0,64192.8,0.0270667,0.026729,-1.56759,33,0.00289099,10,-4.19001e-05,-2.80477,0.472207,0.124945,-7.63257,0.026729,
2,0,0,1,0,64192.9,0.0255685,0.0252083,-1.55466,33,0.00277295,10,-3.91904e-05,-2.80836,0.449408,0.131284,-7.96287,0.0252083,
2,0,0,1,0,64193,0.0240704,0.0237418,-1.53905,33,0.00265587,10,-3.65398e-05,-2.81275,0.459047,0.128527,-7.74538,0.0237418,
2,0,0,1,0,64193.1,0.0225722,0.0222506,-1.53321,33,0.00253958,10,-3.41148e-05,-2.8144,0.533997,0.110488,-6.60102,0.0222506,
2,0,0,1,0,64193.1,0.021074,0.0207418,-1.52306,33,0.00242399,10,-3.1591e-05,-2.81728,0.518516,0.113786,-6.75888,0.0207418,
2,0,0,1,0,64193.2,0.0195758,0.0192486,-1.51252,33,0.00230919,10,-2.91139e-05,-2.8203,0.498738,0.118299,-6.97508,0.0192486,
2,0,0,1,0,64193.3,0.018078,0.0177185,-1.50043,33,0.00219509,10,-2.65854e-05,-2.82378,0.608231,0.0970026,-5.68464,0.0177185,
2,0,0,1,0,64193.4,0.0165785,0.0162563,-1.49352,33,0.00208162,10,-2.4279e-05,-2.82579,0.710778,0.0830077,-4.84409,0.0162563,
2,0,0,1,0,64193.4,0.015083,0.0147346,-1.4874,33,0.00196895,10,-2.19163e-05,-2.82757,0.913394,0.0645942,-3.74867,0.01473457,
2,0,0,1,0,64193.5,0.013583,0.0132767,-1.48144,33,0.00185643,10,-1.96686e-05,-2.82932,0.558915,0.105562,-6.08788,0.0132767,
2,0,0,1,0,64193.6,0.0120848,0.011795,-1.47004,33,0.00174465,10,-1.73392e-05,-2.83267,0.823193,0.0716721,-4.11831,0.011795,
2,0,0,1,0,64193.7,0.0105866,0.0102364,-1.46575,33,0.00163356,10,-1.50041e-05,-2.83394,0.860974,0.0685271,-3.92452,0.0102364,
2,0,0,1,0,64193.7,0.00908845,0.00874149,-1.45985,33,0.00152281,10,-1.27613e-05,-2.83569,0.949772,0.0621202,-3.5402,0.00874149,
2,0,0,1,0,64193.8,0.00759027,0.00727901,-1.45601,33,0.00141247,10,-1.05983e-05,-2.83684,0.955683,0.061736,-3.50965,0.00727901,
2,0,0,1,0,64193.9,0.00609208,0.00576041,-1.45193,33,0.00130242,10,-8.36368e-06,-2.83806,1.30724,0.0451331,-2.55295,0.00576041,
2,0,0,1,0,64194,0.00459389,0.00422811,-1.44843,33,0.00119274,10,-6.1241e-06,-2.8391,1.74073,0.0338937,-1.91614,0.00422811,
2,0,0,1,0,64194,0.00309391,0.00279869,-1.44592,33,0.0010831,10,-4.04667e-06,-2.83986,-1.98492,-0.0297241,1.68048,0.00279869,
2,0,0,1,0,64194.1,0.0015984,0.00118641,-1.45677,33,0.000973052,10,-1.72832e-06,-2.83661, , , ,0.00118641,
2,0,0,1,0,64194.2,0.000199195,-0.000224345,-1.44914,33,0.000870235,10,3.25107e-07,-2.83889, , , ,-0.000224345,