File: Figure_codes/Fig_3-5/rawdata_trumpetplot_data/after 10th/20221101_1-115_003_TrumpetPlot_ParaChange_from10_every3_11_CV_C01_33.csv
mode,ox/red,error,control changes,counter inc.,time/s,control/V,Ewe/V,<I>/mA,cycle number,(Q-Qo)/C,I Range,P/W,log(|I|),Tafel slope mV/dec,alpha_eff,dI/d(E-IR),E-IR/V,
2,1,0,1,0,66208.8,2.44065e-05,-0.000363498,9.30116,34,0.0000000E+000,10,-3.38095e-06,-2.03146, , , ,-0.000363498,
2,1,0,1,0,66208.8,0.00214129,0.00174035,10.2708,34,5.0466e-05,10,1.78748e-05,-1.98839, , , ,0.00174035,
2,1,0,1,0,66208.8,0.0045495,0.0041708,11.0066,34,0.000114499,10,4.59065e-05,-1.95835,0.0908738,0.649252,274.603,0.0041708,
2,1,0,1,0,66208.8,0.0069466,0.00657262,11.5771,34,0.000182322,10,7.60921e-05,-1.9364,0.114959,0.513228,230.433,0.00657262,
2,1,0,1,0,66208.8,0.0093437,0.00900095,12.0947,34,0.000253407,10,0.000108864,-1.9174,0.13424,0.439513,206.465,0.00900095,
2,1,0,1,0,66208.9,0.0117408,0.0113561,12.5599,34,0.000327443,10,0.000142632,-1.90101,0.154817,0.381095,186.124,0.0113561,
2,1,0,1,0,66208.9,0.0141462,0.0137993,12.9882,34,0.000404143,10,0.000179227,-1.88645,0.171725,0.343574,173.712,0.01379929,
2,1,0,1,0,66208.9,0.0165433,0.0161926,13.3822,34,0.000483306,10,0.000216693,-1.87347,0.191202,0.308574,160.783,0.0161926,
2,1,0,1,0,66208.9,0.0189404,0.0185648,13.7502,34,0.000564779,10,0.00025527,-1.86169,0.211091,0.2795,149.74,0.0185648,
2,1,0,1,0,66208.9,0.0213486,0.0209804,14.1049,34,0.000648394,10,0.000295925,-1.85063,0.234168,0.251956,138.409,0.0209804,
2,1,0,1,0,66208.9,0.0237457,0.0234267,14.4269,34,0.000734021,10,0.000337976,-1.84083,0.251342,0.234739,131.98,0.0234267,
2,1,0,1,0,66208.9,0.0261429,0.0257914,14.7347,34,0.000821538,10,0.00038003,-1.83166,0.266566,0.221333,127.166,0.0257914,
2,1,0,1,0,66208.9,0.02854,0.0281848,15.0313,34,0.000910878,10,0.000423654,-1.823,0.2894,0.20387,119.439,0.0281848,
2,1,0,1,0,66208.9,0.0309482,0.0306067,15.3138,34,0.00100196,10,0.000468707,-1.81492,0.309343,0.190727,113.893,0.0306067,
2,1,0,1,0,66208.9,0.0333453,0.0329926,15.5826,34,0.00109465,10,0.000514113,-1.80736,0.327473,0.180168,109.501,0.0329926,
2,1,0,1,0,66208.9,0.0357424,0.0353881,15.8428,34,0.00118896,10,0.000560646,-1.80017,0.344757,0.171135,105.71,0.0353881,
2,1,0,1,0,66208.9,0.0381478,0.0378048,16.0863,34,0.00128479,10,0.000608138,-1.79354,0.360504,0.16366,102.746,0.0378048,
2,1,0,1,0,66208.9,0.0405449,0.0402204,16.3334,34,0.00138208,10,0.000656934,-1.78692,0.374539,0.157527,100.398,0.0402204,
2,1,0,1,0,66208.9,0.042942,0.0426211,16.5744,34,0.00148086,10,0.00070642,-1.78056,0.389591,0.151441,97.8849,0.0426211,
2,1,0,1,0,66208.9,0.0453391,0.0449933,16.7964,34,0.00158101,10,0.000755727,-1.77478,0.404512,0.145855,95.6348,0.0449933,
2,1,0,1,0,66208.9,0.0477473,0.0474025,17.0298,34,0.00168253,10,0.000807257,-1.76879,0.416074,0.141802,94.2022,0.0474025,
2,1,0,1,0,66208.9,0.0501444,0.0497948,17.2599,34,0.00178541,10,0.000859453,-1.76296,0.430668,0.136996,92.2157,0.0497948,
2,1,0,1,0,66209,0.0525415,0.0522083,17.4711,34,0.00188961,10,0.000912136,-1.75768,0.441498,0.133636,91.125,0.0522083,
2,1,0,1,0,66209,0.0549469,0.0545878,17.6986,34,0.00199514,10,0.000966129,-1.75206,0.448201,0.131637,90.8794,0.0545878,
2,1,0,1,0,66209,0.057344,0.0569886,17.9138,34,0.00210198,10,0.00102088,-1.74681,0.460062,0.128243,89.624,0.0569886,
2,1,0,1,0,66209,0.0597411,0.0594318,18.1303,34,0.00221013,10,0.00107752,-1.74159,0.460977,0.127989,90.5378,0.0594318,
2,1,0,1,0,66209,0.0621438,0.061806,18.3398,34,0.00231955,10,0.00113351,-1.73661,0.471911,0.125024,89.497,0.061806,
2,1,0,1,0,66209,0.0645465,0.0641983,18.5558,34,0.00243027,10,0.00119125,-1.73152,0.465956,0.126622,91.6971,0.0641983,
2,1,0,1,0,66209,0.0669436,0.0666086,18.774,34,0.00254229,10,0.00125051,-1.72644,0.484038,0.121891,89.2634,0.0666086,
2,1,0,1,0,66209,0.0693407,0.0690454,18.9846,34,0.00265561,10,0.0013108,-1.7216,0.49061,0.120258,89.1208,0.06904541,
2,1,0,1,0,66209,0.0717489,0.0714122,19.2022,34,0.00277017,10,0.00137127,-1.71665,0.48542,0.121544,91.1043,0.0714122,
2,1,0,1,0,66209,0.074146,0.0738088,19.4209,34,0.00288607,10,0.00143343,-1.71173,0.494142,0.119399,90.4551,0.0738088,
2,1,0,1,0,66209,0.0765431,0.0761713,19.6311,34,0.00300326,10,0.00149532,-1.70706,0.507711,0.116208,89.0505,0.0761713,
2,1,0,1,0,66209,0.0789485,0.0786166,19.8485,34,0.0031217,10,0.00156042,-1.70227,0.505256,0.116772,90.4762,0.0786166,
2,1,0,1,0,66209,0.0813456,0.0809856,20.0758,34,0.00324149,10,0.00162585,-1.69733,0.506508,0.116484,91.2039,0.0809856,
2,1,0,1,0,66209,0.0837427,0.0833768,20.2893,34,0.0033626,10,0.00169166,-1.69273,0.508568,0.116012,91.8619,0.0833768,
2,1,0,1,0,66209,0.0861398,0.0857595,20.5034,34,0.003485,10,0.00175836,-1.68817,0.511185,0.115418,92.3849,0.0857595,
2,1,0,1,0,66209,0.088548,0.0882112,20.7363,34,0.00360876,10,0.00182917,-1.68327,0.508339,0.116064,93.9009,0.0882112,
2,1,0,1,0,66209.1,0.0909451,0.0906183,20.9566,34,0.00373385,10,0.00189905,-1.67868,0.531659,0.110973,90.7407,0.0906183,
2,1,0,1,0,66209.1,0.0933422,0.0929926,21.1719,34,0.00386028,10,0.00196883,-1.67424,0.541466,0.108963,90.0348,0.0929926,
2,1,0,1,0,66209.1,0.0957477,0.095406,21.3914,34,0.00398797,10,0.00204087,-1.66976,0.53825,0.109614,91.5249,0.095406,
2,1,0,1,0,66209.1,0.0981447,0.0977803,21.6119,34,0.004117,10,0.00211322,-1.66531,0.550798,0.107117,90.2884,0.0977803,
2,1,0,1,0,66209.1,0.100542,0.100201,21.8282,34,0.00424735,10,0.00218722,-1.66098,0.577808,0.10211,86.9394,0.100201,
2,1,0,1,0,66209.1,0.102939,0.102588,22.0239,34,0.00437891,10,0.00225939,-1.65711,0.569234,0.103648,89.1548,0.1025882,
2,1,0,1,0,66209.1,0.105347,0.104942,22.2413,34,0.00451173,10,0.00233406,-1.65284,0.55009,0.107255,93.1391,0.104942,
2,1,0,1,0,66209.1,0.107744,0.107407,22.4786,34,0.00464594,10,0.00241436,-1.64823,0.548524,0.107561,94.3189,0.107407,
2,1,0,1,0,66209.1,0.110141,0.109736,22.6957,34,0.00478148,10,0.00249055,-1.64406,0.55457,0.106389,94.2928,0.109736,
2,1,0,1,0,66209.1,0.11255,0.112173,22.9403,34,0.00491839,10,0.00257329,-1.6394,0.548785,0.10751,96.2091,0.1121732,
2,1,0,1,0,66209.1,0.114947,0.11453,23.1641,34,0.00505672,10,0.002653,-1.63518,0.550722,0.107132,96.844,0.11453,
2,1,0,1,0,66209.1,0.117344,0.117017,23.3919,34,0.00519641,10,0.00273725,-1.63093,0.550619,0.107152,97.8645,0.117017,
2,1,0,1,0,66209.1,0.119744,0.119438,23.6288,34,0.0053375,10,0.00282218,-1.62656,0.529902,0.111341,102.718,0.119438,
2,1,0,1,0,66209.1,0.122146,0.121758,23.8794,34,0.00548007,10,0.00290751,-1.62198,0.531235,0.111062,103.518,0.121758,
2,1,0,1,0,66209.1,0.124543,0.124205,24.1333,34,0.00562415,10,0.00299747,-1.61738,0.530414,0.111234,104.755,0.124205,
2,1,0,1,0,66209.1,0.126941,0.126599,24.3841,34,0.00576973,10,0.003087,-1.61289,0.511927,0.115251,109.751,0.126599,
2,1,0,1,0,66209.1,0.129349,0.128981,24.6625,34,0.00591687,10,0.00318099,-1.60796,0.498571,0.118338,113.891,0.128981,
2,1,0,1,0,66209.2,0.131746,0.13136,24.9393,34,0.0060657,10,0.00327603,-1.60312,0.49922,0.118184,114.98,0.13136,
2,1,0,1,0,66209.2,0.134143,0.133782,25.2012,34,0.00621614,10,0.00337148,-1.59858,0.495923,0.11897,117.074,0.133782,
2,1,0,1,0,66209.2,0.13654,0.136222,25.4787,34,0.00636821,10,0.00347076,-1.59382,0.493523,0.119549,118.929,0.136222,
2,1,0,1,0,66209.2,0.138945,0.138604,25.7752,34,0.00652205,10,0.00357255,-1.5888,0.505534,0.116708,117.347,0.138604,
2,1,0,1,0,66209.2,0.141343,0.141001,26.0471,34,0.00667757,10,0.00367268,-1.58424,0.518374,0.113817,115.727,0.141001,
2,1,0,1,0,66209.2,0.14374,0.143404,26.3354,34,0.00683474,10,0.00377661,-1.57946,0.514637,0.114644,117.818,0.143404,
2,1,0,1,0,66209.2,0.146148,0.145829,26.6214,34,0.00699364,10,0.00388218,-1.57477,0.531662,0.110973,115.226,0.145829,
2,1,0,1,0,66209.2,0.148545,0.148186,26.8914,34,0.00715422,10,0.00398492,-1.57039,0.559042,0.105538,110.739,0.148186,
2,1,0,1,0,66209.2,0.150942,0.150564,27.1599,34,0.0073164,10,0.00408931,-1.56607,0.562996,0.104796,111.076,0.150564,
2,1,0,1,0,66209.2,0.153345,0.153008,27.4227,34,0.00748015,10,0.00419591,-1.56189,0.579453,0.10182,108.947,0.1530084,
2,1,0,1,0,66209.2,0.155747,0.155422,27.6875,34,0.00764551,10,0.00430325,-1.55772,0.60908,0.0968674,104.581,0.155422,
2,1,0,1,0,66209.2,0.158144,0.157784,27.9246,34,0.00781236,10,0.00440607,-1.55401,0.638557,0.0923958,100.661,0.157784,
2,1,0,1,0,66209.2,0.160542,0.160224,28.154,34,0.0079806,10,0.00451096,-1.55046,0.681529,0.0865701,95.1108,0.160224,
2,1,0,1,0,66209.2,0.162947,0.162564,28.3862,34,0.00815027,10,0.00461457,-1.54689,0.734519,0.0803247,88.8834,0.162564,
2,1,0,1,0,66209.2,0.165344,0.164992,28.5806,34,0.00832122,10,0.00471558,-1.54393,0.82676,0.0713629,79.5593,0.164992,
2,1,0,1,0,66209.2,0.167741,0.167436,28.761,34,0.00849326,10,0.00481564,-1.5412,0.901042,0.0654797,73.4747,0.167436,
2,1,0,1,0,66209.2,0.170149,0.169791,28.9399,34,0.00866638,10,0.00491376,-1.5385,1.07374,0.0549484,61.969,0.169791,
2,1,0,1,0,66209.3,0.172547,0.172202,29.0603,34,0.00884042,10,0.00500423,-1.5367,1.42412,0.0414291,46.933,0.172202,
2,1,0,1,0,66209.3,0.174944,0.174588,29.1628,34,0.00901509,10,0.00509147,-1.53517,1.95039,0.0302504,34.3974,0.174588,
2,1,0,1,0,66209.3,0.177341,0.176992,29.2284,34,0.00919026,10,0.00517317,-1.5342,3.23867,0.0182174,20.7555,0.176992,
2,1,0,1,0,66209.3,0.179746,0.179426,29.2622,34,0.00936576,10,0.00525042,-1.53369,12.5982,0.00468321,5.34107,0.1794263,
2,1,0,1,0,66209.3,0.182143,0.181793,29.2526,34,0.00954131,10,0.00531792,-1.53384,-5.77759,-0.0102119,-11.644,0.181793,
2,1,0,1,0,66209.3,0.18454,0.184234,29.2038,34,0.0097167,10,0.00538034,-1.53456,-2.65358,-0.0222341,-25.317,0.184234,
2,1,0,1,0,66209.3,0.186949,0.186591,29.1339,34,0.0098917,10,0.00543614,-1.5356,-1.5776,-0.0373986,-42.4582,0.186591,
2,1,0,1,0,66209.3,0.189346,0.188988,29.0035,34,0.0100661,10,0.00548132,-1.53755,-1.112,-0.0530576,-59.9734,0.188988,
2,1,0,1,0,66209.3,0.191743,0.19143,28.8324,34,0.0102396,10,0.00551939,-1.54012,-0.894285,-0.0659745,-74.1846,0.19143,
2,1,0,1,0,66209.3,0.19414,0.193797,28.6389,34,0.0104121,10,0.00555014,-1.54304,-0.736667,-0.0800904,-89.4069,0.1937969,
2,1,0,1,0,66209.3,0.196548,0.19622,28.4123,34,0.0105832,10,0.00557506,-1.54649,-0.613999,-0.0960914,-106.369,0.19622,
2,1,0,1,0,66209.3,0.198945,0.198626,28.1241,34,0.0107528,10,0.00558617,-1.55092,-0.532966,-0.110701,-121.419,0.198626,
2,1,0,1,0,66209.3,0.201342,0.201034,27.8249,34,0.0109206,10,0.00559377,-1.55557,-0.477389,-0.123589,-134.054,0.201034,
2,1,0,1,0,66209.3,0.203748,0.203422,27.4912,34,0.0110865,10,0.00559232,-1.56081,-0.439005,-0.134395,-144.007,0.203422,
2,1,0,1,0,66209.3,0.206145,0.205802,27.116,34,0.0112503,10,0.00558051,-1.56678,-0.395657,-0.149119,-157.725,0.205802,
2,1,0,1,0,66209.3,0.208542,0.20819,26.7395,34,0.0114119,10,0.00556689,-1.57285,-0.382922,-0.154078,-160.666,0.20819,
2,1,0,1,0,66209.4,0.210939,0.210623,26.332,34,0.0115711,10,0.00554615,-1.57952,-0.353627,-0.166843,-171.378,0.210623,
2,1,0,1,0,66209.4,0.213347,0.213028,25.9185,34,0.0117278,10,0.00552139,-1.58639,-0.340977,-0.173032,-174.909,0.213028,
2,1,0,1,0,66209.4,0.215744,0.215455,25.4872,34,0.011882,10,0.00549135,-1.59368,-0.323369,-0.182454,-181.414,0.215455,
2,1,0,1,0,66209.4,0.218141,0.217814,25.046,34,0.0120335,10,0.00545538,-1.60126,-0.316733,-0.186277,-182.083,0.217814,
2,1,0,1,0,66209.4,0.220547,0.220218,24.6189,34,0.0121825,10,0.00542152,-1.60873,-0.309933,-0.190364,-182.788,0.220218,
2,1,0,1,0,66209.4,0.222944,0.222604,24.1746,34,0.0123288,10,0.00538136,-1.61664,-0.305672,-0.193017,-182.146,0.222604,
2,1,0,1,0,66209.4,0.225341,0.225,23.7433,34,0.0124725,10,0.00534225,-1.62446,-0.308029,-0.19154,-177.558,0.225,
2,1,0,1,0,66209.4,0.227744,0.227442,23.326,34,0.0126137,10,0.0053053,-1.63216,-0.306647,-0.192404,-175.115,0.227442,
2,1,0,1,0,66209.4,0.230146,0.22983,22.9003,34,0.0127523,10,0.00526316,-1.64016,-0.308061,-0.19152,-171.246,0.22983,
2,1,0,1,0,66209.4,0.232543,0.232213,22.4991,34,0.0128885,10,0.00522458,-1.64784,-0.313717,-0.188068,-165.171,0.232213,
2,1,0,1,0,66209.4,0.234941,0.234631,22.1113,34,0.0130223,10,0.005188,-1.65539,-0.31904,-0.18493,-159.573,0.234631,
2,1,0,1,0,66209.4,0.237349,0.237062,21.729,34,0.0131537,10,0.00515111,-1.66296,-0.320792,-0.18392,-155.989,0.237062,
2,1,0,1,0,66209.4,0.239746,0.239387,21.3547,34,0.0132829,10,0.00511205,-1.67051,-0.322677,-0.182845,-152.502,0.239387,
2,1,0,1,0,66209.4,0.242143,0.241841,21.0067,34,0.01341,10,0.00508028,-1.67764,-0.333466,-0.176929,-145.124,0.241841,
2,1,0,1,0,66209.4,0.244548,0.244221,20.671,34,0.013535,10,0.0050483,-1.68464,-0.340455,-0.173297,-139.839,0.2442214,
2,1,0,1,0,66209.4,0.246946,0.246615,20.3423,34,0.013658,10,0.00501671,-1.6916,-0.346778,-0.170138,-135.12,0.246615,
2,1,0,1,0,66209.4,0.249343,0.249055,20.0295,34,0.0137791,10,0.00498843,-1.69833,-0.362289,-0.162854,-127.399,0.249055,
2,1,0,1,0,66209.5,0.25174,0.251422,19.7342,34,0.0138983,10,0.0049616,-1.70478,-0.376428,-0.156737,-120.731,0.251422,
2,1,0,1,0,66209.5,0.254148,0.253862,19.4527,34,0.0140158,10,0.00493828,-1.71102,-0.387472,-0.152269,-115.606,0.253862,
2,1,0,1,0,66209.5,0.256545,0.256279,19.1706,34,0.0141316,10,0.00491304,-1.71736,-0.401616,-0.146907,-109.99,0.256279,
2,1,0,1,0,66209.5,0.258942,0.258659,18.9148,34,0.0142459,10,0.00489248,-1.7232,-0.415616,-0.141958,-104.789,0.258659,
2,1,0,1,0,66209.5,0.261348,0.261037,18.6615,34,0.0143586,10,0.00487134,-1.72905,-0.4188,-0.140879,-102.658,0.261037,
2,1,0,1,0,66209.5,0.263745,0.26337,18.4234,34,0.0144698,10,0.00485219,-1.73463,-0.429267,-0.137444,-98.8737,0.26337,
2,1,0,1,0,66209.5,0.266142,0.265828,18.1959,34,0.0145796,10,0.00483698,-1.74003,-0.447672,-0.131793,-93.6158,0.265828,
2,1,0,1,0,66209.5,0.268539,0.268213,17.9716,34,0.0146881,10,0.00482021,-1.74541,-0.463486,-0.127296,-89.3439,0.268213,
2,1,0,1,0,66209.5,0.270947,0.270653,17.7684,34,0.0147953,10,0.00480906,-1.75035,-0.476901,-0.123715,-85.8151,0.270653,
2,1,0,1,0,66209.5,0.273344,0.273031,17.5696,34,0.0149013,10,0.00479704,-1.75524,-0.487804,-0.12095,-82.9395,0.273031,
2,1,0,1,0,66209.5,0.275741,0.275419,17.3727,34,0.0150061,10,0.00478477,-1.76013,-0.512759,-0.115064,-78.0466,0.275419,
2,1,0,1,0,66209.5,0.278149,0.277852,17.1895,34,0.0151098,10,0.00477615,-1.76474,-0.528972,-0.111537,-74.8421,0.277852,
2,1,0,1,0,66209.5,0.280547,0.280231,17.0074,34,0.0152123,10,0.00476598,-1.76936,-0.543264,-0.108603,-72.1175,0.280231,
2,1,0,1,0,66209.5,0.282944,0.282631,16.8389,34,0.0153139,10,0.00475922,-1.77369,-0.558879,-0.105569,-69.4176,0.282631,
2,1,0,1,0,66209.5,0.285344,0.285032,16.6785,34,0.0154144,10,0.00475392,-1.77784,-0.561912,-0.104999,-68.3513,0.285032,
2,1,0,1,0,66209.5,0.287746,0.287407,16.5113,34,0.015514,10,0.00474547,-1.78222,-0.58689,-0.10053,-64.8198,0.287407,
2,1,0,1,0,66209.5,0.290143,0.289831,16.3635,34,0.0156126,10,0.00474265,-1.78612,-0.587205,-0.100476,-64.1711,0.289831,
2,1,0,1,0,66209.6,0.29254,0.292232,16.2187,34,0.0157103,10,0.00473964,-1.78998,-0.625523,-0.094321,-59.723,0.292232,
2,1,0,1,0,66209.6,0.294949,0.294636,16.08,34,0.0158072,10,0.00473775,-1.79371,-0.646468,-0.0912652,-57.2865,0.294636,
2,1,0,1,0,66209.6,0.297346,0.297037,15.9468,34,0.0159032,10,0.00473678,-1.79733,-0.674213,-0.0875094,-54.5172,0.297037,
2,1,0,1,0,66209.6,0.299621,0.299355,15.8126,34,0.0159937,10,0.00473359,-1.801,-0.0994223,-0.593428,-357.459,0.299355,
2,1,0,1,0,66209.6,0.299962,0.299708,15.6856,34,0.0160127,10,0.00470112,-1.8045,0.0155161,3.80251,2061.6,0.299708,
2,1,0,1,0,66209.6,0.297903,0.297636,12.9018,34,0.0160843,10,0.00384005,-1.88935,0.0268247,2.19947,1091.01,0.297636,
2,1,0,1,0,66209.6,0.295506,0.295214,10.6905,34,0.0161546,10,0.003156,-1.971,0.0294237,2.00519,849.499,0.295214,
2,1,0,1,0,66209.6,0.293101,0.29286,8.89328,34,0.0162131,10,0.00260449,-2.05094,0.0296635,1.98897,693.931,0.29286,
2,1,0,1,0,66209.6,0.290704,0.290436,7.35239,34,0.0162616,10,0.0021354,-2.13357,0.0280609,2.10257,603.611,0.290436,
2,1,0,1,0,66209.6,0.288307,0.287965,6.00287,34,0.0163014,10,0.00172862,-2.22164,0.0258058,2.28631,533.559,0.287965,
2,1,0,1,0,66209.6,0.28591,0.28564,4.8189,34,0.0163337,10,0.00137647,-2.31705,0.0231778,2.54554,472.513,0.28564,
2,1,0,1,0,66209.6,0.283501,0.283168,3.73577,34,0.0163592,10,0.00105785,-2.42762,0.0196888,2.99663,429.267,0.283168,
2,1,0,1,0,66209.6,0.281104,0.280796,2.7696,34,0.0163785,10,0.000777693,-2.55758,0.016058,3.67418,383.155,0.280796,
2,1,0,1,0,66209.6,0.278707,0.278421,1.90478,34,0.0163925,10,0.000530329,-2.72016,0.0115843,5.09312,344.771,0.278421,
2,1,0,1,0,66209.6,0.276302,0.27602,1.10196,34,0.0164014,10,0.000304164,-2.95783,0.00553014,10.6688,316.254,0.27602,
2,1,0,1,0,66209.6,0.273905,0.273605,0.373107,34,0.0164057,10,0.000102084,-3.42817,0.0148763,3.96605,290.878,0.273605,
2,0,0,1,0,66209.6,0.271508,0.27119,-0.290168,34,0.0164059,10,-7.86906e-05,-3.53735,-0.0249412,-2.36556,268.452,0.2711896,
2,0,0,1,0,66209.7,0.269105,0.268787,-0.905953,34,0.0164022,10,-0.000243508,-3.04289,-0.00477425,-12.358,248.574,0.268787,
2,0,0,1,0,66209.7,0.266702,0.266422,-1.4799,34,0.0163949,10,-0.000394278,-2.82977,-0.0130909,-4.50695,229.603,0.266422,
2,0,0,1,0,66209.7,0.264305,0.263976,-2.0106,34,0.0163844,10,-0.000530749,-2.69667,-0.0206517,-2.85691,210.683,0.263976,
2,0,0,1,0,66209.7,0.261908,0.261616,-2.48826,34,0.0163708,10,-0.000650969,-2.6041,-0.0280864,-2.10066,197.949,0.261616,
2,0,0,1,0,66209.7,0.2595,0.259259,-2.95535,34,0.0163544,10,-0.000766202,-2.52939,-0.0360275,-1.63764,184.608,0.259259,
2,0,0,1,0,66209.7,0.257103,0.256821,-3.3857,34,0.0163354,10,-0.000869519,-2.47035,-0.0446473,-1.32147,171.381,0.256821,
2,0,0,1,0,66209.7,0.254706,0.254399,-3.77803,34,0.0163138,10,-0.000961127,-2.42274,-0.0536102,-1.10054,160.465,0.254399,
2,0,0,1,0,66209.7,0.2523,0.251994,-4.15558,34,0.01629,10,-0.00104718,-2.38137,-0.0624934,-0.9441,151.743,0.251994,
2,0,0,1,0,66209.7,0.249903,0.249586,-4.51282,34,0.016264,10,-0.00112634,-2.34555,-0.072146,-0.817787,142.606,0.249586,
2,0,0,1,0,66209.7,0.247506,0.247212,-4.84122,34,0.0162359,10,-0.00119681,-2.31504,-0.0826256,-0.714064,134.033,0.247212,
2,0,0,1,0,66209.7,0.245109,0.244789,-5.15161,34,0.0162059,10,-0.00126106,-2.28806,-0.0927,-0.636462,127.385,0.244789,
2,0,0,1,0,66209.7,0.242701,0.242337,-5.45521,34,0.016174,10,-0.001322,-2.26319,-0.102764,-0.574131,121.467,0.242337,
2,0,0,1,0,66209.7,0.240304,0.239955,-5.73305,34,0.0161404,10,-0.00137568,-2.24161,-0.116448,-0.506665,112.902,0.239955,
2,0,0,1,0,66209.7,0.237906,0.237569,-5.99566,34,0.0161052,10,-0.00142439,-2.22216,-0.126865,-0.465061,108.599,0.237569,
2,0,0,1,0,66209.7,0.235501,0.235207,-6.25844,34,0.0160684,10,-0.00147203,-2.20353,-0.13691,-0.430941,104.931,0.235207,
2,0,0,1,0,66209.7,0.233104,0.232781,-6.49869,34,0.0160302,10,-0.00151277,-2.18717,-0.150253,-0.392672,99.2925,0.232781,
2,0,0,1,0,66209.7,0.230707,0.230433,-6.72603,34,0.0159904,10,-0.0015499,-2.17224,-0.162721,-0.362585,95.0869,0.2304329,
2,0,0,1,0,66209.8,0.22831,0.22804,-6.93956,34,0.0159494,10,-0.0015825,-2.15867,-0.176525,-0.334229,90.5645,0.22804,
2,0,0,1,0,66209.8,0.225902,0.225587,-7.17398,34,0.015907,10,-0.00161835,-2.14424,-0.187478,-0.314704,87.8029,0.225587,
2,0,0,1,0,66209.8,0.223504,0.223216,-7.36867,34,0.0158633,10,-0.0016448,-2.13261,-0.205893,-0.286557,82.333,0.223216,
2,0,0,1,0,66209.8,0.221107,0.220816,-7.56277,34,0.0158185,10,-0.00166998,-2.12132,-0.215845,-0.273344,80.7329,0.220816,
2,0,0,1,0,66209.8,0.218699,0.218354,-7.76951,34,0.0157725,10,-0.0016965,-2.10961,-0.225407,-0.261749,79.1236,0.218354,
2,0,0,1,0,66209.8,0.216302,0.216006,-7.94541,34,0.0157254,10,-0.00171626,-2.09988,-0.247694,-0.238198,73.7619,0.216006,
2,0,0,1,0,66209.8,0.213905,0.213609,-8.11364,34,0.0156772,10,-0.00173314,-2.09078,-0.256215,-0.230276,72.9759,0.2136085,
2,0,0,1,0,66209.8,0.211505,0.21114,-8.29187,34,0.015628,10,-0.00175075,-2.08135,-0.266254,-0.221593,71.6473,0.21114,
2,0,0,1,0,66209.8,0.209102,0.208788,-8.45855,34,0.0155777,10,-0.00176604,-2.0727,-0.275716,-0.213989,70.5864,0.208788,
2,0,0,1,0,66209.8,0.206705,0.206387,-8.62367,34,0.0155264,10,-0.00177981,-2.06431,-0.299575,-0.196945,66.2147,0.206387,
2,0,0,1,0,66209.8,0.204308,0.203973,-8.77847,34,0.0154742,10,-0.00179057,-2.05658,-0.306868,-0.192265,65.8588,0.203973,
2,0,0,1,0,66209.8,0.2019,0.201572,-8.94441,34,0.015421,10,-0.00180294,-2.04845,-0.318574,-0.1852,64.5551,0.201572,
2,0,0,1,0,66209.8,0.199503,0.199169,-9.09296,34,0.0153669,10,-0.00181103,-2.04129,-0.343466,-0.171778,60.8802,0.199169,
2,0,0,1,0,66209.8,0.197106,0.196813,-9.22935,34,0.0153119,10,-0.00181645,-2.03483,-0.345997,-0.170522,61.4993,0.196813,
2,0,0,1,0,66209.8,0.194709,0.194348,-9.38037,34,0.0152561,10,-0.00182306,-2.02778,-0.355705,-0.165868,60.6911,0.194348,
2,0,0,1,0,66209.8,0.192303,0.191962,-9.52673,34,0.0151993,10,-0.00182877,-2.02106,-0.367534,-0.160529,59.6151,0.191962,
2,0,0,1,0,66209.8,0.189906,0.189586,-9.66206,34,0.0151417,10,-0.00183179,-2.01493,-0.388891,-0.151713,57.2373,0.189586,
2,0,0,1,0,66209.9,0.187509,0.187181,-9.80277,34,0.0150833,10,-0.00183489,-2.00865,-0.383571,-0.153818,58.8439,0.187181,
2,0,0,1,0,66209.9,0.185101,0.184742,-9.95072,34,0.015024,10,-0.00183832,-2.00215,-0.393307,-0.15001,58.1768,0.184742,
2,0,0,1,0,66209.9,0.182704,0.182431,-10.076,34,0.014964,10,-0.00183819,-1.99671,-0.414135,-0.142466,56.0597,0.182431,
2,0,0,1,0,66209.9,0.180307,0.179969,-10.213,34,0.0149031,10,-0.00183802,-1.99085,-0.405941,-0.145341,57.9535,0.179969,
2,0,0,1,0,66209.9,0.177904,0.177591,-10.3527,34,0.0148413,10,-0.00183854,-1.98495,-0.41152,-0.143371,57.9355,0.177591,
2,0,0,1,0,66209.9,0.175501,0.175165,-10.4981,34,0.0147788,10,-0.00183889,-1.97889,-0.421265,-0.140054,57.3576,0.175165,
2,0,0,1,0,66209.9,0.173104,0.172775,-10.6338,34,0.0147154,10,-0.00183727,-1.97331,-0.420144,-0.140428,58.2648,0.172775,
2,0,0,1,0,66209.9,0.170707,0.17036,-10.7685,34,0.0146512,10,-0.00183452,-1.96784,-0.414966,-0.14218,59.7823,0.17036,
2,0,0,1,0,66209.9,0.168302,0.167958,-10.9251,34,0.0145861,10,-0.00183495,-1.96158,-0.414303,-0.142408,60.6516,0.167958,
2,0,0,1,0,66209.9,0.165905,0.165582,-11.058,34,0.0145201,10,-0.001831,-1.95632,-0.418746,-0.140897,60.8394,0.165582,
2,0,0,1,0,66209.9,0.163507,0.163178,-11.203,34,0.0144533,10,-0.00182808,-1.95066,-0.401839,-0.146825,64.2784,0.1631777,
2,0,0,1,0,66209.9,0.161099,0.160807,-11.3734,34,0.0143856,10,-0.00182891,-1.94411,-0.401352,-0.147003,65.1713,0.160807,
2,0,0,1,0,66209.9,0.158702,0.158359,-11.5151,34,0.0143169,10,-0.00182353,-1.93873,-0.398587,-0.148023,66.5681,0.158359,
2,0,0,1,0,66209.9,0.156305,0.155973,-11.6884,34,0.0142473,10,-0.00182308,-1.93225,-0.374651,-0.15748,71.9216,0.155973,
2,0,0,1,0,66209.9,0.153908,0.153536,-11.8639,34,0.0141766,10,-0.00182154,-1.92577,-0.362598,-0.162715,75.3387,0.153536,
2,0,0,1,0,66209.9,0.151503,0.151168,-12.051,34,0.0141049,10,-0.00182171,-1.91898,-0.354286,-0.166532,78.3539,0.151168,
2,0,0,1,0,66210,0.149105,0.148807,-12.2367,34,0.014032,10,-0.00182091,-1.91233,-0.338191,-0.174458,83.4197,0.148807,
2,0,0,1,0,66210,0.146708,0.14643,-12.4533,34,0.0139579,10,-0.00182353,-1.90472,-0.317239,-0.18598,90.4483,0.14643,
2,0,0,1,0,66210,0.1443,0.143954,-12.6816,34,0.0138825,10,-0.00182557,-1.89683,-0.297918,-0.198041,98.0835,0.143954,
2,0,0,1,0,66210,0.141903,0.141586,-12.9261,34,0.0138057,10,-0.00183016,-1.88853,-0.281476,-0.20961,105.832,0.141586,
2,0,0,1,0,66210,0.139506,0.139171,-13.1827,34,0.0137274,10,-0.00183465,-1.88,-0.259586,-0.227285,117.166,0.139171,
2,0,0,1,0,66210,0.137109,0.136783,-13.4793,34,0.0136474,10,-0.00184374,-1.87033,-0.242373,-0.243427,128.253,0.136783,
2,0,0,1,0,66210,0.134701,0.13436,-13.8005,34,0.0135655,10,-0.00185424,-1.8601,-0.228811,-0.257855,139.005,0.13436,
2,0,0,1,0,66210,0.132303,0.132002,-14.134,34,0.0134817,10,-0.00186571,-1.84974,-0.215341,-0.273984,151.516,0.132002,
2,0,0,1,0,66210,0.129906,0.129596,-14.5267,34,0.0133957,10,-0.0018826,-1.83783,-0.204575,-0.288403,163.683,0.129596,
2,0,0,1,0,66210,0.127501,0.127241,-14.94,34,0.0133072,10,-0.00190098,-1.82565,-0.19537,-0.301992,176.182,0.127241,
2,0,0,1,0,66210,0.125104,0.124777,-15.3641,34,0.0132163,10,-0.00191709,-1.81349,-0.191371,-0.308301,185.207,0.124777,
2,0,0,1,0,66210,0.122707,0.122433,-15.8383,34,0.0131226,10,-0.00193912,-1.80029,-0.185106,-0.318736,197.149,0.122433,
2,0,0,1,0,66210,0.12031,0.119983,-16.3176,34,0.0130261,10,-0.00195784,-1.78734,-0.184306,-0.320119,203.933,0.1199831,
2,0,0,1,0,66210,0.117901,0.117616,-16.8196,34,0.0129267,10,-0.00197826,-1.77418,-0.184182,-0.320336,210.34,0.117616,
2,0,0,1,0,66210,0.115504,0.115141,-17.3355,34,0.0128242,10,-0.00199603,-1.76106,-0.185022,-0.31888,215.656,0.115141,
2,0,0,1,0,66210,0.113107,0.112799,-17.8526,34,0.0127186,10,-0.00201376,-1.7483,-0.186291,-0.316708,220.595,0.112799,
2,0,0,1,0,66210,0.110702,0.110391,-18.3834,34,0.0126098,10,-0.00202936,-1.73557,-0.195091,-0.302424,216.784,0.110391,
2,0,0,1,0,66210.1,0.108305,0.107978,-18.9048,34,0.0124979,10,-0.00204131,-1.72343,-0.197672,-0.298475,220.116,0.107978,
2,0,0,1,0,66210.1,0.105908,0.105587,-19.4294,34,0.0123829,10,-0.00205149,-1.71154,-0.206933,-0.285117,216.018,0.105587,
2,0,0,1,0,66210.1,0.103505,0.10318,-19.9528,34,0.0122647,10,-0.00205873,-1.7,-0.220233,-0.267899,208.124,0.10318,
2,0,0,1,0,66210.1,0.101102,0.100824,-20.4124,34,0.0121435,10,-0.00205806,-1.6901,-0.227015,-0.259895,207.243,0.100824,
2,0,0,1,0,66210.1,0.0987052,0.0984272,-20.9305,34,0.0120194,10,-0.00206013,-1.67922,-0.230781,-0.255654,208.806,0.0984272,
2,0,0,1,0,66210.1,0.0963081,0.0960465,-21.4304,34,0.0118923,10,-0.00205831,-1.66897,-0.241665,-0.24414,203.961,0.0960465,
2,0,0,1,0,66210.1,0.0938999,0.0935991,-21.9138,34,0.0117622,10,-0.00205112,-1.65928,-0.25574,-0.230703,197.085,0.0935991,
2,0,0,1,0,66210.1,0.0915028,0.0911835,-22.3763,34,0.0116293,10,-0.00204035,-1.65021,-0.272583,-0.216448,188.845,0.0911835,
2,0,0,1,0,66210.1,0.0891057,0.0888315,-22.8279,34,0.0114936,10,-0.00202783,-1.64153,-0.287733,-0.205052,182.425,0.0888315,
2,0,0,1,0,66210.1,0.0867002,0.0864234,-23.2496,34,0.0113554,10,-0.00200931,-1.63358,-0.309904,-0.190382,172.573,0.0864234,
2,0,0,1,0,66210.1,0.0843031,0.0840332,-23.6542,34,0.0112146,10,-0.00198774,-1.62609,-0.332005,-0.177708,163.863,0.0840332,
2,0,0,1,0,66210.1,0.081906,0.0816356,-24.0323,34,0.0110715,10,-0.00196189,-1.6192,-0.359453,-0.164138,153.795,0.0816356,
2,0,0,1,0,66210.1,0.0795089,0.0792062,-24.3879,34,0.0109262,10,-0.00193168,-1.61283,-0.391049,-0.150876,143.512,0.0792062,
2,0,0,1,0,66210.1,0.0771007,0.076797,-24.7327,34,0.0107788,10,-0.0018994,-1.60673,-0.419098,-0.140779,135.723,0.076797,
2,0,0,1,0,66210.1,0.0747036,0.0744344,-25.039,34,0.0106294,10,-0.00186376,-1.60138,-0.459729,-0.128337,125.32,0.0744344,
2,0,0,1,0,66210.1,0.0723065,0.0720283,-25.3323,34,0.0104783,10,-0.00182465,-1.59632,-0.501018,-0.11776,116.306,0.0720283,
2,0,0,1,0,66210.1,0.0699011,0.0696308,-25.6057,34,0.0103254,10,-0.00178295,-1.59166,-0.556248,-0.106068,105.888,0.06963075,
2,0,0,1,0,66210.2,0.067504,0.0672417,-25.8465,34,0.0101711,10,-0.00173796,-1.5876,-0.595905,-0.0990092,99.8074,0.0672417,
2,0,0,1,0,66210.2,0.0651069,0.0648207,-26.0757,34,0.0100153,10,-0.00169025,-1.58376,-0.667309,-0.0884148,89.8831,0.0648207,
2,0,0,1,0,66210.2,0.0627098,0.0623617,-26.2684,34,0.0098582,10,-0.00163814,-1.58057,-0.76235,-0.0773922,79.3062,0.0623617,
2,0,0,1,0,66210.2,0.0603016,0.0600076,-26.4473,34,0.0097,10,-0.00158704,-1.57762,-0.873836,-0.0675184,69.654,0.0600076,
2,0,0,1,0,66210.2,0.0579045,0.0575856,-26.6099,34,0.00954079,10,-0.00153235,-1.57496,-1.02299,-0.0576739,59.8395,0.0575856,
2,0,0,1,0,66210.2,0.0555074,0.0552071,-26.7389,34,0.00938071,10,-0.00147618,-1.57286,-1.18027,-0.0499885,52.1406,0.0552071,
2,0,0,1,0,66210.2,0.0530992,0.0527565,-26.8632,34,0.0092199,10,-0.00141721,-1.57084,-1.34713,-0.0437969,45.8845,0.0527565,
2,0,0,1,0,66210.2,0.0507021,0.0504215,-26.9633,34,0.00905841,10,-0.00135953,-1.56923,-1.58597,-0.0372012,39.1237,0.0504215,
2,0,0,1,0,66210.2,0.048305,0.0479465,-27.0503,34,0.00889638,10,-0.00129697,-1.56783,-1.89921,-0.0310656,32.7816,0.0479465,
2,0,0,1,0,66210.2,0.0459051,0.0455723,-27.1184,34,0.00873388,10,-0.00123585,-1.56674,-2.29815,-0.0256729,27.1593,0.0455723,
2,0,0,1,0,66210.2,0.0435024,0.0431948,-27.1728,34,0.00857097,10,-0.00117373,-1.56587,-2.64052,-0.0223441,23.6887,0.0431948,
2,0,0,1,0,66210.2,0.0411053,0.0408025,-27.2221,34,0.00840776,10,-0.00111073,-1.56508,-3.63274,-0.0162412,17.2503,0.0408025,
2,0,0,1,0,66210.2,0.0387082,0.0383785,-27.2564,34,0.00824429,10,-0.00104606,-1.56453,-4.56793,-0.0129161,13.7378,0.0383785,
2,0,0,1,0,66210.2,0.0363,0.0359883,-27.2838,34,0.00808065,10,-0.000981898,-1.56409,-6.38589,-0.00923912,9.8376,0.0359883,
2,0,0,1,0,66210.2,0.0339029,0.0336003,-27.3174,34,0.00791684,10,-0.000917871,-1.56356,-13.1373,-0.00449104,4.78364,0.03360026,
2,0,0,1,0,66210.2,0.0315058,0.0311836,-27.3212,34,0.00775294,10,-0.000851972,-1.5635,-57.3059,-0.00102956,1.09744,0.0311836,
2,0,0,1,0,66210.3,0.0291087,0.0287977,-27.3084,34,0.00758907,10,-0.000786419,-1.5637,232.655,0.000253594,-0.270365,0.0287977,
2,0,0,1,0,66210.3,0.0267033,0.0263853,-27.319,34,0.00742515,10,-0.000720818,-1.56354,19.0097,0.00310368,-3.30714,0.0263853,
2,0,0,1,0,66210.3,0.0243062,0.0239962,-27.307,34,0.00726126,10,-0.000655264,-1.56373,6.92159,0.00852405,-9.08129,0.0239962,
2,0,0,1,0,66210.3,0.0219091,0.0215753,-27.2826,34,0.00709751,10,-0.000588629,-1.56411,6.61643,0.00891719,-9.49481,0.02157525,
2,0,0,1,0,66210.3,0.0195009,0.0191363,-27.261,34,0.00693389,10,-0.000521676,-1.56446,5.62612,0.0104868,-11.1533,0.0191363,
2,0,0,1,0,66210.3,0.0171038,0.0167918,-27.2215,34,0.00677044,10,-0.000457097,-1.56509,3.65565,0.0161394,-17.145,0.0167918,
2,0,0,1,0,66210.3,0.0147067,0.0143952,-27.1828,34,0.00660721,10,-0.000391303,-1.56571,3.42415,0.0172306,-18.2732,0.01439524,
2,0,0,1,0,66210.3,0.012304,0.011969,-27.1359,34,0.00644427,10,-0.00032479,-1.56646,2.88426,0.0204558,-21.6563,0.011969,
2,0,0,1,0,66210.3,0.00990136,0.00961917,-27.0804,34,0.00628164,10,-0.000260491,-1.56735,2.36621,0.0249344,-26.3368,0.00961917,
2,0,0,1,0,66210.3,0.00750426,0.00721205,-27.0082,34,0.00611938,10,-0.000194784,-1.5685,1.97908,0.0298119,-31.4117,0.00721205,
2,0,0,1,0,66210.3,0.00510715,0.00478796,-26.9205,34,0.0059576,10,-0.000128894,-1.56992,2.37252,0.0248681,-26.1578,0.00478796,
2,0,0,1,0,66210.3,0.00270173,0.00238189,-26.8512,34,0.00579627,10,-6.39568e-05,-1.57104,1.96747,0.0299877,-31.4264,0.00238189,
2,0,0,1,0,66210.3,0.000304624,-0.000132329,-26.795,34,0.00563524,10,3.54577e-06,-1.57195,1.62945,0.0362086,-37.8137,-0.000132329,
2,0,0,1,0,66210.3,-0.00209248,-0.00248537,-26.672,34,0.00547486,10,6.62898e-05,-1.57394,1.3282,0.0444209,-46.2507,-0.00248537,
2,0,0,1,0,66210.3,-0.00450068,-0.00484372,-26.5671,34,0.00531517,10,0.000128683,-1.57566,1.26259,0.0467292,-48.4271,-0.00484372,
2,0,0,1,0,66210.3,-0.00689779,-0.0072869,-26.4451,34,0.00515613,10,0.000192703,-1.57765,1.21805,0.0484379,-49.964,-0.007286896,
2,0,0,1,0,66210.3,-0.00929489,-0.00962509,-26.3147,34,0.00499788,10,0.000253281,-1.5798,1.13414,0.0520216,-53.4346,-0.009625094,
2,0,0,1,0,66210.4,-0.011692,-0.0120481,-26.1758,34,0.00484041,10,0.000315369,-1.5821,1.11592,0.052871,-54.0192,-0.0120481,
2,0,0,1,0,66210.4,-0.0140974,-0.0144531,-26.052,34,0.00468369,10,0.000376532,-1.58416,1.05869,0.0557292,-56.649,-0.0144531,
2,0,0,1,0,66210.4,-0.0164945,-0.016874,-25.9108,34,0.0045278,10,0.00043722,-1.58652,0.994233,0.0593422,-60.004,-0.016874,
2,0,0,1,0,66210.4,-0.0188916,-0.0192727,-25.768,34,0.00437279,10,0.000496618,-1.58892,1.011,0.0583583,-58.6956,-0.0192727,
2,0,0,1,0,66210.4,-0.0212998,-0.0216703,-25.6284,34,0.00421862,10,0.000555373,-1.59128,1.02747,0.0574226,-57.4347,-0.0216703,
2,0,0,1,0,66210.4,-0.0236969,-0.0240721,-25.4954,34,0.00406528,10,0.000613727,-1.59354,0.972785,0.0606506,-60.3149,-0.0240721,
2,0,0,1,0,66210.4,-0.026094,-0.026423,-25.3446,34,0.00391278,10,0.000669681,-1.59611,1.04366,0.0565317,-55.9334,-0.026423,
2,0,0,1,0,66210.4,-0.0284912,-0.0288397,-25.2055,34,0.00376118,10,0.000726917,-1.59851,1.07084,0.0550971,-54.2201,-0.0288397,
2,0,0,1,0,66210.4,-0.0308994,-0.031268,-25.0861,34,0.0036103,10,0.000784393,-1.60057,1.07578,0.054844,-53.662,-0.031268,
2,0,0,1,0,66210.4,-0.0332965,-0.0336688,-24.9449,34,0.00346022,10,0.000839864,-1.60302,1.09153,0.0540528,-52.6541,-0.0336688,
2,0,0,1,0,66210.4,-0.0356936,-0.0360536,-24.8208,34,0.00331095,10,0.000894879,-1.60518,1.15826,0.0509385,-49.3838,-0.0360536,
2,0,0,1,0,66210.4,-0.038099,-0.0384724,-24.7216,34,0.00316232,10,0.000951098,-1.60692,1.23803,0.0476562,-45.9571,-0.0384724,
2,0,0,1,0,66210.4,-0.0404961,-0.0409103,-24.6057,34,0.00301434,10,0.00100663,-1.60896,1.21155,0.0486978,-46.7749,-0.0409103,
2,0,0,1,0,66210.4,-0.0428932,-0.04324,-24.4945,34,0.00286707,10,0.00105914,-1.61093,1.44988,0.0406931,-38.9345,-0.04324,
2,0,0,1,0,66210.4,-0.0452903,-0.0456408,-24.4085,34,0.00272037,10,0.00111402,-1.61246,1.5841,0.0372451,-35.4836,-0.0456408,
2,0,0,1,0,66210.4,-0.0476985,-0.047998,-24.3294,34,0.00257415,10,0.00116776,-1.61387,1.65338,0.0356844,-33.8849,-0.047998,
2,0,0,1,0,66210.4,-0.0500956,-0.0504508,-24.2482,34,0.00242844,10,0.00122334,-1.61532,1.77514,0.0332369,-31.4633,-0.0504508,
2,0,0,1,0,66210.5,-0.0524927,-0.0528494,-24.1766,34,0.00228317,10,0.00127772,-1.6166,2.11861,0.0278485,-26.2921,-0.0528494,
2,0,0,1,0,66210.5,-0.0548981,-0.0552629,-24.1277,34,0.00213827,10,0.00133337,-1.61748,2.34414,0.0251692,-23.6975,-0.0552629,
2,0,0,1,0,66210.5,-0.0572953,-0.0576753,-24.0698,34,0.0019937,10,0.00138824,-1.61853,2.46322,0.0239524,-22.5026,-0.0576753,
2,0,0,1,0,66210.5,-0.0596924,-0.0600496,-24.0088,34,0.00184947,10,0.00144172,-1.61963,3.43832,0.0171595,-16.0958,-0.06004956,
2,0,0,1,0,66210.5,-0.062095,-0.062479,-23.9911,34,0.00170548,10,0.00149894,-1.61995,4.04606,0.0145821,-13.6481,-0.06247896,
2,0,0,1,0,66210.5,-0.0644977,-0.0648638,-23.9574,34,0.00156162,10,0.00155397,-1.62056,4.8699,0.0121152,-11.3279,-0.0648638,
2,0,0,1,0,66210.5,-0.0668948,-0.0672253,-23.9268,34,0.00141798,10,0.00160849,-1.62112,6.18446,0.00954003,-8.91597,-0.0672253,
2,0,0,1,0,66210.5,-0.0692919,-0.0696759,-23.9111,34,0.00127446,10,0.00166603,-1.6214,15.7836,0.00373805,-3.49042,-0.0696759,
2,0,0,1,0,66210.5,-0.0717001,-0.0720756,-23.9141,34,0.00113094,10,0.00172363,-1.62135,31.2018,0.00189092,-1.76504,-0.0720756,
2,0,0,1,0,66210.5,-0.0740972,-0.0744541,-23.9043,34,0.000987485,10,0.00177977,-1.62152,57.332,0.00102909,-0.960923,-0.0744541,
2,0,0,1,0,66210.5,-0.0764943,-0.0768666,-23.9224,34,0.000844006,10,0.00183883,-1.62119,-9.23099,-0.00639152,5.96807,-0.07686656,
2,0,0,1,0,66210.5,-0.0788997,-0.0792896,-23.9392,34,0.000700457,10,0.00189813,-1.62089,-8.4397,-0.00699077,6.53088,-0.0792896,
2,0,0,1,0,66210.5,-0.0812968,-0.081666,-23.9525,34,0.000556781,10,0.00195611,-1.62065,-5.58232,-0.0105691,9.88089,-0.081666,
2,0,0,1,0,66210.5,-0.0836939,-0.0840699,-23.9783,34,0.000412986,10,0.00201586,-1.62018,-4.05044,-0.0145663,13.6367,-0.0840699,
2,0,0,1,0,66210.5,-0.086091,-0.0864611,-24.0108,34,0.000269024,10,0.002076,-1.61959,-3.45138,-0.0170946,16.0247,-0.0864611,
2,0,0,1,0,66210.5,-0.0884992,-0.0888619,-24.0629,34,0.000124766,10,0.00213827,-1.61865,-3.15616,-0.0186936,17.547,-0.0888619,
2,0,0,1,0,66210.6,-0.0908963,-0.0912086,-24.0945,34,-1.97071e-05,10,0.00219762,-1.61808,-3.04384,-0.0193834,18.2444,-0.0912086,
2,0,0,1,0,66210.6,-0.0932934,-0.0936136,-24.1541,34,-0.000164447,10,0.00226115,-1.61701,-2.26649,-0.0260315,24.5495,-0.09361358,
2,0,0,1,0,66210.6,-0.0956989,-0.0960249,-24.2268,34,-0.000309584,10,0.00232638,-1.6157,-2.18662,-0.0269823,25.5024,-0.09602493,
2,0,0,1,0,66210.6,-0.098096,-0.0984692,-24.2735,34,-0.000455087,10,0.00239019,-1.61487,-3.07488,-0.0191877,18.1553,-0.0984692,
2,0,0,0,0,66210.6,-0.0999548,-0.100267,-24.3252,34,-0.000569309,10,0.002439,-1.61394,0.0304383,1.93835,-1741.8,-0.100267,
2,0,0,1,1,66210.6,-0.0994555,-0.0998944,-23.1423,34,-0.00060938,10,0.00231178,-1.63559,-0.0301034,-1.95991,1642.02,-0.09989436,
2,0,0,1,1,66210.6,-0.0970583,-0.0974576,-19.7504,34,-0.000737041,10,0.00192482,-1.70442,-0.03641,-1.62043,1269.35,-0.09745755,
2,0,0,1,1,66210.6,-0.0946501,-0.095061,-17.1953,34,-0.000847428,10,0.0016346,-1.76459,-0.0407471,-1.44795,981.044,-0.095061,
2,0,0,1,1,66210.6,-0.0922531,-0.0926316,-15.0356,34,-0.00094378,10,0.00139277,-1.82288,-0.0407301,-1.44856,854.006,-0.0926316,
2,0,0,1,1,66210.6,-0.0898559,-0.0902881,-13.137,34,-0.001028,10,0.00118611,-1.88151,-0.0396397,-1.48841,762.804,-0.09028814,
2,0,0,1,1,66210.6,-0.0874588,-0.0878513,-11.3977,34,-0.00110137,10,0.0010013,-1.94318,-0.0377137,-1.56442,694.461,-0.0878513,
2,0,0,1,1,66210.6,-0.0850534,-0.0854612,-9.79605,34,-0.0011647,10,0.000837182,-2.00895,-0.0355849,-1.65801,632.664,-0.0854612,
2,0,0,1,1,66210.6,-0.0826563,-0.0830402,-8.34272,34,-0.00121891,10,0.000692782,-2.07869,-0.0321915,-1.83278,591.978,-0.0830402,
2,0,0,1,1,66210.6,-0.0802592,-0.0806565,-6.96925,34,-0.00126466,10,0.000562115,-2.15681,-0.0285566,-2.06607,555.744,-0.0806565,
2,0,0,1,1,66210.6,-0.077851,-0.078261,-5.66973,34,-0.00130242,10,0.000443718,-2.24644,-0.0248437,-2.37484,518.083,-0.078261,
2,0,0,1,1,66210.6,-0.0754539,-0.0758305,-4.48059,34,-0.00133272,10,0.000339766,-2.34866,-0.0205921,-2.86517,487.055,-0.0758305,
2,0,0,1,1,66210.6,-0.0730568,-0.0734478,-3.34637,34,-0.00135604,10,0.000245784,-2.47543,-0.0158636,-3.7192,459.719,-0.0734478,
2,0,0,1,1,66210.6,-0.0706597,-0.071046,-2.26897,34,-0.00137276,10,0.000161201,-2.64417,-0.0105598,-5.58722,437.464,-0.07104598,
2,0,0,1,1,66210.7,-0.0682542,-0.0686282,-1.25114,34,-0.00138317,10,8.58637e-05,-2.90269,-0.002731,-21.6038,416.539,-0.0686282,
2,0,0,1,1,66210.7,-0.0658571,-0.066237,-0.291228,34,-0.00138768,10,1.92901e-05,-3.53577,-0.0268231,-2.19959,386.476,-0.06623704,
2,1,0,1,1,66210.7,-0.06346,-0.063849,0.616848,34,-0.00138661,10,-3.93852e-05,-3.20982,0.0137119,4.30284,373.798,-0.06384901,
2,1,0,1,1,66210.7,-0.0610518,-0.0614366,1.49701,34,-0.00138017,10,-9.19712e-05,-2.82478,0.00698165,8.45072,353.524,-0.0614366,
2,1,0,1,1,66210.7,-0.0586547,-0.0590432,2.3111,34,-0.00136861,10,-0.000136455,-2.63618,0.0145274,4.06129,333.151,-0.05904324,
2,1,0,1,1,66210.7,-0.0562576,-0.0566817,3.09031,34,-0.00135228,10,-0.000175164,-2.51,0.0213533,2.76304,319.48,-0.0566817,
2,1,0,1,1,66210.7,-0.053855,-0.0542544,3.86202,34,-0.00133134,10,-0.000209532,-2.41319,0.0279741,2.1091,307.703,-0.0542544,
2,1,0,1,1,66210.7,-0.0514523,-0.0518484,4.56855,34,-0.00130593,10,-0.000236872,-2.34022,0.0351246,1.67974,293.493,-0.0518484,
2,1,0,1,1,66210.7,-0.0490552,-0.049455,5.25903,34,-0.00127637,10,-0.000260086,-2.27909,0.0427408,1.38041,279.518,-0.049455,
2,1,0,1,1,66210.7,-0.0466581,-0.0470893,5.91817,34,-0.00124276,10,-0.000278683,-2.22781,0.0499552,1.18106,269.484,-0.0470893,
2,1,0,1,1,66210.7,-0.0442527,-0.0447108,6.55131,34,-0.00120526,10,-0.000292914,-2.18367,0.0581717,1.01424,256.794,-0.0447108,
2,1,0,1,1,66210.7,-0.0418556,-0.0422729,7.14413,34,-0.00116412,10,-0.000302003,-2.14605,0.0674776,0.874364,242.059,-0.0422729,
2,1,0,1,1,66210.7,-0.0394585,-0.0398933,7.71415,34,-0.00111946,10,-0.000307743,-2.11271,0.0753609,0.7829,234.42,-0.0398933,
2,1,0,1,1,66210.7,-0.0370558,-0.0374735,8.26336,34,-0.00107146,10,-0.000309657,-2.08284,0.0846496,0.696991,223.615,-0.0374735,
2,1,0,1,1,66210.7,-0.0346532,-0.0350727,8.78972,34,-0.00102022,10,-0.000308279,-2.05603,0.094978,0.621197,212.036,-0.03507274,
2,1,0,1,1,66210.7,-0.0322561,-0.0326476,9.27868,34,-0.000965944,10,-0.000302927,-2.03251,0.104655,0.563755,203.565,-0.0326476,
2,1,0,1,1,66210.7,-0.029859,-0.0302034,9.76624,34,-0.000908739,10,-0.000294973,-2.01027,0.116032,0.508479,193.086,-0.0302034,
2,1,0,1,1,66210.8,-0.0274535,-0.0278291,10.2241,34,-0.000848714,10,-0.000284529,-1.99037,0.127635,0.462256,183.719,-0.0278291,
2,1,0,1,1,66210.8,-0.0250564,-0.0254591,10.6428,34,-0.000786081,10,-0.000270957,-1.97294,0.139874,0.42181,174.925,-0.0254591,
2,1,0,1,1,66210.8,-0.0226593,-0.0230689,11.0613,34,-0.000720924,10,-0.000255173,-1.95619,0.151559,0.389287,167.563,-0.0230689,
2,1,0,1,1,66210.8,-0.0202511,-0.0206067,11.4588,34,-0.000653319,10,-0.000236127,-1.94086,0.165371,0.356773,159.069,-0.0206067,
2,1,0,1,1,66210.8,-0.017854,-0.0182133,11.8226,34,-0.000583429,10,-0.00021533,-1.92729,0.178967,0.329671,151.882,-0.01821333,
2,1,0,1,1,66210.8,-0.0154569,-0.0158423,12.1789,34,-0.000511375,10,-0.000192942,-1.91439,0.194311,0.303637,144.102,-0.0158423,
2,1,0,1,1,66210.8,-0.0130598,-0.013451,12.5133,34,-0.000437233,10,-0.000168317,-1.90263,0.209286,0.281911,137.542,-0.013451,
2,1,0,1,1,66210.8,-0.0106516,-0.0110524,12.8435,34,-0.000361104,10,-0.000141952,-1.89132,0.222711,0.264917,132.614,-0.0110524,
2,1,0,1,1,66210.8,-0.00825448,-0.0085965,13.1482,34,-0.000283082,10,-0.000113028,-1.88114,0.24007,0.245762,125.99,-0.0085965,
2,1,0,1,1,66210.8,-0.00585738,-0.00624345,13.4439,34,-0.000203258,10,-8.39362e-05,-1.87148,0.262475,0.224783,117.811,-0.00624345,
2,1,0,1,1,66210.8,-0.00345195,-0.00380028,13.7225,34,-0.000121705,10,-5.21492e-05,-1.86257,0.283228,0.208313,111.345,-0.00380028,
2,1,0,1,1,66210.8,-0.00105485,-0.00140482,13.9787,34,-3.85517e-05,10,-1.96376e-05,-1.85453, , , ,-0.00140482,
2,1,0,0,1,66210.8,-7.54729e-05,-0.000382585,14.0689,34,-3.48359e-06,10,-5.38254e-06,-1.85174, , , ,-0.000382585,