File: Figure_codes/Fig_3-5/rawdata_trumpetplot_data/after 10th/20221101_1-115_003_TrumpetPlot_ParaChange_from10_every3_10_CV_C01_18.csv
mode,ox/red,error,control changes,counter inc.,time/s,control/V,Ewe/V,<I>/mA,cycle number,(Q-Qo)/C,I Range,P/W,log(|I|),Tafel slope mV/dec,alpha_eff,dI/d(E-IR),E-IR/V,
2,1,0,0,0,36652.9,-2.44065e-05,-0.000325324,5.15741,19,0.0000000E+000,10,-1.67783e-06,-2.28757, , , ,-0.000325324,
2,1,0,1,0,36652.9,0.00179726,0.00140367,5.89215,19,4.91304e-05,10,8.27062e-06,-2.22973, , , ,0.00140367,
2,1,0,1,0,36652.9,0.00379485,0.0034476,6.46828,19,0.000111225,10,2.23001e-05,-2.18921,0.059676,0.988671,246.277,0.0034476,
2,1,0,1,0,36652.9,0.00579244,0.00549551,6.89987,19,0.000178225,10,3.79183e-05,-2.16116,0.0792557,0.744426,199.246,0.00549551,
2,1,0,1,0,36652.9,0.00779002,0.00743765,7.26328,19,0.000249096,10,5.40218e-05,-2.13887,0.096113,0.613861,173.439,0.00743765,
2,1,0,1,0,36652.9,0.00977853,0.00947601,7.59025,19,0.000322722,10,7.19253e-05,-2.11974,0.11778,0.500936,147.718,0.00947601,
2,1,0,1,0,36652.9,0.0117761,0.0114524,7.85634,19,0.00040001,10,8.99741e-05,-2.10478,0.139645,0.4225,129.345,0.01145242,
2,1,0,1,0,36652.9,0.0137737,0.0134488,8.1041,19,0.000479881,10,0.00010899,-2.0913,0.159315,0.370336,116.908,0.0134488,
2,1,0,1,0,36652.9,0.0157713,0.0154686,8.32586,19,0.000562051,10,0.000128789,-2.07957,0.176824,0.333665,108.321,0.0154686,
2,1,0,1,0,36653,0.017778,0.0174389,8.53631,19,0.000646444,10,0.000148864,-2.06873,0.201807,0.292358,97.1535,0.0174389,
2,1,0,1,0,36653,0.0197755,0.0193893,8.70677,19,0.000732655,10,0.000168818,-2.06014,0.232382,0.253892,86.2743,0.0193893,
2,1,0,1,0,36653,0.0217731,0.0214221,8.87996,19,0.000820659,10,0.000190227,-2.05159,0.257044,0.229533,79.4358,0.0214221,
2,1,0,1,0,36653,0.0237707,0.0234644,9.03048,19,0.000910252,10,0.000211895,-2.04429,0.270383,0.218209,76.9335,0.0234644,
2,1,0,1,0,36653,0.0257774,0.0254486,9.18974,19,0.00100142,10,0.000233866,-2.0367,0.286444,0.205974,73.762,0.0254486,
2,1,0,1,0,36653,0.027775,0.0274328,9.3232,19,0.001094,10,0.000255762,-2.03043,0.312452,0.188829,68.7316,0.0274328,
2,1,0,1,0,36653,0.0297726,0.0294518,9.46488,19,0.001188,10,0.000278757,-2.02388,0.33059,0.178469,65.8463,0.02945176,
2,1,0,1,0,36653,0.0317701,0.0314169,9.58554,19,0.00128328,10,0.000301148,-2.01838,0.328868,0.179403,67.1976,0.0314169,
2,1,0,1,0,36653,0.0337586,0.0334187,9.73144,19,0.00137891,10,0.000325212,-2.01182,0.349342,0.168889,64.0275,0.0334187,
2,1,0,1,0,36653,0.0357562,0.0354499,9.84376,19,0.00147677,10,0.00034896,-2.00684,0.377183,0.156423,60.1379,0.0354499,
2,1,0,1,0,36653.1,0.0377538,0.0374143,9.97173,19,0.00157588,10,0.000373085,-2.00123,0.375038,0.157318,61.1856,0.0374143,
2,1,0,1,0,36653.1,0.0397514,0.0394526,10.0887,19,0.00167616,10,0.000398025,-1.99617,0.350782,0.168196,66.3152,0.0394526,
2,1,0,1,0,36653.1,0.0417399,0.0413796,10.2347,19,0.00177677,10,0.000423507,-1.98993,0.371989,0.158607,63.2167,0.04137959,
2,1,0,1,0,36653.1,0.0437375,0.0433968,10.338,19,0.00187963,10,0.000448636,-1.98556,0.404725,0.145778,58.9022,0.0433968,
2,1,0,1,0,36653.1,0.0457351,0.04542,10.4727,19,0.0019837,10,0.00047567,-1.97994,0.385688,0.152973,62.4619,0.04542,
2,1,0,1,0,36653.1,0.0477327,0.047399,10.588,19,0.00208898,10,0.000501861,-1.97519,0.367409,0.160584,66.455,0.047399,
2,1,0,1,0,36653.1,0.0497393,0.0493833,10.7361,19,0.00219556,10,0.000530182,-1.96916,0.392106,0.150469,62.9046,0.0493833,
2,1,0,1,0,36653.1,0.0517369,0.0513571,10.837,19,0.00230339,10,0.000556555,-1.96509,0.403722,0.14614,61.9294,0.0513571,
2,1,0,1,0,36653.1,0.0537345,0.0533473,10.9816,19,0.00241253,10,0.000585837,-1.95934,0.392118,0.150465,64.3937,0.0533473,
2,1,0,1,0,36653.1,0.0557321,0.0553775,11.0959,19,0.00252292,10,0.000614462,-1.95484,0.416905,0.141519,61.3327,0.0553775,
2,1,0,1,0,36653.2,0.0577297,0.0573834,11.2291,19,0.00263461,10,0.000644364,-1.94966,0.393953,0.149764,65.6264,0.0573834,
2,1,0,1,0,36653.2,0.0597364,0.059424,11.3614,19,0.00274762,10,0.000675142,-1.94457,0.376441,0.156731,69.5316,0.05942405,
2,1,0,1,0,36653.2,0.0617339,0.0613796,11.507,19,0.00286199,10,0.000706293,-1.93904,0.403514,0.146216,65.568,0.0613796,
2,1,0,1,0,36653.2,0.0637315,0.0633725,11.6203,19,0.0029776,10,0.000736409,-1.93478,0.408838,0.144311,65.5373,0.0633725,
2,1,0,1,0,36653.2,0.0657291,0.0653489,11.7671,19,0.00309457,10,0.000768967,-1.92933,0.384169,0.153578,70.491,0.0653489,
2,1,0,1,0,36653.2,0.0677176,0.0673766,11.9026,19,0.00321179,10,0.000801954,-1.92436,0.395291,0.149257,69.3479,0.0673766,
2,1,0,1,0,36653.2,0.0697152,0.0693458,12.0443,19,0.00333157,10,0.000835219,-1.91922,0.41541,0.142028,66.7045,0.0693458,
2,1,0,1,0,36653.2,0.0717128,0.0713372,12.1668,19,0.00345259,10,0.000867943,-1.91483,0.42511,0.138788,65.952,0.0713372,
2,1,0,1,0,36653.2,0.0737104,0.0733628,12.3092,19,0.00357499,10,0.000903038,-1.90977,0.425815,0.138558,66.5117,0.07336285,
2,1,0,1,0,36653.2,0.0756989,0.0753568,12.4341,19,0.00369748,10,0.000936994,-1.90539,0.433877,0.135983,66.015,0.0753568,
2,1,0,1,0,36653.3,0.0776965,0.0773158,12.5702,19,0.0038225,10,0.000971872,-1.90066,0.46116,0.127938,62.7062,0.0773158,
2,1,0,1,0,36653.3,0.0796941,0.079346,12.6843,19,0.00394878,10,0.00100644,-1.89674,0.444899,0.132614,65.7392,0.079346,
2,1,0,1,0,36653.3,0.0816917,0.0813389,12.8346,19,0.00407641,10,0.00104395,-1.89162,0.437675,0.134803,67.4387,0.0813389,
2,1,0,1,0,36653.3,0.0836983,0.0833483,12.9542,19,0.00420536,10,0.00107971,-1.88759,0.453754,0.130026,65.7952,0.0833483,
2,1,0,1,0,36653.3,0.0856959,0.0853394,13.0978,19,0.00433569,10,0.00111776,-1.8828,0.468194,0.126016,64.3397,0.08533942,
2,1,0,1,0,36653.3,0.0876935,0.0873497,13.2116,19,0.00446724,10,0.00115403,-1.87904,0.50301,0.117294,60.5114,0.0873497,
2,1,0,1,0,36653.3,0.0896911,0.0893556,13.3409,19,0.00460002,10,0.00119208,-1.87482,0.509802,0.115731,60.2148,0.0893556,
2,1,0,1,0,36653.3,0.0916977,0.0913537,13.4527,19,0.00473397,10,0.00122895,-1.87119,0.505551,0.116704,61.3161,0.0913537,
2,1,0,1,0,36653.3,0.0936953,0.0933327,13.5847,19,0.00486921,10,0.0012679,-1.86695,0.546084,0.108042,57.2012,0.0933327,
2,1,0,1,0,36653.3,0.0956929,0.095323,13.6798,19,0.00500556,10,0.001304,-1.86392,0.568682,0.103749,55.4557,0.095323,
2,1,0,1,0,36653.4,0.0976905,0.0973636,13.8083,19,0.00514305,10,0.00134442,-1.85986,0.526829,0.111991,60.3189,0.0973636,
2,1,0,1,0,36653.4,0.099679,0.0993518,13.9228,19,0.0052803,10,0.00138325,-1.85627,0.541781,0.1089,59.1812,0.0993518,
2,1,0,1,0,36653.4,0.101677,0.101316,14.0422,19,0.00542018,10,0.0014227,-1.85257,0.563197,0.104759,57.389,0.101316,
2,1,0,1,0,36653.4,0.103674,0.103342,14.1518,19,0.00556116,10,0.00146247,-1.84919,0.529723,0.111379,61.5722,0.103342,
2,1,0,1,0,36653.4,0.105672,0.105318,14.2886,19,0.0057034,10,0.00150485,-1.84501,0.507918,0.116161,64.7381,0.1053182,
2,1,0,1,0,36653.4,0.107656,0.107325,14.4096,19,0.00584546,10,0.00154652,-1.84135,0.501715,0.117597,66.194,0.107325,
2,1,0,1,0,36653.4,0.109658,0.109396,14.5585,19,0.00599033,10,0.00159263,-1.83688,0.479009,0.123171,69.9334,0.109396,
2,1,0,1,0,36653.4,0.111655,0.111303,14.6878,19,0.00613657,10,0.00163481,-1.83304,0.451052,0.130805,75.0757,0.111303,
2,1,0,1,0,36653.4,0.113653,0.113353,14.8556,19,0.00628433,10,0.00168392,-1.82811,0.437923,0.134727,78.0371,0.113353,
2,1,0,1,0,36653.4,0.115651,0.11526,14.9966,19,0.00643356,10,0.0017285,-1.82401,0.406858,0.145014,85.0279,0.11526,
2,1,0,1,0,36653.5,0.117657,0.117331,15.1939,19,0.00658457,10,0.00178272,-1.81833,0.402231,0.146682,86.8691,0.117331,
2,1,0,1,0,36653.5,0.119655,0.119381,15.3546,19,0.00673733,10,0.00183304,-1.81376,0.403488,0.146225,87.6981,0.119381,
2,1,0,1,0,36653.5,0.121652,0.121307,15.5425,19,0.00689187,10,0.00188541,-1.80848,0.380923,0.154887,93.9246,0.121307,
2,1,0,1,0,36653.5,0.12365,0.123307,15.7233,19,0.00704823,10,0.00193879,-1.80346,0.36712,0.16071,98.7145,0.1233067,
2,1,0,1,0,36653.5,0.125657,0.125301,15.9368,19,0.00720661,10,0.00199691,-1.7976,0.370177,0.159383,99.031,0.125301,
2,1,0,1,0,36653.5,0.127654,0.127312,16.1199,19,0.00736695,10,0.00205225,-1.79264,0.378503,0.155877,98.1432,0.127312,
2,1,0,1,0,36653.5,0.129652,0.129314,16.3307,19,0.00752926,10,0.00211178,-1.787,0.375076,0.157302,100.19,0.129314,
2,1,0,1,0,36653.5,0.131649,0.131328,16.5223,19,0.00769357,10,0.00216984,-1.78193,0.382841,0.154111,99.4062,0.131328,
2,1,0,1,0,36653.5,0.133638,0.133297,16.7266,19,0.00785824,10,0.00222961,-1.77659,0.394179,0.149678,97.6407,0.133297,
2,1,0,1,0,36653.5,0.135636,0.135292,16.9093,19,0.00802643,10,0.00228769,-1.77187,0.409814,0.143968,95.0424,0.135292,
2,1,0,1,0,36653.6,0.137633,0.13729,17.1061,19,0.00819654,10,0.0023485,-1.76685,0.437419,0.134882,89.9656,0.13729,
2,1,0,1,0,36653.6,0.139631,0.139337,17.2732,19,0.00836846,10,0.00240679,-1.76263,0.452186,0.130477,88.0033,0.139337,
2,1,0,1,0,36653.6,0.141619,0.141307,17.4596,19,0.00854041,10,0.00246716,-1.75797,0.463492,0.127295,86.6617,0.141307,
2,1,0,1,0,36653.6,0.143617,0.143297,17.6165,19,0.0087158,10,0.00252439,-1.75408,0.498628,0.118325,81.3693,0.143297,
2,1,0,1,0,36653.6,0.145614,0.145278,17.7827,19,0.00889282,10,0.00258344,-1.75,0.560289,0.105303,72.9946,0.145278,
2,1,0,1,0,36653.6,0.147612,0.14729,17.9079,19,0.00907124,10,0.00263766,-1.74695,0.607939,0.0970492,67.8675,0.14729,
2,1,0,1,0,36653.6,0.149619,0.149295,18.0553,19,0.0092511,10,0.00269557,-1.74339,0.646346,0.0912823,64.2542,0.149295,
2,1,0,1,0,36653.6,0.151616,0.1513,18.1656,19,0.00943224,10,0.00274845,-1.74075,0.763117,0.0773145,54.8076,0.1513,
2,1,0,1,0,36653.6,0.153614,0.153275,18.2735,19,0.00961446,10,0.00280086,-1.73818,0.925615,0.0637414,45.4119,0.153275,
2,1,0,1,0,36653.6,0.155611,0.155249,18.3449,19,0.00979754,10,0.00284804,-1.73648,1.16617,0.0505928,36.2248,0.155249,
2,1,0,1,0,36653.7,0.157618,0.157313,18.4198,19,0.00998138,10,0.00289767,-1.73472,2.20966,0.0267009,19.157,0.157313,
2,1,0,1,0,36653.7,0.159616,0.159321,18.4229,19,0.0101656,10,0.00293516,-1.73464,57.7818,0.00102108,0.734079,0.159321,
2,1,0,1,0,36653.7,0.161613,0.161273,18.4227,19,0.0103499,10,0.00297108,-1.73465,-2.62825,-0.0224484,-16.1119,0.161273,
2,1,0,1,0,36653.7,0.163611,0.16332,18.3585,19,0.0105338,10,0.00299831,-1.73616,-1.08952,-0.0541522,-38.7686,0.16332,
2,1,0,1,0,36653.7,0.165618,0.165313,18.2661,19,0.010717,10,0.00301961,-1.73836,-0.698968,-0.0844101,-60.0837,0.165313,
2,1,0,1,0,36653.7,0.167597,0.167293,18.1198,19,0.0108971,10,0.00303131,-1.74185,-0.496151,-0.118915,-83.9904,0.167293,
2,1,0,1,0,36653.7,0.169595,0.169304,17.9308,19,0.0110774,10,0.00303576,-1.7464,-0.363897,-0.162134,-113.227,0.169304,
2,1,0,1,0,36653.7,0.171592,0.171262,17.6703,19,0.0112554,10,0.00302627,-1.75276,-0.284108,-0.207667,-143.053,0.171262,
2,1,0,1,0,36653.7,0.173572,0.173197,17.3739,19,0.0114288,10,0.00300911,-1.7601,-0.250115,-0.235892,-159.714,0.173197,
2,1,0,1,0,36653.7,0.175578,0.175266,17.031,19,0.0116009,10,0.00298494,-1.76876,-0.216996,-0.271895,-180.473,0.175266,
2,1,0,1,0,36653.8,0.177576,0.177226,16.6469,19,0.0117693,10,0.00295026,-1.77867,-0.187347,-0.314924,-204.27,0.177226,
2,1,0,1,0,36653.8,0.179573,0.179255,16.2161,19,0.0119335,10,0.00290681,-1.79005,-0.173214,-0.340618,-215.503,0.179255,
2,1,0,1,0,36653.8,0.181571,0.181231,15.7836,19,0.0120935,10,0.00286049,-1.80179,-0.162845,-0.362309,-222.936,0.181231,
2,1,0,1,0,36653.8,0.183578,0.18325,15.3256,19,0.012249,10,0.0028084,-1.81458,-0.154385,-0.382162,-228.439,0.18325,
2,1,0,1,0,36653.8,0.185575,0.185281,14.8587,19,0.0123998,10,0.00275302,-1.82802,-0.144232,-0.409064,-237.131,0.185281,
2,1,0,1,0,36653.8,0.187573,0.187188,14.3915,19,0.012546,10,0.00269392,-1.84189,-0.143994,-0.409739,-230.262,0.187188,
2,1,0,1,0,36653.8,0.18957,0.189226,13.9501,19,0.0126877,10,0.00263972,-1.85542,-0.148274,-0.397911,-216.599,0.189226,
2,1,0,1,0,36653.8,0.191577,0.191243,13.5134,19,0.0128249,10,0.00258433,-1.86924,-0.149692,-0.394142,-208.047,0.1912428,
2,1,0,1,0,36653.8,0.193575,0.193269,13.1091,19,0.0129579,10,0.00253358,-1.88243,-0.150194,-0.392826,-200.966,0.193269,
2,1,0,1,0,36653.8,0.195572,0.195229,12.7122,19,0.013087,10,0.00248179,-1.89578,-0.154011,-0.383089,-190.249,0.195229,
2,1,0,1,0,36653.9,0.19757,0.197267,12.3485,19,0.0132122,10,0.00243595,-1.90839,-0.16305,-0.361853,-174.521,0.197267,
2,1,0,1,0,36653.9,0.199558,0.199249,12.0106,19,0.0133327,10,0.00239311,-1.92043,-0.170067,-0.346922,-162.766,0.199249,
2,1,0,1,0,36653.9,0.201556,0.201245,11.7009,19,0.0134512,10,0.00235475,-1.93178,-0.17323,-0.340588,-155.517,0.2012455,
2,1,0,1,0,36653.9,0.203554,0.20321,11.3947,19,0.0135666,10,0.00231551,-1.9433,-0.184471,-0.319833,-142.482,0.20321,
2,1,0,1,0,36653.9,0.205551,0.205227,11.1336,19,0.0136792,10,0.00228492,-1.95336,-0.20687,-0.285203,-124.014,0.205227,
2,1,0,1,0,36653.9,0.20754,0.207259,10.8926,19,0.0137881,10,0.00225758,-1.96287,-0.215512,-0.273767,-116.438,0.207259,
2,1,0,1,0,36653.9,0.209537,0.209244,10.6659,19,0.0138959,10,0.00223177,-1.972,-0.214113,-0.275556,-114.662,0.209244,
2,1,0,1,0,36653.9,0.211535,0.211248,10.4351,19,0.0140013,10,0.0022044,-1.9815,-0.230005,-0.256516,-104.689,0.211248,
2,1,0,1,0,36653.9,0.213532,0.2132,10.2517,19,0.0141047,10,0.00218566,-1.9892,-0.254514,-0.231814,-92.7335,0.2132002,
2,1,0,1,0,36653.9,0.215539,0.215213,10.0675,19,0.0142062,10,0.00216665,-1.99708,-0.260349,-0.226619,-89.0733,0.215213,
2,1,0,1,0,36654,0.217537,0.217226,9.89311,19,0.014306,10,0.00214904,-2.00467,-0.273432,-0.215776,-83.3751,0.217226,
2,1,0,1,0,36654,0.219534,0.219189,9.73594,19,0.0144041,10,0.00213401,-2.01162,-0.308852,-0.19103,-72.6552,0.219189,
2,1,0,1,0,36654,0.221532,0.221271,9.59924,19,0.0145008,10,0.00212403,-2.01776,-0.319733,-0.184529,-69.1053,0.221271,
2,1,0,1,0,36654,0.223534,0.223224,9.45709,19,0.014596,10,0.00211105,-2.02424,-0.330297,-0.178627,-66.0096,0.223224,
2,1,0,1,0,36654,0.225536,0.225204,9.33958,19,0.01469,10,0.00210331,-2.02967,-0.353592,-0.166859,-60.7898,0.225204,
2,1,0,1,0,36654,0.227534,0.227222,9.21411,19,0.0147828,10,0.00209364,-2.03555,-0.36378,-0.162186,-58.3713,0.227222,
2,1,0,1,0,36654,0.229531,0.229218,9.1053,19,0.0148744,10,0.0020871,-2.04071,-0.38505,-0.153227,-54.4487,0.229218,
2,1,0,1,0,36654,0.231529,0.231206,8.99713,19,0.0149649,10,0.0020802,-2.0459,-0.442737,-0.133262,-46.8684,0.231206,
2,1,0,1,0,36654,0.233517,0.233195,8.91889,19,0.0150536,10,0.00207984,-2.04969,-0.452674,-0.130337,-45.302,0.233195,
2,1,0,1,0,36654,0.235515,0.235212,8.81567,19,0.0151422,10,0.00207355,-2.05474,-0.455102,-0.129641,-44.6739,0.235212,
2,1,0,1,0,36654.1,0.237512,0.237173,8.74117,19,0.01523,10,0.00207317,-2.05843,-0.5076,-0.116233,-39.6274,0.237173,
2,1,0,1,0,36654.1,0.23951,0.239232,8.65635,19,0.0153169,10,0.00207088,-2.06267,-0.537291,-0.10981,-37.1402,0.239232,
2,1,0,1,0,36654.1,0.241499,0.241189,8.59202,19,0.0154023,10,0.0020723,-2.0659,-0.518459,-0.113799,-38.1106,0.241189,
2,1,0,1,0,36654.1,0.243496,0.243168,8.50636,19,0.0154878,10,0.00206848,-2.07026,-0.550677,-0.107141,-35.6303,0.243168,
2,1,0,1,0,36654.1,0.245494,0.245154,8.45075,19,0.0155726,10,0.00207174,-2.0731,-0.631273,-0.093462,-30.8,0.245154,
2,1,0,1,0,36654.1,0.247491,0.247202,8.3821,19,0.0156567,10,0.00207208,-2.07665,-0.63265,-0.0932585,-30.5322,0.247202,
2,1,0,1,0,36654.1,0.249498,0.249195,8.32736,19,0.0157402,10,0.00207514,-2.07949,-0.612651,-0.0963027,-31.2707,0.249195,
2,1,0,1,0,36654.1,0.251496,0.251149,8.25869,19,0.0158232,10,0.00207416,-2.08309,-0.688817,-0.0856542,-27.6525,0.251149,
2,1,0,1,0,36654.1,0.253493,0.253175,8.21731,19,0.0159056,10,0.00208042,-2.08527,-0.719007,-0.0820576,-26.2779,0.253175,
2,1,0,1,0,36654.1,0.255491,0.255184,8.15267,19,0.0159874,10,0.00208043,-2.0887,-0.779527,-0.0756869,-24.1302,0.255184,
2,1,0,1,0,36654.2,0.257497,0.25716,8.12116,19,0.0160688,10,0.00208844,-2.09038,-0.858685,-0.0687097,-21.7443,0.25716,
2,1,0,1,0,36654.2,0.259495,0.259199,8.06536,19,0.0161497,10,0.00209053,-2.09338,-0.737415,-0.0800093,-25.1997,0.259199,
2,1,0,1,0,36654.2,0.261493,0.261186,8.01971,19,0.0162301,10,0.00209463,-2.09584,-0.801722,-0.0735916,-23.0339,0.261186,
2,1,0,1,0,36654.2,0.26349,0.26313,7.97481,19,0.0163101,10,0.00209841,-2.09828,-1.07965,-0.0546473,-17.0311,0.26313,
2,1,0,1,0,36654.2,0.265479,0.265182,7.95164,19,0.0163889,10,0.00210864,-2.09954,-0.940527,-0.0627308,-19.4274,0.265182,
2,1,0,1,0,36654.2,0.267476,0.267177,7.89619,19,0.0164682,10,0.00210968,-2.10258,-0.870223,-0.0677987,-20.9294,0.267177,
2,1,0,1,0,36654.2,0.269474,0.269162,7.86835,19,0.016547,10,0.00211786,-2.10412,-1.06858,-0.0552136,-16.9425,0.269162,
2,1,0,1,0,36654.2,0.271471,0.271132,7.82918,19,0.0166254,10,0.00212274,-2.10628,-1.12968,-0.0522273,-15.9723,0.271132,
2,1,0,1,0,36654.2,0.27346,0.27318,7.80417,19,0.0167027,10,0.00213195,-2.10767,-0.988654,-0.0596771,-18.1492,0.27318,
2,1,0,1,0,36654.2,0.275458,0.27515,7.75626,19,0.0167805,10,0.00213413,-2.11035,-0.996851,-0.0591864,-17.945,0.27515,
2,1,0,1,0,36654.3,0.277455,0.27711,7.73366,19,0.0168579,10,0.00214307,-2.11162,-1.0473,-0.0563355,-16.979,0.27711,
2,1,0,1,0,36654.3,0.279453,0.279104,7.68912,19,0.016935,10,0.00214607,-2.11412,-1.0559,-0.0558765,-16.7913,0.279104,
2,1,0,1,0,36654.3,0.281455,0.281108,7.66651,19,0.0170117,10,0.00215512,-2.1154,-1.16641,-0.0505824,-15.1185,0.2811085,
2,1,0,1,0,36654.3,0.283457,0.283144,7.62805,19,0.0170882,10,0.00215983,-2.11759,-1.16479,-0.0506528,-15.0951,0.283144,
2,1,0,1,0,36654.3,0.285455,0.285142,7.60563,19,0.0171644,10,0.00216868,-2.11887,-1.06206,-0.0555522,-16.4671,0.285142,
2,1,0,1,0,36654.3,0.287452,0.287098,7.56294,19,0.0172402,10,0.0021713,-2.12131,-1.09366,-0.0539473,-15.9459,0.2870976,
2,1,0,1,0,36654.3,0.28945,0.289123,7.54215,19,0.0173158,10,0.00218061,-2.1225,-1.47427,-0.0400199,-11.7749,0.289123,
2,1,0,1,0,36654.3,0.291456,0.291148,7.51525,19,0.0173911,10,0.00218805,-2.12406,-1.23937,-0.0476049,-13.9603,0.291148,
2,1,0,1,0,36654.3,0.293454,0.293132,7.48618,19,0.0174661,10,0.00219444,-2.12574,-1.08131,-0.0545632,-15.9352,0.2931318,
2,1,0,1,0,36654.3,0.295452,0.29515,7.45148,19,0.0175408,10,0.0021993,-2.12776,-1.34274,-0.0439399,-12.7934,0.29515,
2,1,0,1,0,36654.4,0.297449,0.297157,7.43469,19,0.0176153,10,0.00220927,-2.12874,-1.47113,-0.0401053,-11.6269,0.297157,
2,1,0,1,0,36654.4,0.299438,0.299104,7.4055,19,0.0176887,10,0.00221501,-2.13045,-0.0674906,-0.874196,-244.057,0.299104,
2,1,0,1,0,36654.4,0.299746,0.299431,6.87948,19,0.0177199,10,0.00205993,-2.16244,0.0075748,7.78898,1770.1,0.299431,
2,1,0,1,0,36654.4,0.29774,0.297453,4.48397,19,0.0177753,10,0.00133377,-2.34834,0.0108399,5.44285,986.045,0.297453,
2,1,0,1,0,36654.4,0.295742,0.295448,2.9519,19,0.0178119,10,0.000872133,-2.5299,0.0102846,5.7367,659.225,0.2954483,
2,1,0,1,0,36654.4,0.293745,0.29339,1.80555,19,0.0178353,10,0.000529731,-2.74339,0.007991,7.38331,503.547,0.2933903,
2,1,0,1,0,36654.4,0.291747,0.291425,0.926077,19,0.0178487,10,0.000269882,-3.03335,0.00421416,14.0004,404.983,0.2914252,
2,1,0,1,0,36654.4,0.289745,0.28945,0.20966,19,0.0178541,10,6.06859e-05,-3.67849,0.0101243,5.82758,325.212,0.28945,
2,0,0,1,0,36654.4,0.287743,0.28743,-0.373264,19,0.0178531,10,-0.000107287,-3.42798,-0.00660617,-8.93104,263.853,0.28743,
2,0,0,1,0,36654.4,0.285745,0.285435,-0.84955,19,0.0178469,10,-0.000242492,-3.07081,-0.00769677,-7.66556,217.504,0.285435,
2,0,0,1,0,36654.4,0.283748,0.283377,-1.25472,19,0.0178362,10,-0.000355558,-2.90145,-0.0145232,-4.06248,188.06,0.283377,
2,0,0,1,0,36654.5,0.28175,0.281436,-1.60173,19,0.0178219,10,-0.000450784,-2.79541,-0.0218651,-2.69836,163.777,0.281436,
2,0,0,1,0,36654.5,0.279761,0.279436,-1.90023,19,0.0178044,10,-0.000530991,-2.72119,-0.0308335,-1.9135,139.199,0.279436,
2,0,0,1,0,36654.5,0.277764,0.277472,-2.15342,19,0.0177842,10,-0.000597514,-2.66687,-0.04022,-1.46693,122.169,0.277472,
2,0,0,1,0,36654.5,0.275766,0.275459,-2.38613,19,0.0177614,10,-0.000657279,-2.62231,-0.0514408,-1.14695,105.655,0.275459,
2,0,0,1,0,36654.5,0.273769,0.273433,-2.5802,19,0.0177366,10,-0.000705511,-2.58835,-0.060982,-0.967499,97.2489,0.273433,
2,0,0,1,0,36654.5,0.27178,0.271462,-2.77475,19,0.01771,10,-0.00075324,-2.55678,-0.0696237,-0.847412,91.1448,0.271462,
2,0,0,1,0,36654.5,0.269783,0.26949,-2.93954,19,0.0176815,10,-0.000792177,-2.53172,-0.0874368,-0.674773,77.0874,0.26949,
2,0,0,1,0,36654.5,0.267785,0.267434,-3.08527,19,0.0176513,10,-0.000825108,-2.51071,-0.101975,-0.578571,69.4768,0.267434,
2,0,0,1,0,36654.5,0.265787,0.265474,-3.21857,19,0.0176198,10,-0.000854446,-2.49234,-0.109372,-0.539441,67.7489,0.265474,
2,0,0,1,0,36654.5,0.263781,0.263459,-3.35461,19,0.0175868,10,-0.0008838,-2.47436,-0.121292,-0.486428,63.4831,0.263459,
2,0,0,1,0,36654.6,0.261783,0.261469,-3.47281,19,0.0175527,10,-0.000908033,-2.45932,-0.142901,-0.412873,55.8327,0.261469,
2,0,0,1,0,36654.6,0.259786,0.25946,-3.57787,19,0.0175174,10,-0.000928313,-2.44638,-0.153407,-0.384598,53.7172,0.25946,
2,0,0,1,0,36654.6,0.257788,0.257482,-3.687,19,0.0174811,10,-0.000949337,-2.43333,-0.159575,-0.369733,53.1444,0.257482,
2,0,0,1,0,36654.6,0.255781,0.255464,-3.79024,19,0.0174437,10,-0.00096827,-2.42133,-0.184341,-0.320059,47.2308,0.255464,
2,0,0,1,0,36654.6,0.253784,0.253459,-3.87702,19,0.0174053,10,-0.000982664,-2.4115,-0.204547,-0.288442,43.6386,0.253459,
2,0,0,1,0,36654.6,0.251786,0.251477,-3.96421,19,0.0173661,10,-0.000996909,-2.40184,-0.217442,-0.271337,41.9367,0.251477,
2,0,0,1,0,36654.6,0.249789,0.249462,-4.04464,19,0.017326,10,-0.00100898,-2.39312,-0.222349,-0.265348,41.9207,0.249462,
2,0,0,1,0,36654.6,0.2478,0.247448,-4.13312,19,0.0172855,10,-0.00102273,-2.38372,-0.228095,-0.258664,41.6648,0.247448,
2,0,0,1,0,36654.6,0.245802,0.245465,-4.21115,19,0.0172438,10,-0.00103369,-2.3756,-0.252143,-0.233994,38.44,0.245465,
2,0,0,1,0,36654.6,0.243805,0.243458,-4.2865,19,0.0172013,10,-0.00104358,-2.3679,-0.289381,-0.203883,34.043,0.243458,
2,0,0,1,0,36654.7,0.241807,0.241493,-4.34636,19,0.0171582,10,-0.00104962,-2.36187,-0.295409,-0.199723,33.9282,0.241493,
2,0,0,1,0,36654.7,0.239819,0.239529,-4.41979,19,0.0171148,10,-0.00105867,-2.3546,-0.278247,-0.212042,36.5642,0.2395294,
2,0,0,1,0,36654.7,0.237821,0.237528,-4.49137,19,0.0170702,10,-0.00106682,-2.34762,-0.305209,-0.19331,33.8545,0.237528,
2,0,0,1,0,36654.7,0.235824,0.235512,-4.55578,19,0.017025,10,-0.00107294,-2.34144,-0.363111,-0.162485,28.8456,0.235512,
2,0,0,1,0,36654.7,0.233826,0.233524,-4.60687,19,0.0169792,10,-0.00107581,-2.33659,-0.341566,-0.172734,31.1324,0.233524,
2,0,0,1,0,36654.7,0.231824,0.231486,-4.68114,19,0.0169328,10,-0.00108362,-2.32965,-0.332373,-0.177511,32.3647,0.231486,
2,0,0,1,0,36654.7,0.229822,0.229494,-4.7373,19,0.0168857,10,-0.00108718,-2.32447,-0.383385,-0.153892,28.4507,0.229494,
2,0,0,1,0,36654.7,0.227824,0.227536,-4.7935,19,0.016838,10,-0.0010907,-2.31935,-0.398262,-0.148144,27.704,0.227536,
2,0,0,1,0,36654.7,0.225827,0.225547,-4.84664,19,0.0167898,10,-0.00109314,-2.31456,-0.414099,-0.142478,26.9548,0.225547,
2,0,0,1,0,36654.7,0.223829,0.223509,-4.90206,19,0.016741,10,-0.00109565,-2.30962,-0.405924,-0.145347,27.8101,0.223509,
2,0,0,1,0,36654.8,0.221822,0.221503,-4.9591,19,0.0166917,10,-0.00109846,-2.3046,-0.397901,-0.148278,28.6964,0.221503,
2,0,0,1,0,36654.8,0.219825,0.219531,-5.01621,19,0.0166418,10,-0.00110121,-2.29962,-0.436483,-0.135171,26.44,0.219531,
2,0,0,1,0,36654.8,0.217827,0.217485,-5.06533,19,0.0165914,10,-0.00110163,-2.29539,-0.458182,-0.12877,25.4636,0.217485,
2,0,0,1,0,36654.8,0.21583,0.215536,-5.11795,19,0.0165404,10,-0.0011031,-2.2909,-0.40135,-0.147004,29.3918,0.215536,
2,0,0,1,0,36654.8,0.213841,0.213538,-5.18136,19,0.0164895,10,-0.00110641,-2.28556,-0.417516,-0.141312,28.5373,0.213538,
2,0,0,1,0,36654.8,0.211843,0.211556,-5.23152,19,0.0164374,10,-0.00110676,-2.28137,-0.531323,-0.111044,22.6504,0.211556,
2,0,0,1,0,36654.8,0.209846,0.209531,-5.27211,19,0.0163849,10,-0.00110467,-2.27802,-0.519535,-0.113563,23.3946,0.209531,
2,0,0,1,0,36654.8,0.207848,0.207524,-5.32585,19,0.0163319,10,-0.00110524,-2.27361,-0.42878,-0.1376,28.6172,0.207524,
2,0,0,1,0,36654.8,0.20586,0.205541,-5.38629,19,0.0162789,10,-0.0011071,-2.26871,-0.430694,-0.136988,28.7854,0.205541,
2,0,0,1,0,36654.8,0.203862,0.203451,-5.44309,19,0.0162247,10,-0.0011074,-2.26415,-0.539534,-0.109354,23.1846,0.203451,
2,0,0,1,0,36654.9,0.201865,0.201541,-5.47902,19,0.0161702,10,-0.00110425,-2.2613,-0.516477,-0.114235,24.4806,0.201541,
2,0,0,1,0,36654.9,0.199867,0.199519,-5.53935,19,0.016115,10,-0.0011052,-2.25654,-0.479613,-0.123016,26.5591,0.199519,
2,0,0,1,0,36654.9,0.19786,0.197534,-5.58546,19,0.0160594,10,-0.00110332,-2.25294,-0.530664,-0.111181,24.2467,0.197534,
2,0,0,1,0,36654.9,0.195863,0.195494,-5.63693,19,0.0160033,10,-0.00110199,-2.24896,-0.505026,-0.116826,25.7015,0.1954941,
2,0,0,1,0,36654.9,0.193865,0.193503,-5.68906,19,0.0159467,10,-0.00110085,-2.24496,-0.463418,-0.127315,28.2859,0.1935029,
2,0,0,1,0,36654.9,0.191868,0.19153,-5.74906,19,0.0158894,10,-0.00110112,-2.2404,-0.502863,-0.117328,26.2893,0.19153,
2,0,0,1,0,36654.9,0.189861,0.189514,-5.79393,19,0.0158318,10,-0.00109803,-2.23703,-0.506164,-0.116563,26.3908,0.189514,
2,0,0,1,0,36654.9,0.187863,0.187557,-5.85391,19,0.0157735,10,-0.00109794,-2.23255,-0.495342,-0.11911,27.1855,0.187557,
2,0,0,1,0,36654.9,0.185866,0.185504,-5.90293,19,0.0157147,10,-0.00109502,-2.22893,-0.516695,-0.114187,26.3214,0.185504,
2,0,0,1,0,36654.9,0.183868,0.183551,-5.95934,19,0.0156554,10,-0.00109385,-2.2248,-0.437764,-0.134776,31.3718,0.183551,
2,0,0,1,0,36655,0.18188,0.181574,-6.02622,19,0.0155961,10,-0.00109421,-2.21996,-0.424714,-0.138917,32.6635,0.181574,
2,0,0,1,0,36655,0.179882,0.179527,-6.09079,19,0.0155355,10,-0.00109346,-2.21533,-0.511192,-0.115416,27.3906,0.1795273,
2,0,0,1,0,36655,0.177885,0.177567,-6.13599,19,0.0154743,10,-0.00108955,-2.21212,-0.484783,-0.121704,29.2053,0.177567,
2,0,0,1,0,36655,0.175887,0.17554,-6.20725,19,0.0154126,10,-0.00108962,-2.2071,-0.424827,-0.13888,33.6229,0.17554,
2,0,0,1,0,36655,0.173908,0.173541,-6.27135,19,0.0153508,10,-0.00108834,-2.20264,-0.386054,-0.152829,37.4646,0.173541,
2,0,0,1,0,36655,0.171901,0.171568,-6.35604,19,0.0152876,10,-0.00109049,-2.19681,-0.418199,-0.141081,34.9084,0.171568,
2,0,0,1,0,36655,0.169903,0.169586,-6.40939,19,0.0152239,10,-0.00108695,-2.19318,-0.417643,-0.141269,35.4321,0.169586,
2,0,0,1,0,36655,0.167906,0.167567,-6.49782,19,0.0151593,10,-0.00108882,-2.18723,-0.37157,-0.158786,40.213,0.167567,
2,0,0,1,0,36655,0.165908,0.165601,-6.56967,19,0.015094,10,-0.00108794,-2.18246,-0.370392,-0.159291,40.9047,0.165601,
2,0,0,1,0,36655,0.163901,0.163537,-6.66267,19,0.0150278,10,-0.00108959,-2.17635,-0.341693,-0.17267,44.8788,0.163537,
2,0,0,1,0,36655.1,0.161904,0.161566,-6.75077,19,0.0149607,10,-0.00109069,-2.17065,-0.317433,-0.185866,49.0395,0.1615655,
2,0,0,1,0,36655.1,0.159906,0.159525,-6.8594,19,0.0148926,10,-0.00109425,-2.16371,-0.329206,-0.179219,47.8775,0.159525,
2,0,0,1,0,36655.1,0.157909,0.157604,-6.94044,19,0.0148236,10,-0.00109384,-2.15861,-0.289278,-0.203956,55.4739,0.157604,
2,0,0,1,0,36655.1,0.155902,0.155542,-7.08036,19,0.0147534,10,-0.00110129,-2.14994,-0.249243,-0.236717,65.3063,0.1555417,
2,0,0,1,0,36655.1,0.153904,0.153641,-7.19926,19,0.014682,10,-0.0011061,-2.14271,-0.255655,-0.23078,64.9123,0.153641,
2,0,0,1,0,36655.1,0.151907,0.151611,-7.33549,19,0.0146093,10,-0.00111214,-2.13457,-0.243476,-0.242324,69.4173,0.151611,
2,0,0,1,0,36655.1,0.149909,0.149554,-7.48299,19,0.0145353,10,-0.00111911,-2.12592,-0.21018,-0.280712,82.1529,0.149554,
2,0,0,1,0,36655.1,0.147921,0.147604,-7.66473,19,0.0144603,10,-0.00113134,-2.1155,-0.20211,-0.291921,87.2003,0.147604,
2,0,0,1,0,36655.1,0.145923,0.145601,-7.82763,19,0.0143828,10,-0.00113971,-2.10637,-0.194147,-0.303893,93.0999,0.145601,
2,0,0,1,0,36655.1,0.143926,0.143594,-8.03805,19,0.0143035,10,-0.00115421,-2.09485,-0.169462,-0.34816,109.28,0.143594,
2,0,0,1,0,36655.2,0.141928,0.14163,-8.26158,19,0.014222,10,-0.00117009,-2.08294,-0.156254,-0.37759,122.008,0.14163,
2,0,0,1,0,36655.2,0.139939,0.139597,-8.52572,19,0.0141389,10,-0.00119016,-2.06927,-0.150998,-0.390733,129.895,0.139597,
2,0,0,1,0,36655.2,0.137942,0.137638,-8.78017,19,0.0140524,10,-0.00120848,-2.0565,-0.144088,-0.409471,140.67,0.137638,
2,0,0,1,0,36655.2,0.135944,0.135617,-9.08554,19,0.0139631,10,-0.00123216,-2.04165,-0.136573,-0.432005,153.181,0.135617,
2,0,0,1,0,36655.2,0.133947,0.133604,-9.39804,19,0.0138706,10,-0.00125562,-2.02696,-0.128009,-0.460905,169.374,0.133604,
2,0,0,1,0,36655.2,0.13194,0.131667,-9.7546,19,0.0137749,10,-0.00128436,-2.01079,-0.126409,-0.466739,177.569,0.131667,
2,0,0,1,0,36655.2,0.129942,0.129611,-10.1072,19,0.0136755,10,-0.00131,-1.99537,-0.12744,-0.462962,182.84,0.129611,
2,0,0,1,0,36655.2,0.127945,0.127626,-10.4935,19,0.0135725,10,-0.00133924,-1.97908,-0.126239,-0.467368,191.188,0.127626,
2,0,0,1,0,36655.2,0.125947,0.125643,-10.8657,19,0.0134657,10,-0.0013652,-1.96394,-0.129092,-0.45704,194.076,0.125643,
2,0,0,1,0,36655.2,0.123941,0.123588,-11.2772,19,0.013355,10,-0.00139372,-1.9478,-0.131,-0.45038,197.907,0.1235878,
2,0,0,1,0,36655.3,0.121943,0.121617,-11.6626,19,0.0132402,10,-0.00141837,-1.9332,-0.136281,-0.432929,197.052,0.121617,
2,0,0,1,0,36655.3,0.119945,0.119631,-12.0569,19,0.0131215,10,-0.00144238,-1.91876,-0.143294,-0.41174,193.483,0.119631,
2,0,0,1,0,36655.3,0.117948,0.117666,-12.4271,19,0.0129991,10,-0.00146224,-1.90563,-0.146535,-0.402635,195.5,0.117666,
2,0,0,1,0,36655.3,0.115946,0.115655,-12.8341,19,0.0128728,10,-0.00148433,-1.89163,-0.154053,-0.382985,191.448,0.115655,
2,0,0,1,0,36655.3,0.113962,0.113638,-13.1982,19,0.0127438,10,-0.00149981,-1.87949,-0.16377,-0.360261,185.605,0.113638,
2,0,0,1,0,36655.3,0.111964,0.111664,-13.5749,19,0.0126099,10,-0.00151583,-1.86726,-0.174326,-0.338447,179.015,0.111664,
2,0,0,1,0,36655.3,0.109967,0.109638,-13.9141,19,0.0124724,10,-0.00152552,-1.85654,-0.184254,-0.32021,173.941,0.1096383,
2,0,0,1,0,36655.3,0.107969,0.107676,-14.2685,19,0.0123314,10,-0.00153638,-1.84562,-0.195805,-0.30132,167.523,0.107676,
2,0,0,1,0,36655.3,0.10598,0.105649,-14.5824,19,0.0121886,10,-0.00154062,-1.83617,-0.2124,-0.277777,158.082,0.1056492,
2,0,0,1,0,36655.3,0.103983,0.10368,-14.9003,19,0.0120411,10,-0.00154486,-1.8268,-0.225802,-0.261291,151.743,0.10368,
2,0,0,1,0,36655.4,0.101985,0.101692,-15.1829,19,0.0118907,10,-0.00154398,-1.81865,-0.250067,-0.235937,139.751,0.101692,
2,0,0,1,0,36655.4,0.0999877,0.0996914,-15.4577,19,0.0117374,10,-0.001541,-1.81086,-0.267358,-0.220678,133.035,0.0996914,
2,0,0,1,0,36655.4,0.0979811,0.0976985,-15.7142,19,0.0115815,10,-0.00153525,-1.80371,-0.286153,-0.206183,126.42,0.0976985,
2,0,0,1,0,36655.4,0.0959835,0.0956648,-15.9667,19,0.011423,10,-0.00152745,-1.79678,-0.329314,-0.17916,111.446,0.0956648,
2,0,0,1,0,36655.4,0.0939859,0.093645,-16.1659,19,0.0112623,10,-0.00151386,-1.7914,-0.361895,-0.163031,102.882,0.093645,
2,0,0,1,0,36655.4,0.0919883,0.0916981,-16.3748,19,0.0110996,10,-0.00150154,-1.78582,-0.382526,-0.154238,98.4816,0.0916981,
2,0,0,1,0,36655.4,0.0899816,0.0896748,-16.5569,19,0.0109348,10,-0.00148474,-1.78102,-0.45349,-0.130102,83.9986,0.0896748,
2,0,0,1,0,36655.4,0.087984,0.0876715,-16.7131,19,0.0107684,10,-0.00146526,-1.77694,-0.553865,-0.106524,69.4065,0.0876715,
2,0,0,1,0,36655.4,0.0859865,0.0856813,-16.8341,19,0.0106007,10,-0.00144236,-1.77381,-0.668091,-0.0883114,58.0001,0.0856813,
2,0,0,1,0,36655.4,0.0839889,0.083678,-16.9447,19,0.0104318,10,-0.0014179,-1.77097,-0.871323,-0.0677131,44.7229,0.083678,
2,0,0,1,0,36655.5,0.0820004,0.0816682,-17.0135,19,0.0102636,10,-0.00138947,-1.76921,-1.17284,-0.0503051,33.3962,0.08166822,
2,0,0,1,0,36655.5,0.0800028,0.0797237,-17.0768,19,0.0100931,10,-0.00136142,-1.76759,-1.69879,-0.0347306,23.1237,0.0797237,
2,0,0,1,0,36655.5,0.0780052,0.0776392,-17.1067,19,0.00992218,10,-0.00132815,-1.76683,-3.74542,-0.0157526,10.5114,0.0776392,
2,0,0,1,0,36655.5,0.0760076,0.0756796,-17.1193,19,0.00975105,10,-0.00129558,-1.76651,109.866,0.000537019,-0.358511,0.0756796,
2,0,0,1,0,36655.5,0.0740191,0.0736849,-17.1053,19,0.00958167,10,-0.0012604,-1.76687,5.60917,0.0105185,-7.02181,0.0736849,
2,0,0,1,0,36655.5,0.0720215,0.0717206,-17.0915,19,0.00941068,10,-0.00122581,-1.76722,2.66864,0.0221086,-14.7334,0.0717206,
2,0,0,1,0,36655.5,0.0700239,0.0696653,-17.0461,19,0.00924001,10,-0.00118752,-1.76838,1.56759,0.0376375,-25.0309,0.0696653,
2,0,0,1,0,36655.5,0.0680263,0.0676845,-16.9904,19,0.00906986,10,-0.00114999,-1.7698,1.54874,0.0380954,-25.269,0.0676845,
2,0,0,1,0,36655.5,0.0660197,0.065722,-16.9464,19,0.00890024,10,-0.00111375,-1.77092,1.43381,0.0411492,-27.1979,0.065722,
2,0,0,1,0,36655.5,0.0640221,0.063684,-16.8816,19,0.00873111,10,-0.00107509,-1.77259,1.00988,0.0584226,-38.4643,0.063684,
2,0,0,1,0,36655.6,0.0620245,0.0617501,-16.7937,19,0.00856271,10,-0.00103701,-1.77485,1.07743,0.0547599,-35.9239,0.0617501,
2,0,0,1,0,36655.6,0.0600269,0.0596783,-16.7377,19,0.00839503,10,-0.000998879,-1.7763,1.25104,0.0471609,-30.793,0.0596783,
2,0,0,1,0,36655.6,0.0580248,0.0576463,-16.6673,19,0.00822806,10,-0.000960808,-1.77814,1.07061,0.0551089,-35.8448,0.0576463,
2,0,0,1,0,36655.6,0.0560227,0.0557012,-16.5952,19,0.00806173,10,-0.00092437,-1.78002,1.09892,0.0536891,-34.7784,0.0557012,
2,0,0,1,0,36655.6,0.0540251,0.0536753,-16.5292,19,0.00789611,10,-0.000887209,-1.78175,1.14486,0.0515347,-33.2429,0.0536753,
2,0,0,1,0,36655.6,0.0520275,0.0516998,-16.4622,19,0.00773113,10,-0.000851089,-1.78351,1.03511,0.0569988,-36.6048,0.0516998,
2,0,0,1,0,36655.6,0.0500299,0.0496505,-16.3819,19,0.00756686,10,-0.000813367,-1.78564,1.16306,0.0507281,-32.4625,0.0496505,
2,0,0,1,0,36655.6,0.0480414,0.0477031,-16.3324,19,0.00740488,10,-0.000779107,-1.78695,1.18036,0.0499848,-31.8348,0.0477031,
2,0,0,1,0,36655.6,0.0460438,0.0457236,-16.2568,19,0.00724195,10,-0.000743322,-1.78896,1.0855,0.0543527,-34.4975,0.0457236,
2,0,0,1,0,36655.6,0.0440462,0.0436884,-16.1939,19,0.0070797,10,-0.000707487,-1.79065,1.01824,0.057943,-36.5968,0.0436884,
2,0,0,1,0,36655.7,0.0420486,0.0417336,-16.1108,19,0.00691822,10,-0.000672362,-1.79288,1.09887,0.0536917,-33.792,0.0417336,
2,0,0,1,0,36655.7,0.0400601,0.0397121,-16.0595,19,0.00675898,10,-0.000637758,-1.79427,1.13283,0.052082,-32.6136,0.03971206,
2,0,0,1,0,36655.7,0.0380625,0.03772,-15.9799,19,0.0065988,10,-0.000602763,-1.79643,0.951053,0.0620365,-38.695,0.03772,
2,0,0,1,0,36655.7,0.036065,0.035735,-15.9057,19,0.00643943,10,-0.000568388,-1.79845,0.928169,0.063566,-39.4466,0.035735,
2,0,0,1,0,36655.7,0.0340674,0.0337195,-15.8221,19,0.00628082,10,-0.000533514,-1.80074,0.971,0.0607621,-37.5381,0.03371951,
2,0,0,1,0,36655.7,0.0320607,0.0316997,-15.7542,19,0.00612293,10,-0.000499403,-1.8026,0.894326,0.0659715,-40.5275,0.0316997,
2,0,0,1,0,36655.7,0.0300631,0.029719,-15.66,19,0.00596587,10,-0.000465399,-1.80521,0.821887,0.071786,-43.891,0.029719,
2,0,0,1,0,36655.7,0.0280655,0.0277113,-15.5791,19,0.00580967,10,-0.000431718,-1.80746,0.815444,0.0723532,-43.9707,0.0277113,
2,0,0,1,0,36655.7,0.0260679,0.0257211,-15.4842,19,0.00565435,10,-0.00039827,-1.81011,0.77763,0.0758716,-45.8573,0.0257211,
2,0,0,1,0,36655.7,0.0240613,0.0236995,-15.3952,19,0.00549991,10,-0.000364858,-1.81262,0.734265,0.0803525,-48.2577,0.0236995,
2,0,0,1,0,36655.8,0.0220637,0.0217743,-15.2937,19,0.00534645,10,-0.000333011,-1.81549,0.702814,0.0839483,-50.1103,0.02177432,
2,0,0,1,0,36655.8,0.0200661,0.0197138,-15.1954,19,0.00519397,10,-0.000299559,-1.81829,0.649888,0.0907848,-53.8011,0.0197138,
2,0,0,1,0,36655.8,0.0180685,0.0177417,-15.0768,19,0.00504259,10,-0.000267487,-1.82169,0.638254,0.0924397,-54.4292,0.0177417,
2,0,0,1,0,36655.8,0.01608,0.0157478,-14.9796,19,0.00489382,10,-0.000235895,-1.8245,0.632864,0.093227,-54.4585,0.0157478,
2,0,0,1,0,36655.8,0.0140824,0.0137524,-14.8595,19,0.00474464,10,-0.000204354,-1.828,0.568646,0.103755,-60.1636,0.0137524,
2,0,0,1,0,36655.8,0.0120848,0.011718,-14.7371,19,0.00459669,10,-0.000172689,-1.83159,0.518552,0.113778,-65.3985,0.011718,
2,0,0,1,0,36655.8,0.0100872,0.00974324,-14.5973,19,0.00445008,10,-0.000142225,-1.83573,0.517765,0.113951,-64.9641,0.009743236,
2,0,0,1,0,36655.8,0.00810328,0.00775382,-14.4796,19,0.0043062,10,-0.000112272,-1.83924,0.509975,0.115692,-65.3177,0.00775382,
2,0,0,1,0,36655.8,0.00610116,0.00575052,-14.3365,19,0.00416214,10,-8.24425e-05,-1.84356,0.475745,0.124016,-69.4104,0.00575052,
2,0,0,1,0,36655.8,0.00410357,0.00377671,-14.2035,19,0.00401948,10,-5.36427e-05,-1.8476,0.573941,0.102798,-57.0524,0.003776714,
2,0,0,1,0,36655.9,0.00210598,0.00170574,-14.1058,19,0.00387813,10,-2.40608e-05,-1.8506,0.543453,0.108565,-59.6673,0.00170574,
2,0,0,1,0,36655.9,0.00010174,-0.000265459,-13.9623,19,0.00373781,10,3.70643e-06,-1.85504,0.447269,0.131912,-71.8785,-0.0002654588,
2,0,0,1,0,36655.9,-0.00189827,-0.00227657,-13.8195,19,0.00359889,10,3.14611e-05,-1.85951,0.472132,0.124965,-67.4278,-0.00227657,
2,0,0,1,0,36655.9,-0.00389586,-0.0043059,-13.6899,19,0.00346134,10,5.89474e-05,-1.8636,0.48628,0.121329,-64.8181,-0.0043059,
2,0,0,1,0,36655.9,-0.00589345,-0.00629619,-13.559,19,0.0033251,10,8.53699e-05,-1.86777,0.492451,0.119809,-63.4228,-0.00629619,
2,0,0,1,0,36655.9,-0.00789103,-0.00825871,-13.4392,19,0.00319008,10,0.000110991,-1.87163,0.54251,0.108754,-57.069,-0.00825871,
2,0,0,1,0,36655.9,-0.0098977,-0.0102455,-13.3336,19,0.00305621,10,0.00013661,-1.87505,0.571853,0.103173,-53.6828,-0.0102455,
2,0,0,1,0,36655.9,-0.0118953,-0.0122323,-13.2259,19,0.00292339,10,0.000161784,-1.87857,0.580401,0.101654,-52.4777,-0.0122323,
2,0,0,1,0,36655.9,-0.0138929,-0.0142677,-13.1225,19,0.00279164,10,0.000187229,-1.88198,0.644664,0.0915206,-46.9046,-0.0142677,
2,0,0,1,0,36655.9,-0.0158905,-0.0162233,-13.0387,19,0.00266086,10,0.000211531,-1.88477,0.735976,0.0801657,-40.7993,-0.0162233,
2,0,0,1,0,36656,-0.017879,-0.0182714,-12.9592,19,0.00253218,10,0.000236782,-1.88742,0.778149,0.075821,-38.3539,-0.0182714,
2,0,0,1,0,36656,-0.0198766,-0.020239,-12.8847,19,0.00240295,10,0.000260773,-1.88993,0.763175,0.0773086,-38.8668,-0.020239,
2,0,0,1,0,36656,-0.0218741,-0.0222288,-12.8054,19,0.00227454,10,0.000284648,-1.89261,0.912142,0.0646829,-32.3615,-0.0222288,
2,0,0,1,0,36656,-0.0238717,-0.0242529,-12.7548,19,0.00214673,10,0.00030934,-1.89433,1.20263,0.0490591,-24.4245,-0.0242529,
2,0,0,1,0,36656,-0.0258602,-0.0262008,-12.7084,19,0.0020207,10,0.000332969,-1.89591,1.18889,0.0496261,-24.6084,-0.0262008,
2,0,0,1,0,36656,-0.0278578,-0.028211,-12.6574,19,0.00189388,10,0.000357078,-1.89766,1.36497,0.0432243,-21.3651,-0.028211,
2,0,0,1,0,36656,-0.0298554,-0.0302326,-12.6222,19,0.00176748,10,0.000381602,-1.89886,1.96555,0.030017,-14.7928,-0.0302326,
2,0,0,1,0,36656,-0.031853,-0.0322341,-12.5979,19,0.00164139,10,0.000406081,-1.8997,2.25643,0.0261475,-12.8542,-0.0322341,
2,0,0,1,0,36656,-0.0338597,-0.0342236,-12.5709,19,0.00151557,10,0.000430221,-1.90063,2.97235,0.0198496,-9.74416,-0.0342236,
2,0,0,1,0,36656,-0.0358573,-0.0362112,-12.5591,19,0.00138992,10,0.000454781,-1.90104,4.58799,0.0128597,-6.30265,-0.0362112,
2,0,0,1,0,36656.1,-0.0378548,-0.0382328,-12.5456,19,0.00126439,10,0.000479654,-1.90151,5.29579,0.0111409,-5.45586,-0.0382328,
2,0,0,1,0,36656.1,-0.0398524,-0.0402465,-12.5371,19,0.00113894,10,0.000504574,-1.9018,49.5999,0.00118952,-0.582355,-0.0402465,
2,0,0,1,0,36656.1,-0.0418591,-0.0422047,-12.5433,19,0.00101356,10,0.000529387,-1.90159,-5.18213,-0.0113853,5.57556,-0.0422047,
2,0,0,1,0,36656.1,-0.0438567,-0.044221,-12.5593,19,0.000888031,10,0.000555383,-1.90104,-8.86722,-0.00665372,3.25888,-0.044221,
2,0,0,1,0,36656.1,-0.0458543,-0.0462321,-12.5565,19,0.000762449,10,0.000580511,-1.90113,-5.63468,-0.0104709,5.13649,-0.0462321,
2,0,0,1,0,36656.1,-0.0478519,-0.0482284,-12.5798,19,0.000636734,10,0.000606706,-1.90032,-2.07721,-0.0284035,13.9499,-0.0482284,
2,0,0,1,0,36656.1,-0.0498585,-0.0502517,-12.6125,19,0.000510806,10,0.000633801,-1.8992,-2.08949,-0.0282366,13.8934,-0.0502517,
2,0,0,1,0,36656.1,-0.051838,-0.0522269,-12.6354,19,0.000385816,10,0.000659908,-1.89841,-2.4053,-0.0245292,12.0969,-0.0522269,
2,0,0,1,0,36656.1,-0.0538355,-0.0542136,-12.6605,19,0.000259373,10,0.000686369,-1.89755,-1.85394,-0.0318242,15.7316,-0.05421361,
2,0,0,1,0,36656.1,-0.0558331,-0.0561613,-12.6973,19,0.000132596,10,0.000713097,-1.89629,-1.76777,-0.0333754,16.5335,-0.0561613,
2,0,0,1,0,36656.2,-0.0578126,-0.0581842,-12.7261,19,6.73751e-06,10,0.000740458,-1.8953,-1.47683,-0.0399504,19.859,-0.0581842,
2,0,0,1,0,36656.2,-0.0598192,-0.0601823,-12.7771,19,-0.000120829,10,0.000768958,-1.89357,-1.18002,-0.0499992,24.9309,-0.0601823,
2,0,0,1,0,36656.2,-0.0618168,-0.0622307,-12.827,19,-0.000248831,10,0.000798233,-1.89188,-1.13574,-0.0519487,26.0107,-0.0622307,
2,0,0,1,0,36656.2,-0.0638144,-0.0642236,-12.8823,19,-0.000377363,10,0.000827345,-1.89001,-1.25013,-0.047195,23.7123,-0.0642236,
2,0,0,1,0,36656.2,-0.065812,-0.0662018,-12.9211,19,-0.000506376,10,0.000855403,-1.8887,-1.08164,-0.054547,27.5406,-0.0662018,
2,0,0,1,0,36656.2,-0.0678187,-0.0682163,-12.9922,19,-0.000635989,10,0.000886282,-1.88632,-0.945366,-0.0624097,31.6243,-0.0682163,
2,0,0,1,0,36656.2,-0.0698163,-0.070178,-13.0469,19,-0.000766218,10,0.000915605,-1.88449,-0.973897,-0.0605814,30.8608,-0.070178,
2,0,0,1,0,36656.2,-0.0718138,-0.0721509,-13.1136,19,-0.000897061,10,0.000946162,-1.88228,-0.93272,-0.0632559,32.3674,-0.0721509,
2,0,0,1,0,36656.2,-0.0738114,-0.0741603,-13.1758,19,-0.00102854,10,0.00097712,-1.88022,-0.803718,-0.0734088,37.7876,-0.0741603,
2,0,0,1,0,36656.2,-0.0758181,-0.0761879,-13.2662,19,-0.00116081,10,0.00101072,-1.87725,-0.833987,-0.0707445,36.5829,-0.0761879,
2,0,0,1,0,36656.3,-0.0778157,-0.0782346,-13.3248,19,-0.00129381,10,0.00104246,-1.87534,-0.801266,-0.0736334,38.3442,-0.0782346,
2,0,0,1,0,36656.3,-0.0798133,-0.0802145,-13.4206,19,-0.00142757,10,0.00107653,-1.87223,-0.73398,-0.0803836,42.065,-0.0802145,
2,0,0,1,0,36656.3,-0.0818109,-0.0822342,-13.4931,19,-0.00156216,10,0.00110959,-1.86989,-0.714626,-0.0825606,43.5204,-0.0822342,
2,0,0,1,0,36656.3,-0.0837994,-0.0841902,-13.5936,19,-0.0016963,10,0.00114445,-1.86666,-0.675977,-0.0872811,46.2694,-0.0841902,
2,0,0,1,0,36656.3,-0.0857969,-0.0861491,-13.6742,19,-0.00183264,10,0.00117802,-1.8641,-0.647991,-0.0910506,48.6455,-0.0861491,
2,0,0,1,0,36656.3,-0.0877945,-0.0881525,-13.7864,19,-0.00196996,10,0.0012153,-1.86055,-0.635961,-0.092773,49.8711,-0.0881525,
2,0,0,1,0,36656.3,-0.0897921,-0.0901646,-13.8745,19,-0.00210826,10,0.00125099,-1.85778,-0.631099,-0.0934876,50.667,-0.0901646,
2,0,0,1,0,36656.3,-0.0917806,-0.0921328,-13.988,19,-0.00224616,10,0.00128876,-1.85424,-0.611954,-0.0964124,52.6023,-0.0921328,
2,0,0,1,0,36656.3,-0.0937782,-0.0941881,-14.0861,19,-0.00238656,10,0.00132675,-1.85121,-0.606289,-0.0973133,53.5285,-0.0941881,
2,0,0,1,0,36656.3,-0.0957758,-0.0961203,-14.2015,19,-0.00252803,10,0.00136505,-1.84767,-0.596346,-0.0989358,54.8097,-0.0961203,
2,0,0,1,0,36656.4,-0.0977734,-0.0981774,-14.3048,19,-0.00267056,10,0.00140441,-1.84452,-0.560461,-0.10527,58.8237,-0.0981774,
2,0,0,1,0,36656.4,-0.0997412,-0.100093,-14.4351,19,-0.00281138,10,0.00144485,-1.84058,0.112927,0.52246,-286.026,-0.100093,
2,0,0,1,1,36656.4,-0.0996711,-0.100102,-13.7544,19,-0.00285382,10,0.00137684,-1.86156,-0.016886,-3.49402,1716.88,-0.100102,
2,0,0,1,1,36656.4,-0.0976826,-0.0980397,-10.9105,19,-0.00297435,10,0.00106966,-1.96215,-0.0212567,-2.77559,1207.35,-0.0980397,
2,0,0,1,1,36656.4,-0.095685,-0.0960729,-8.89016,19,-0.00307279,10,0.000854104,-2.05109,-0.0218922,-2.69503,939.157,-0.0960729,
2,0,0,1,1,36656.4,-0.0936874,-0.0940926,-7.20358,19,-0.0031528,10,0.000677804,-2.14245,-0.0211224,-2.79324,786.374,-0.0940926,
2,0,0,1,1,36656.4,-0.0916898,-0.0920956,-5.7625,19,-0.0032173,10,0.000530701,-2.23939,-0.0195227,-3.02213,676.738,-0.0920956,
2,0,0,1,1,36656.4,-0.0897013,-0.0900765,-4.48574,19,-0.00326771,10,0.00040406,-2.34817,-0.0169015,-3.49081,605.868,-0.0900765,
2,0,0,1,1,36656.4,-0.0877037,-0.0881123,-3.34914,19,-0.00330664,10,0.0002951,-2.47507,-0.0137175,-4.30106,549.523,-0.08811228,
2,0,0,1,1,36656.4,-0.0857062,-0.0861038,-2.30262,19,-0.00333463,10,0.000198265,-2.63778,-0.0104509,-5.64545,489.498,-0.0861038,
2,0,0,1,1,36656.4,-0.0837086,-0.0840918,-1.38111,19,-0.00335286,10,0.00011614,-2.85977,-0.00613984,-9.60937,443.621,-0.0840918,
2,0,0,1,1,36656.5,-0.0817019,-0.0820468,-0.502884,19,-0.00336206,10,4.126e-05,-3.29853,-0.00570689,-10.3384,412.597,-0.0820468,
2,1,0,1,1,36656.5,-0.0797043,-0.0800809,0.273783,19,-0.00336307,10,-2.19248e-05,-3.56259,0.0131873,4.47401,379.836,-0.0800809,
2,1,0,1,1,36656.5,-0.0777067,-0.0780732,1.00645,19,-0.00335649,10,-7.85767e-05,-2.99721,0.00507234,11.6317,349.785,-0.0780732,
2,1,0,1,1,36656.5,-0.0757091,-0.0761046,1.66461,19,-0.00334306,10,-0.000126685,-2.77869,0.0109209,5.4025,329.891,-0.0761046,
2,1,0,1,1,36656.5,-0.0737025,-0.074156,2.29871,19,-0.00332312,10,-0.000170463,-2.63852,0.0171946,3.43132,295.78,-0.074156,
2,1,0,1,1,36656.5,-0.0717049,-0.0720624,2.86021,19,-0.00329724,10,-0.000206113,-2.5436,0.0236774,2.49183,273.583,-0.0720624,
2,1,0,1,1,36656.5,-0.0697073,-0.0701329,3.39936,19,-0.00326585,10,-0.000238407,-2.4686,0.0293898,2.0075,262.316,-0.0701329,
2,1,0,1,1,36656.5,-0.0677097,-0.0681417,3.88867,19,-0.00322934,10,-0.000264981,-2.4102,0.0369105,1.59846,241.002,-0.0681417,
2,1,0,1,1,36656.5,-0.0657212,-0.0661154,4.36759,19,-0.00318839,10,-0.000288765,-2.35976,0.0444379,1.3277,223.884,-0.0661154,
2,1,0,1,1,36656.5,-0.0637236,-0.0641438,4.78374,19,-0.0031426,10,-0.000306847,-2.32023,0.0530486,1.11219,207.027,-0.0641438,
2,1,0,1,1,36656.6,-0.061726,-0.0621158,5.19561,19,-0.00309263,10,-0.000322729,-2.28436,0.0617662,0.955215,192.478,-0.0621158,
2,1,0,1,1,36656.6,-0.0597284,-0.0600997,5.56215,19,-0.00303878,10,-0.000334283,-2.25476,0.0694622,0.849383,184.066,-0.0600997,
2,1,0,1,1,36656.6,-0.0577399,-0.0581486,5.92582,19,-0.00298187,10,-0.000344579,-2.22725,0.0789065,0.747721,172.001,-0.0581486,
2,1,0,1,1,36656.6,-0.0557423,-0.0561627,6.23931,19,-0.00292102,10,-0.000350417,-2.20486,0.0932359,0.632803,153.955,-0.0561627,
2,1,0,1,1,36656.6,-0.0537447,-0.0540778,6.55255,19,-0.00285699,10,-0.000354347,-2.18359,0.105126,0.561231,142.908,-0.0540778,
2,1,0,1,1,36656.6,-0.0517472,-0.052111,6.81833,19,-0.00279008,10,-0.00035531,-2.16632,0.11532,0.51162,136.154,-0.052111,
2,1,0,1,1,36656.6,-0.049745,-0.050112,7.09251,19,-0.00272047,10,-0.00035542,-2.1492,0.123806,0.47655,131.617,-0.050112,
2,1,0,1,1,36656.6,-0.0477429,-0.0481339,7.34179,19,-0.00264824,10,-0.000353389,-2.1342,0.141909,0.415758,118.881,-0.0481339,
2,1,0,1,1,36656.6,-0.0457453,-0.0461288,7.56603,19,-0.00257365,10,-0.000349012,-2.12113,0.165794,0.355864,104.874,-0.0461288,
2,1,0,1,1,36656.6,-0.0437477,-0.0441012,7.76471,19,-0.00249698,10,-0.000342433,-2.10987,0.178979,0.329647,99.8907,-0.0441012,
2,1,0,1,1,36656.7,-0.0417501,-0.0421214,7.96634,19,-0.00241823,10,-0.000335553,-2.09874,0.190298,0.31004,96.2764,-0.0421214,
2,1,0,1,1,36656.7,-0.0397435,-0.0400782,8.15204,19,-0.00233755,10,-0.000326718,-2.08873,0.211046,0.27956,88.8225,-0.0400782,
2,1,0,1,1,36656.7,-0.0377459,-0.0381573,8.31844,19,-0.00225516,10,-0.000317409,-2.07996,0.237354,0.248573,80.6211,-0.0381573,
2,1,0,1,1,36656.7,-0.0357483,-0.0361201,8.47114,19,-0.0021712,10,-0.000305979,-2.07206,0.258427,0.228305,75.4604,-0.0361201,
2,1,0,1,1,36656.7,-0.0337507,-0.0341385,8.6217,19,-0.00208569,10,-0.000294332,-2.06441,0.285036,0.206991,69.5489,-0.0341385,
2,1,0,1,1,36656.7,-0.0317622,-0.0321216,8.74923,19,-0.0019997,10,-0.000281039,-2.05803,0.315687,0.186894,63.8134,-0.0321216,
2,1,0,1,1,36656.7,-0.0297646,-0.0301326,8.87733,19,-0.00191157,10,-0.000267497,-2.05172,0.350351,0.168403,58.2515,-0.0301326,
2,1,0,1,1,36656.7,-0.027767,-0.0281888,8.97832,19,-0.00182233,10,-0.000253088,-2.04681,0.403059,0.146381,51.291,-0.0281888,
2,1,0,1,1,36656.7,-0.0257694,-0.0261807,9.08003,19,-0.00173203,10,-0.000237721,-2.04191,0.43867,0.134498,47.6316,-0.0261807,
2,1,0,1,1,36656.7,-0.0237809,-0.0241411,9.17112,19,-0.00164168,10,-0.000221401,-2.03758,0.461642,0.127805,45.7466,-0.0241411,
2,1,0,1,1,36656.8,-0.0217833,-0.0221612,9.26391,19,-0.00154947,10,-0.0002053,-2.03321,0.565724,0.104291,37.6325,-0.0221612,
2,1,0,1,1,36656.8,-0.0197858,-0.0201536,9.32118,19,-0.00145653,10,-0.000187855,-2.03053,0.632996,0.0932076,33.9434,-0.0201536,
2,1,0,1,1,36656.8,-0.0177882,-0.0181833,9.39893,19,-0.00136288,10,-0.000170903,-2.02692,0.586096,0.100666,36.9112,-0.0181833,
2,1,0,1,1,36656.8,-0.0157815,-0.0161262,9.46983,19,-0.00126855,10,-0.000152712,-2.02366,0.715051,0.0825116,30.4626,-0.01612616,
2,1,0,1,1,36656.8,-0.0137839,-0.0141697,9.52119,19,-0.0011736,10,-0.000134913,-2.02131,0.932796,0.0632507,23.4911,-0.0141697,
2,1,0,1,1,36656.8,-0.0117863,-0.0121534,9.56316,19,-0.0010782,10,-0.000116225,-2.0194,0.920823,0.0640732,23.9287,-0.0121534,
2,1,0,1,1,36656.8,-0.00978874,-0.010144,9.61752,19,-0.000982256,10,-9.75603e-05,-2.01694,0.922937,0.0639264,23.9791,-0.010144,
2,1,0,1,1,36656.8,-0.00778208,-0.00811989,9.65988,19,-0.000885887,10,-7.84372e-05,-2.01503,1.22853,0.0480247,18.0932,-0.00811989,
2,1,0,1,1,36656.8,-0.00578449,-0.00615737,9.68966,19,-0.000789143,10,-5.96628e-05,-2.01369,1.53079,0.0385422,14.5734,-0.00615737,
2,1,0,1,1,36656.8,-0.0037869,-0.0041801,9.71729,19,-0.000692082,10,-4.06192e-05,-2.01245,1.37558,0.0428909,16.2738,-0.0041801,
2,1,0,1,1,36656.9,-0.00178931,-0.00216638,9.7546,19,-0.000594697,10,-2.11322e-05,-2.01079,2.25232,0.0261952,9.95354,-0.00216638,
2,1,0,1,1,36656.9,-2.55332e-05,-0.000363498,9.75528,19,-0.000509804,10,-3.54603e-06,-2.01076, , , ,-0.000363498,