File: Figure_codes/Fig_3-5/rawdata_trumpetplot_data/after 10th/20221101_1-115_003_TrumpetPlot_ParaChange_from10_every3_04_CV_C01_33.csv
mode,ox/red,error,control changes,counter inc.,time/s,control/V,Ewe/V,<I>/mA,cycle number,(Q-Qo)/C,I Range,P/W,log(|I|),Tafel slope mV/dec,alpha_eff,dI/d(E-IR),E-IR/V,
2,0,0,1,0,66074.3,2.44065e-05,-0.000401673,-0.385608,34,0.0000000E+000,10,1.54888e-07,-3.41385, , , ,-0.000401673,
2,1,0,1,0,66074.4,0.00129787,0.000958829,0.0832472,34,-8.41393e-06,10,7.98198e-08,-4.07963, , , ,0.000958829,
2,1,0,1,0,66074.6,0.00279606,0.00247309,0.237364,34,1.97024e-05,10,5.87023e-07,-3.62458,0.00357443,16.5061,79.1612,0.00247309,
2,1,0,1,0,66074.7,0.00429425,0.00397781,0.287599,34,6.15092e-05,10,1.14401e-06,-3.54121,0.0197711,2.98415,30.5081,0.00397781,
2,1,0,1,0,66074.9,0.00579244,0.00545495,0.318826,34,0.000109291,10,1.73918e-06,-3.49645,0.0367994,1.60329,19.4582,0.00545495,
2,1,0,1,0,66075,0.00729063,0.00695861,0.343587,34,0.000161087,10,2.39089e-06,-3.46396,0.0535603,1.10156,14.5611,0.006958609,
2,1,0,1,0,66075.2,0.00878882,0.00848665,0.363587,34,0.000216205,10,3.08564e-06,-3.43939,0.0709638,0.83141,11.6819,0.00848665,
2,1,0,1,0,66075.3,0.010287,0.00994895,0.38008,34,0.000273987,10,3.7814e-06,-3.42013,0.0893982,0.659968,9.68007,0.009948954,
2,1,0,1,0,66075.5,0.0117852,0.0114929,0.39281,34,0.000333918,10,4.51453e-06,-3.40582,0.101508,0.581232,8.88679,0.0114929,
2,1,0,1,0,66075.6,0.0132838,0.0129864,0.404287,34,0.000395698,10,5.25025e-06,-3.39331,0.110054,0.536102,8.4704,0.0129864,
2,1,0,1,0,66075.8,0.0147814,0.014431,0.418908,34,0.000459406,10,6.04529e-06,-3.37788,0.115829,0.509372,8.31156,0.014431,
2,1,0,1,0,66075.9,0.0162789,0.015943,0.428535,34,0.000525015,10,6.83213e-06,-3.36801,0.136048,0.43367,7.23464,0.015943,
2,1,0,1,0,66076.1,0.017778,0.0174481,0.439266,34,0.000592173,10,7.66438e-06,-3.35727,0.156017,0.378163,6.48981,0.0174481,
2,1,0,1,0,66076.2,0.0192761,0.018938,0.448324,34,0.000660563,10,8.49036e-06,-3.34841,0.156773,0.376341,6.58553,0.018938,
2,1,0,1,0,66076.4,0.0207743,0.0204692,0.460261,34,0.000730583,10,9.4212e-06,-3.337,0.152757,0.386233,6.89222,0.0204692,
2,1,0,1,0,66076.5,0.0222725,0.0219485,0.46895,34,0.000802164,10,1.02928e-05,-3.32887,0.162361,0.363387,6.63813,0.0219485,
2,1,0,1,0,66076.7,0.0237707,0.0234479,0.478376,34,0.000875147,10,1.12169e-05,-3.32023,0.194526,0.303301,5.66115,0.0234479,
2,1,0,1,0,66076.8,0.0252689,0.0249643,0.485923,34,0.000949442,10,1.21307e-05,-3.31343,0.178627,0.330297,6.28984,0.0249643,
2,1,0,1,0,66077,0.0267671,0.0264669,0.498817,34,0.00102527,10,1.32022e-05,-3.30206,0.155433,0.379584,7.37124,0.0264669,
2,1,0,1,0,66077.1,0.0282662,0.0279309,0.508927,34,0.0011027,10,1.42148e-05,-3.29334,0.169215,0.348668,6.91592,0.0279309,
2,1,0,1,0,66077.3,0.0297635,0.0294233,0.517542,34,0.0011816,10,1.52278e-05,-3.28605,0.186515,0.316328,6.37971,0.02942328,
2,1,0,1,0,66077.4,0.031261,0.0309192,0.525057,34,0.00126182,10,1.62343e-05,-3.27979,0.19333,0.305178,6.27715,0.0309192,
2,1,0,1,0,66077.6,0.0327599,0.0324275,0.534992,34,0.00134334,10,1.73484e-05,-3.27165,0.192526,0.306452,6.41443,0.0324275,
2,1,0,1,0,66077.7,0.034258,0.0339725,0.546393,34,0.00142641,10,1.85623e-05,-3.26249,0.181405,0.325239,6.91232,0.0339725,
2,1,0,1,0,66077.9,0.0357562,0.0354496,0.55553,34,0.00151096,10,1.96933e-05,-3.25529,0.226927,0.259996,5.62356,0.0354496,
2,1,0,1,0,66078,0.0372544,0.0368949,0.563875,34,0.00159689,10,2.08041e-05,-3.24882,0.210788,0.279902,6.1693,0.0368949,
2,1,0,1,0,66078.2,0.0387526,0.0383848,0.573604,34,0.00168407,10,2.20177e-05,-3.24139,0.197283,0.299063,6.72227,0.0383848,
2,1,0,1,0,66078.3,0.0402508,0.0399001,0.583363,34,0.00177282,10,2.32762e-05,-3.23406,0.207126,0.284851,6.49725,0.0399001,
2,1,0,1,0,66078.5,0.041749,0.0414642,0.594796,34,0.00186323,10,2.46628e-05,-3.22563,0.209089,0.282176,6.52727,0.0414642,
2,1,0,1,0,66078.6,0.0432472,0.0429361,0.605605,34,0.00195504,10,2.60023e-05,-3.21781,0.244138,0.241666,5.68226,0.0429361,
2,1,0,1,0,66078.8,0.0447458,0.0444148,0.612152,34,0.00204807,10,2.71886e-05,-3.21314,0.225799,0.261295,6.24192,0.0444148,
2,1,0,1,0,66078.9,0.0462433,0.0459356,0.622248,34,0.00214251,10,2.85834e-05,-3.20604,0.206557,0.285635,6.92627,0.0459356,
2,1,0,1,0,66079.1,0.0477409,0.0474441,0.63181,34,0.00223841,10,2.99757e-05,-3.19941,0.218432,0.270107,6.64248,0.04744409,
2,1,0,1,0,66079.2,0.0492399,0.048939,0.638845,34,0.00233579,10,3.12644e-05,-3.1946,0.252216,0.233927,5.831,0.048939,
2,1,0,1,0,66079.4,0.0507381,0.05043,0.645879,34,0.00243425,10,3.25717e-05,-3.18985,0.263047,0.224295,5.67439,0.05043,
2,1,0,1,0,66079.5,0.0522363,0.0518806,0.657625,34,0.00253402,10,3.4118e-05,-3.18202,0.247045,0.238823,6.11655,0.0518806,
2,1,0,1,0,66079.7,0.0537345,0.053432,0.667092,34,0.00263514,10,3.56441e-05,-3.17581,0.268768,0.21952,5.69838,0.053432,
2,1,0,1,0,66079.8,0.0552327,0.0549059,0.674433,34,0.00273757,10,3.70304e-05,-3.17106,0.299555,0.196959,5.18169,0.0549059,
2,1,0,1,0,66080,0.0567309,0.0563831,0.678016,34,0.00284107,10,3.82287e-05,-3.16876,0.324101,0.182042,4.84658,0.0563831,
2,1,0,1,0,66080.1,0.0582291,0.057874,0.689824,34,0.00294566,10,3.99229e-05,-3.16126,0.324806,0.181647,4.89156,0.05787402,
2,1,0,1,0,66080.3,0.0597282,0.0594072,0.697569,34,0.00305159,10,4.14406e-05,-3.15641,0.303073,0.194672,5.28481,0.0594072,
2,1,0,1,0,66080.4,0.0612255,0.060896,0.70407,34,0.00315862,10,4.2875e-05,-3.15238,0.360595,0.163618,4.49269,0.060896,
2,1,0,1,0,66080.6,0.062723,0.0623948,0.711616,34,0.00326663,10,4.44012e-05,-3.14775,0.369105,0.159846,4.43513,0.0623948,
2,1,0,1,0,66080.7,0.0642218,0.0638855,0.71753,34,0.00337559,10,4.58397e-05,-3.14416,0.349671,0.16873,4.73093,0.0638855,
2,1,0,1,0,66080.9,0.06572,0.0654549,0.725033,34,0.00348572,10,4.74569e-05,-3.13964,0.298285,0.197797,5.5897,0.06545487,
2,1,0,1,0,66081,0.0672182,0.0668631,0.733157,34,0.00359706,10,4.90211e-05,-3.1348,0.414201,0.142443,4.06369,0.06686309,
2,1,0,1,0,66081.2,0.0687164,0.0683911,0.738457,34,0.00370937,10,5.05039e-05,-3.13167,0.531967,0.110909,3.18942,0.0683911,
2,1,0,1,0,66081.3,0.0702146,0.0698863,0.744005,34,0.00382231,10,5.19957e-05,-3.12842,0.471157,0.125224,3.63179,0.0698863,
2,1,0,1,0,66081.5,0.0717128,0.0713921,0.749131,34,0.00393614,10,5.3482e-05,-3.12544,0.419706,0.140575,4.10094,0.0713921,
2,1,0,1,0,66081.6,0.073211,0.0729223,0.756016,34,0.004051,10,5.51304e-05,-3.12147,0.467209,0.126282,3.72568,0.0729223,
2,1,0,1,0,66081.8,0.0747092,0.0743782,0.761346,34,0.0041667,10,5.66276e-05,-3.11842,0.56819,0.103838,3.08054,0.0743782,
2,1,0,1,0,66081.9,0.0762078,0.0759163,0.764785,34,0.0042832,10,5.80597e-05,-3.11646,0.464088,0.127131,3.80383,0.07591632,
2,1,0,1,0,66082.1,0.0777053,0.0773618,0.771322,34,0.00440021,10,5.96709e-05,-3.11276,0.437141,0.134968,4.06232,0.0773618,
2,1,0,1,0,66082.2,0.0792029,0.0788555,0.77854,34,0.00451828,10,6.13921e-05,-3.10872,0.417571,0.141293,4.28182,0.0788555,
2,1,0,1,0,66082.4,0.0807019,0.0803684,0.78171,34,0.00463729,10,6.28248e-05,-3.10695,0.644415,0.0915559,2.78584,0.0803684,
2,1,0,1,0,66082.5,0.0822001,0.081871,0.784752,34,0.00475689,10,6.42485e-05,-3.10527,0.65661,0.0898555,2.76297,0.081871,
2,1,0,1,0,66082.7,0.0836983,0.0833747,0.791439,34,0.00487706,10,6.5986e-05,-3.10158,0.452438,0.130405,4.03454,0.0833747,
2,1,0,1,0,66082.8,0.0851965,0.0848805,0.798412,34,0.00499824,10,6.77696e-05,-3.09777,0.478638,0.123267,3.84657,0.0848805,
2,1,0,1,0,66083,0.0866947,0.0863672,0.804666,34,0.00512038,10,6.94967e-05,-3.09438,0.487544,0.121015,3.79508,0.0863672,
2,1,0,1,0,66083.1,0.0881929,0.0878358,0.813032,34,0.00524353,10,7.14133e-05,-3.08989,0.444202,0.132823,4.21153,0.0878358,
2,1,0,1,0,66083.3,0.0896911,0.0893522,0.817461,34,0.00536747,10,7.30419e-05,-3.08753,0.386628,0.152602,4.88149,0.08935219,
2,1,0,1,0,66083.4,0.0911901,0.090895,0.828524,34,0.00549282,10,7.53087e-05,-3.08169,0.308261,0.191396,6.18371,0.090895,
2,1,0,1,0,66083.6,0.0926875,0.0924318,0.837124,34,0.00561956,10,7.73769e-05,-3.07721,0.288115,0.204779,6.68916,0.0924318,
2,1,0,1,0,66083.7,0.094185,0.0938625,0.845545,34,0.00574765,10,7.9365e-05,-3.07286,0.293695,0.200888,6.64619,0.0938625,
2,1,0,1,0,66083.9,0.0956838,0.09537,0.855166,34,0.00587722,10,8.15572e-05,-3.06795,0.245655,0.240174,8.03833,0.09537,
2,1,0,1,0,66084,0.097182,0.096827,0.867374,34,0.00600848,10,8.39853e-05,-3.06179,0.211102,0.279486,9.48604,0.096827,
2,1,0,1,0,66084.2,0.0986802,0.0983328,0.882898,34,0.00614184,10,8.68178e-05,-3.05409,0.225286,0.26189,9.02152,0.0983328,
2,1,0,1,0,66084.3,0.100178,0.0998407,0.896373,34,0.00627727,10,8.94944e-05,-3.04751,0.218507,0.270014,9.4522,0.0998407,
2,1,0,1,0,66084.5,0.101677,0.101366,0.909626,34,0.00641469,10,9.22048e-05,-3.04114,0.212573,0.277552,9.87152,0.101366,
2,1,0,1,0,66084.6,0.103175,0.102851,0.926896,34,0.00655424,10,9.53324e-05,-3.03297,0.207824,0.283894,10.2756,0.102851,
2,1,0,1,0,66084.8,0.104673,0.104395,0.944411,34,0.0066963,10,9.85919e-05,-3.02484,0.191206,0.308568,11.3327,0.104395,
2,1,0,1,0,66084.9,0.106171,0.105862,0.958499,34,0.00684086,10,0.000101468,-3.01841,0.22292,0.26467,9.87072,0.105862,
2,1,0,1,0,66085.1,0.10767,0.107354,0.971921,34,0.00698777,10,0.00010434,-3.01237,0.227298,0.259571,9.85973,0.107354,
2,1,0,1,0,66085.2,0.109167,0.108848,0.986588,34,0.00713659,10,0.000107388,-3.00586,0.224958,0.262271,10.1111,0.108848,
2,1,0,1,0,66085.4,0.110665,0.11037,1.00278,34,0.00728784,10,0.000110676,-2.9988,0.223975,0.263422,10.3026,0.11037,
2,1,0,1,0,66085.5,0.112164,0.111801,1.01669,34,0.00744137,10,0.000113667,-2.99281,0.268998,0.219333,8.68256,0.111801,
2,1,0,1,0,66085.7,0.113662,0.113361,1.03101,34,0.00759688,10,0.000116876,-2.98674,0.304618,0.193685,7.76865,0.113361,
2,1,0,1,0,66085.8,0.11516,0.114831,1.03999,34,0.00775389,10,0.000119423,-2.98297,0.344966,0.171031,6.92929,0.114831,
2,1,0,1,0,66086,0.116658,0.11631,1.05083,34,0.00791265,10,0.000122222,-2.97847,0.350591,0.168287,6.88969,0.11631,
2,1,0,1,0,66086.1,0.118157,0.117842,1.06095,34,0.00807292,10,0.000125024,-2.97431,0.437256,0.134932,5.58118,0.117842,
2,1,0,1,0,66086.3,0.119655,0.119309,1.06941,34,0.00823448,10,0.00012759,-2.97085,0.578818,0.101932,4.24969,0.119309,
2,1,0,1,0,66086.4,0.121153,0.120828,1.07161,34,0.00839682,10,0.000129481,-2.96996,0.595634,0.0990541,4.1555,0.120828,
2,1,0,1,0,66086.6,0.122652,0.122397,1.0783,34,0.00856019,10,0.00013198,-2.96726,0.570052,0.103499,4.35559,0.122397,
2,1,0,1,0,66086.7,0.124149,0.123807,1.08476,34,0.00872446,10,0.000134301,-2.96467,0.598434,0.0985906,4.1752,0.123807,
2,1,0,1,0,66086.9,0.125647,0.125361,1.08947,34,0.00888946,10,0.000136577,-2.96278,1.01657,0.0580383,2.46492,0.125361,
2,1,0,1,0,66087,0.127146,0.126835,1.09009,34,0.00905514,10,0.000138262,-2.96254,1.15007,0.0513011,2.18686,0.126835,
2,1,0,1,0,66087.2,0.128644,0.128315,1.09696,34,0.00922107,10,0.000140757,-2.95981,1.32866,0.0444055,1.89812,0.1283147,
2,1,0,1,0,66087.3,0.130142,0.129843,1.09851,34,0.00938749,10,0.000142634,-2.9592,4.45355,0.0132478,0.566997,0.129843,
2,1,0,1,0,66087.5,0.13164,0.131296,1.09783,34,0.0095542,10,0.00014414,-2.95946,-1.83276,-0.0321919,-1.37547,0.1312955,
2,1,0,1,0,66087.6,0.133139,0.132812,1.09531,34,0.00972063,10,0.00014547,-2.96046,-0.887439,-0.0664834,-2.83849,0.132812,
2,1,0,1,0,66087.8,0.134637,0.134294,1.08986,34,0.00988631,10,0.000146363,-2.96263,-0.590589,-0.0999002,-4.24405,0.134294,
2,1,0,1,0,66087.9,0.136135,0.13583,1.08283,34,0.0100511,10,0.000147081,-2.96544,-0.359357,-0.164182,-6.91225,0.13583,
2,1,0,1,0,66088.1,0.137633,0.137347,1.07231,34,0.0102145,10,0.000147279,-2.96968,-0.23809,-0.247806,-10.3078,0.137347,
2,1,0,1,0,66088.2,0.139132,0.138824,1.05374,34,0.0103756,10,0.000146285,-2.97726,-0.178426,-0.330669,-13.5188,0.138824,
2,1,0,1,0,66088.4,0.140629,0.14031,1.02922,34,0.0105335,10,0.000144409,-2.98749,-0.143716,-0.410532,-16.4398,0.14031,
2,1,0,1,0,66088.5,0.142127,0.141819,1.00298,34,0.0106878,10,0.000142241,-2.99871,-0.123148,-0.479099,-18.6777,0.141819,
2,1,0,1,0,66088.7,0.143626,0.143336,0.973762,34,0.0108382,10,0.000139576,-3.01155,-0.105398,-0.559784,-21.1892,0.143336,
2,1,0,1,0,66088.8,0.145124,0.144801,0.938642,34,0.0109835,10,0.000135916,-3.0275,-0.0873935,-0.675108,-24.6534,0.144801,
2,1,0,1,0,66089,0.146622,0.146311,0.899921,34,0.0111233,10,0.000131668,-3.0458,-0.0826355,-0.713979,-25.0888,0.146311,
2,1,0,1,0,66089.1,0.14812,0.147794,0.862313,34,0.0112573,10,0.000127445,-3.06434,-0.0806671,-0.731401,-24.5978,0.147794,
2,1,0,1,0,66089.3,0.149619,0.149269,0.826197,34,0.0113859,10,0.000123326,-3.08292,-0.0773566,-0.762701,-24.5901,0.1492694,
2,1,0,1,0,66089.4,0.151117,0.150806,0.790323,34,0.0115088,10,0.000119185,-3.1022,-0.0758115,-0.778246,-23.976,0.150806,
2,1,0,1,0,66089.6,0.152615,0.152339,0.753628,34,0.0116265,10,0.000114807,-3.12284,-0.0797029,-0.740249,-21.8849,0.152339,
2,1,0,1,0,66089.7,0.154114,0.153767,0.724286,34,0.0117391,10,0.000111371,-3.14009,-0.0885258,-0.666473,-18.9132,0.153767,
2,1,0,1,0,66089.9,0.155612,0.155308,0.697978,34,0.0118476,10,0.000108401,-3.15616,-0.0990716,-0.595529,-16.2712,0.155308,
2,1,0,1,0,66090,0.157109,0.156782,0.673681,34,0.0119523,10,0.000105621,-3.17155,-0.105469,-0.559405,-14.755,0.156782,
2,1,0,1,0,66090.2,0.158608,0.158307,0.654095,34,0.0120538,10,0.000103548,-3.18436,-0.120654,-0.489,-12.5301,0.158307,
2,1,0,1,0,66090.3,0.160106,0.159809,0.634398,34,0.0121522,10,0.000101382,-3.19764,-0.135244,-0.436248,-10.8614,0.159809,
2,1,0,1,0,66090.5,0.161604,0.161265,0.622496,34,0.0122484,10,0.000100387,-3.20586,-0.157301,-0.375078,-9.11071,0.1612647,
2,1,0,1,0,66090.6,0.163102,0.162762,0.608509,34,0.0123424,10,9.90422e-05,-3.21573,-0.177973,-0.331511,-7.87589,0.162762,
2,1,0,1,0,66090.8,0.164601,0.164318,0.597947,34,0.0124347,10,9.82532e-05,-3.22334,-0.207229,-0.284709,-6.64982,0.164318,
2,1,0,1,0,66090.9,0.166099,0.165776,0.586195,34,0.0125253,10,9.71769e-05,-3.23196,-0.230593,-0.255862,-5.88177,0.165776,
2,1,0,1,0,66091.1,0.167597,0.167268,0.581366,34,0.0126147,10,9.72437e-05,-3.23555,-0.293945,-0.200718,-4.55133,0.167268,
2,1,0,1,0,66091.2,0.169095,0.168747,0.573636,34,0.0127031,10,9.67994e-05,-3.24136,-0.311824,-0.18921,-4.23683,0.168747,
2,1,0,1,0,66091.4,0.170594,0.170246,0.568066,34,0.0127906,10,9.67108e-05,-3.2456,-0.335169,-0.176031,-3.90434,0.170246,
2,1,0,1,0,66091.5,0.172091,0.171751,0.560032,34,0.0128771,10,9.6186e-05,-3.25179,-0.41002,-0.143896,-3.16031,0.171751,
2,1,0,1,0,66091.7,0.173589,0.173285,0.557405,34,0.0129627,10,9.65898e-05,-3.25383,-0.490149,-0.120372,-2.62044,0.173285,
2,1,0,1,0,66091.8,0.175088,0.174766,0.553784,34,0.0130478,10,9.67825e-05,-3.25666,-0.551392,-0.107002,-2.30947,0.1747658,
2,1,0,1,0,66092,0.176586,0.176232,0.550018,34,0.0131324,10,9.69309e-05,-3.25962,-0.482454,-0.122291,-2.61843,0.176232,
2,1,0,1,0,66092.1,0.178084,0.177749,0.544238,34,0.0132163,10,9.67376e-05,-3.26421,-0.565788,-0.104279,-2.22429,0.177749,
2,1,0,1,0,66092.3,0.179582,0.179236,0.544091,34,0.0132998,10,9.75209e-05,-3.26433,-0.997921,-0.0591229,-1.25806,0.1792365,
2,1,0,1,0,66092.4,0.181081,0.180791,0.541278,34,0.0133829,10,9.78583e-05,-3.26658,-0.755616,-0.078082,-1.65041,0.180791,
2,1,0,1,0,66092.6,0.182579,0.182288,0.538204,34,0.0134658,10,9.81084e-05,-3.26905,-0.551702,-0.106942,-2.24588,0.182288,
2,1,0,1,0,66092.7,0.184077,0.183743,0.536499,34,0.0135483,10,9.85781e-05,-3.27043,-0.830308,-0.0710579,-1.49085,0.183743,
2,1,0,1,0,66092.9,0.185576,0.18525,0.535729,34,0.0136302,10,9.92438e-05,-3.27105,-1.20494,-0.0489653,-1.02318,0.18525,
2,1,0,1,0,66093,0.187074,0.186769,0.534673,34,0.0137121,10,9.98601e-05,-3.27191,-2.5465,-0.0231691,-0.481378,0.186769,
2,1,0,1,0,66093.2,0.188571,0.188253,0.531881,34,0.0137938,10,0.000100128,-3.27419,-2.2885,-0.025781,-0.535336,0.188253,
2,1,0,1,0,66093.3,0.19007,0.18974,0.531064,34,0.0138753,10,0.000100764,-3.27485,-1.23141,-0.0479127,-0.99161,0.18974,
2,1,0,1,0,66093.5,0.191568,0.191274,0.527044,34,0.0139564,10,0.00010081,-3.27815,-1.84704,-0.031943,-0.660754,0.191274,
2,1,0,1,0,66093.6,0.193066,0.192698,0.526214,34,0.0140374,10,0.000101401,-3.27884,14.6397,0.00403014,0.0830279,0.192698,
2,1,0,1,0,66093.8,0.194564,0.194252,0.527719,34,0.0141183,10,0.00010251,-3.2776,-1.70484,-0.0346074,-0.712063,0.194252,
2,1,0,1,0,66093.9,0.196063,0.195756,0.52427,34,0.0141991,10,0.000102629,-3.28044,-1.13315,-0.052067,-1.06847,0.195756,
2,1,0,1,0,66094.1,0.197561,0.19727,0.521997,34,0.0142794,10,0.000102974,-3.28233,-1.9624,-0.0300652,-0.617043,0.19727,
2,1,0,1,0,66094.2,0.199059,0.198749,0.523602,34,0.0143597,10,0.000104065,-3.281,-2.87492,-0.0205223,-0.41828,0.198749,
2,1,0,1,0,66094.4,0.200557,0.200221,0.522881,34,0.01444,10,0.000104692,-3.2816,-1.23745,-0.0476787,-0.972195,0.200221,
2,1,0,1,0,66094.5,0.202056,0.201757,0.521791,34,0.0145201,10,0.000105275,-3.2825,-1.16999,-0.0504278,-1.02384,0.201757,
2,1,0,1,0,66094.7,0.203553,0.203237,0.520382,34,0.0145999,10,0.000105761,-3.28368,-1.94988,-0.0302583,-0.614042,0.203237,
2,1,0,1,0,66094.8,0.205051,0.204732,0.519127,34,0.0146796,10,0.000106282,-3.28473,3.03109,0.019465,0.396765,0.204732,
2,1,0,1,0,66095,0.20655,0.206232,0.518693,34,0.0147592,10,0.000106971,-3.28509,-2.08116,-0.0283496,-0.573881,0.206232,
2,1,0,1,0,66095.1,0.208048,0.207709,0.5189,34,0.0148391,10,0.00010778,-3.28492,-1.3677,-0.0431382,-0.870989,0.207709,
2,1,0,1,0,66095.3,0.209546,0.209239,0.517672,34,0.0149186,10,0.000108317,-3.28595,-0.961633,-0.061354,-1.2389,0.209239,
2,1,0,1,0,66095.4,0.211044,0.210719,0.516956,34,0.0149978,10,0.000108932,-3.28655,-2.63488,-0.0223919,-0.451112,0.210719,
2,1,0,1,0,66095.6,0.212543,0.212242,0.51647,34,0.0150769,10,0.000109617,-3.28695,-2.59655,-0.0227225,-0.457239,0.212242,
2,1,0,1,0,66095.7,0.214041,0.213701,0.515569,34,0.0151561,10,0.000110178,-3.28771,-2.23442,-0.026405,-0.530988,0.213701,
2,1,0,1,0,66095.9,0.215539,0.215247,0.514768,34,0.0152351,10,0.000110802,-3.28839,-3.01189,-0.019589,-0.393562,0.215247,
2,1,0,1,0,66096,0.217038,0.216717,0.514219,34,0.015314,10,0.00011144,-3.28885,-2.83442,-0.0208155,-0.418105,0.216717,
2,1,0,1,0,66096.2,0.218535,0.218243,0.512987,34,0.0153928,10,0.000111956,-3.28989,2.16085,0.027304,0.546796,0.218243,
2,1,0,1,0,66096.3,0.220033,0.21975,0.514927,34,0.0154715,10,0.000113155,-3.28825,-19.0051,-0.00310443,-0.0621722,0.21975,
2,1,0,1,0,66096.5,0.221532,0.221251,0.512666,34,0.0155503,10,0.000113428,-3.29017,-11.5548,-0.00510612,-0.102044,0.221251,
2,1,0,1,0,66096.6,0.22303,0.222661,0.509153,34,0.0156288,10,0.000113369,-3.29315,-6.63821,-0.00888794,-0.17742,0.2226612,
2,1,0,1,0,66096.8,0.224528,0.224186,0.511467,34,0.0157072,10,0.000114664,-3.29118,-3.24435,-0.0181854,-0.361951,0.224186,
2,1,0,1,0,66096.9,0.226026,0.225757,0.510643,34,0.0157856,10,0.000115281,-3.29188,-3.14934,-0.0187341,-0.373571,0.225757,
2,1,0,1,0,66097.1,0.227525,0.227261,0.508128,34,0.0158639,10,0.000115478,-3.29403,-1.42729,-0.041337,-0.820305,0.227261,
2,1,0,1,0,66097.2,0.229023,0.228671,0.50973,34,0.0159421,10,0.00011656,-3.29266,-6.96886,-0.00846624,-0.168335,0.228671,
2,1,0,1,0,66097.4,0.230521,0.230223,0.507952,34,0.0160201,10,0.000116942,-3.29418,-13.4519,-0.00438599,-0.0871948,0.230223,
2,1,0,1,0,66097.5,0.232019,0.231706,0.508657,34,0.0160981,10,0.000117859,-3.29358,-15.7793,-0.00373907,-0.0740445,0.231706,
2,1,0,1,0,66097.7,0.233518,0.233221,0.50883,34,0.0161762,10,0.00011867,-3.29343,-2.09852,-0.028115,-0.556385,0.233221,
2,1,0,1,0,66097.8,0.235015,0.234726,0.507815,34,0.0162541,10,0.000119197,-3.29429,-6.92987,-0.00851387,-0.168528,0.234726,
2,1,0,1,0,66098,0.236513,0.236171,0.505471,34,0.0163317,10,0.000119377,-3.2963,-8.25751,-0.00714501,-0.141207,0.236171,
2,1,0,1,0,66098.1,0.238012,0.237702,0.507009,34,0.0164095,10,0.000120517,-3.29498,6.35451,0.00928474,0.183055,0.237702,
2,1,0,1,0,66098.3,0.23951,0.239208,0.505248,34,0.0164871,10,0.000120859,-3.2965,-3.15521,-0.0186992,-0.368593,0.239208,
2,1,0,1,0,66098.4,0.241008,0.240673,0.505569,34,0.0165646,10,0.000121677,-3.29622,-2.03569,-0.0289828,-0.570564,0.240673,
2,1,0,1,0,66098.6,0.242506,0.242177,0.502065,34,0.0166419,10,0.000121589,-3.29924,-3.31264,-0.0178106,-0.350023,0.242177,
2,1,0,1,0,66098.7,0.244005,0.243684,0.503423,34,0.0167192,10,0.000122676,-3.29807,5.8783,0.0100369,0.197362,0.243684,
2,1,0,1,0,66098.9,0.245503,0.245258,0.503228,34,0.0167965,10,0.000123421,-3.29823,-2.3052,-0.0255943,-0.50256,0.245258,
2,1,0,1,0,66099,0.247001,0.24667,0.504424,34,0.0168738,10,0.000124426,-3.2972,-1.0944,-0.0539106,-1.05709,0.24667,
2,1,0,1,0,66099.2,0.2485,0.248194,0.501251,34,0.016951,10,0.000124408,-3.29994,-3.11979,-0.0189115,-0.370578,0.248194,
2,1,0,1,0,66099.3,0.249997,0.249704,0.50202,34,0.0170279,10,0.000125357,-3.29928,-4.04686,-0.0145792,-0.285375,0.249704,
2,1,0,1,0,66099.5,0.251495,0.251182,0.49945,34,0.0171048,10,0.000125453,-3.30151,-5.34256,-0.0110434,-0.215429,0.2511822,
2,1,0,1,0,66099.6,0.252994,0.252705,0.501367,34,0.0171816,10,0.000126698,-3.29984,-1.11728,-0.0528066,-1.03062,0.252705,
2,1,0,1,0,66099.8,0.254492,0.254161,0.499515,34,0.0172584,10,0.000126957,-3.30145,-3.104,-0.0190077,-0.370999,0.254161,
2,1,0,1,0,66099.9,0.25599,0.255728,0.498732,34,0.0173349,10,0.00012754,-3.30213,-9.66056,-0.00610731,-0.11916,0.255728,
2,1,0,1,0,66100.1,0.257488,0.257209,0.498332,34,0.0174115,10,0.000128175,-3.30248,-30.575,-0.00192968,-0.0374976,0.257209,
2,1,0,1,0,66100.2,0.258987,0.258696,0.498815,34,0.017488,10,0.000129041,-3.30206,-2.66647,-0.0221266,-0.429863,0.258696,
2,1,0,1,0,66100.4,0.260485,0.260204,0.497881,34,0.0175645,10,0.000129551,-3.30287,-2.59071,-0.0227737,-0.442041,0.260204,
2,1,0,1,0,66100.5,0.261983,0.261709,0.496485,34,0.0176407,10,0.000129934,-3.30409,-2.42411,-0.0243389,-0.471325,0.261709,
2,1,0,1,0,66100.7,0.263481,0.263248,0.496195,34,0.0177168,10,0.000130623,-3.30435,-4.29656,-0.0137319,-0.265563,0.263248,
2,1,0,1,0,66100.8,0.26498,0.264652,0.495479,34,0.017793,10,0.00013113,-3.30497,-5.08708,-0.011598,-0.224101,0.264652,
2,1,0,1,0,66101,0.266477,0.266175,0.494889,34,0.017869,10,0.000131727,-3.30549,-2.20345,-0.0267762,-0.517288,0.266175,
2,1,0,1,0,66101.1,0.267976,0.267683,0.492445,34,0.0179448,10,0.000131819,-3.30764,-4.93707,-0.0119504,-0.230441,0.267683,
2,1,0,1,0,66101.3,0.269474,0.269152,0.492587,34,0.0180206,10,0.00013258,-3.30752,-326.038,-0.000180961,-0.00347699,0.269152,
2,1,0,1,0,66101.4,0.270972,0.270649,0.494934,34,0.0180963,10,0.000133953,-3.30545,-2.60042,-0.0226886,-0.436026,0.270649,
2,1,0,1,0,66101.6,0.27247,0.272114,0.493388,34,0.0181721,10,0.000134258,-3.30681,-1.85751,-0.0317629,-0.609253,0.272114,
2,1,0,1,0,66101.7,0.273968,0.273625,0.488906,34,0.0182475,10,0.000133777,-3.31077,-1.15053,-0.0512805,-0.98399,0.273625,
2,1,0,1,0,66101.9,0.275467,0.275171,0.489533,34,0.0183228,10,0.000134706,-3.31022,-1.95837,-0.0301271,-0.577239,0.275171,
2,1,0,1,0,66102,0.276965,0.276637,0.48956,34,0.018398,10,0.00013543,-3.31019,-2.65818,-0.0221956,-0.42488,0.276637,
2,1,0,1,0,66102.2,0.278463,0.278143,0.488497,34,0.0184732,10,0.000135872,-3.31114,-1.29811,-0.0454505,-0.866087,0.278143,
2,1,0,1,0,66102.3,0.279962,0.27966,0.488911,34,0.0185483,10,0.000136729,-3.31077,-2.82665,-0.0208727,-0.397994,0.27966,
2,1,0,1,0,66102.5,0.281459,0.28115,0.487236,34,0.0186231,10,0.000136986,-3.31226,-1.95294,-0.0302108,-0.575452,0.28115,
2,1,0,1,0,66102.6,0.282957,0.282638,0.48748,34,0.0186979,10,0.00013778,-3.31204,-2.1883,-0.0269615,-0.512298,0.282638,
2,1,0,1,0,66102.8,0.284456,0.284154,0.486397,34,0.0187727,10,0.000138212,-3.31301,-1.92173,-0.0307015,-0.582054,0.284154,
2,1,0,1,0,66102.9,0.285954,0.285648,0.485817,34,0.0188473,10,0.000138773,-3.31353,-1.60425,-0.0367774,-0.695956,0.285648,
2,1,0,1,0,66103.1,0.287452,0.28713,0.484675,34,0.0189216,10,0.000139164,-3.31455,-2.78462,-0.0211878,-0.400642,0.28713,
2,1,0,1,0,66103.2,0.28895,0.288604,0.482231,34,0.0189959,10,0.000139174,-3.31675,-4.67639,-0.0126166,-0.237996,0.288604,
2,1,0,1,0,66103.4,0.290449,0.290147,0.483049,34,0.0190701,10,0.000140155,-3.31601,-5.19874,-0.0113489,-0.214015,0.290147,
2,1,0,1,0,66103.5,0.291947,0.291645,0.481017,34,0.0191442,10,0.000140286,-3.31784,-1.11309,-0.0530055,-0.998084,0.291645,
2,1,0,1,0,66103.7,0.293445,0.293178,0.480099,34,0.0192182,10,0.000140754,-3.31867,-1.39969,-0.0421521,-0.792778,0.293178,
2,1,0,1,0,66103.8,0.294943,0.294614,0.480554,34,0.0192919,10,0.000141578,-3.31826,-2.98033,-0.0197964,-0.371232,0.294614,
2,1,0,1,0,66104,0.296442,0.29616,0.482163,34,0.0193658,10,0.000142797,-3.31681,-1.91666,-0.0307828,-0.576426,0.29616,
2,1,0,1,0,66104.1,0.297939,0.297605,0.478924,34,0.0194394,10,0.00014253,-3.31973,-1.07729,-0.0547671,-1.02123,0.297605,
2,1,0,1,0,66104.3,0.299437,0.299133,0.478962,34,0.0195129,10,0.000143273,-3.3197,-0.00343232,-17.1895,-183.368,0.299133,
2,1,0,1,0,66104.3,0.299738,0.299454,0.289803,34,0.0195495,10,8.67828e-05,-3.5379,0.0006435,91.6861,397.597,0.299454,
2,1,0,1,0,66104.5,0.29824,0.297953,0.03088,34,0.0195655,10,9.20078e-06,-4.51032,0.00334201,17.654,135.361,0.297953,
2,0,0,1,0,66104.6,0.296741,0.29646,-0.0238652,34,0.0195637,10,-7.07509e-06,-4.62223,0.0523899,1.12617,31.7621,0.29646,
2,0,0,1,0,66104.8,0.295243,0.294931,-0.0510232,34,0.0195561,10,-1.50483e-05,-4.29223,-0.00470968,-12.5274,15.7579,0.294931,
2,0,0,1,0,66104.9,0.293745,0.293422,-0.0698922,34,0.0195452,10,-2.05079e-05,-4.15557,-0.0128004,-4.60923,11.3757,0.293422,
2,0,0,1,0,66105.1,0.292246,0.291945,-0.0838554,34,0.019532,10,-2.44812e-05,-4.07647,-0.0199608,-2.9558,9.23189,0.291945,
2,0,0,1,0,66105.2,0.290748,0.29039,-0.097321,34,0.0195165,10,-2.82611e-05,-4.01179,-0.0262789,-2.24515,8.18843,0.2903904,
2,0,0,1,0,66105.4,0.28925,0.288942,-0.108072,34,0.0194993,10,-3.12265e-05,-3.96629,-0.0353641,-1.66836,6.9183,0.288942,
2,0,0,1,0,66105.5,0.287752,0.287422,-0.118242,34,0.0194805,10,-3.39855e-05,-3.92723,-0.0423948,-1.39168,6.31309,0.287422,
2,0,0,1,0,66105.7,0.286253,0.285937,-0.125909,34,0.0194604,10,-3.60021e-05,-3.89994,-0.0501991,-1.17532,5.78023,0.285937,
2,0,0,1,0,66105.8,0.284755,0.284437,-0.134599,34,0.019439,10,-3.82851e-05,-3.87096,-0.054733,-1.07796,5.63925,0.284437,
2,0,0,1,0,66106,0.283258,0.282972,-0.144097,34,0.0194163,10,-4.07753e-05,-3.84135,-0.0644047,-0.916082,5.09248,0.282972,
2,0,0,1,0,66106.1,0.281759,0.281419,-0.150085,34,0.0193925,10,-4.22369e-05,-3.82366,-0.0726618,-0.811981,4.71141,0.2814194,
2,0,0,1,0,66106.3,0.280261,0.279935,-0.154811,34,0.0193678,10,-4.33371e-05,-3.8102,-0.0843915,-0.699122,4.25572,0.279935,
2,0,0,1,0,66106.4,0.278763,0.278444,-0.162653,34,0.0193422,10,-4.52896e-05,-3.78874,-0.0924742,-0.638016,4.03458,0.278444,
2,0,0,1,0,66106.6,0.277264,0.276953,-0.168936,34,0.0193155,10,-4.67875e-05,-3.77228,-0.0896487,-0.658124,4.33524,0.276953,
2,0,0,1,0,66106.7,0.275766,0.275499,-0.174746,34,0.0192879,10,-4.81424e-05,-3.75759,-0.117268,-0.503122,3.40465,0.275499,
2,0,0,1,0,66106.9,0.274268,0.273962,-0.180783,34,0.0192594,10,-4.95275e-05,-3.74284,-0.113206,-0.521175,3.66644,0.273962,
2,0,0,1,0,66107,0.27277,0.272427,-0.185532,34,0.0192302,10,-5.0544e-05,-3.73158,-0.11164,-0.528486,3.8553,0.272427,
2,0,0,1,0,66107.2,0.271272,0.270946,-0.189837,34,0.0192001,10,-5.14356e-05,-3.72162,-0.111999,-0.52679,3.91692,0.270946,
2,0,0,1,0,66107.3,0.269773,0.269482,-0.196447,34,0.0191691,10,-5.29387e-05,-3.70676,-0.13105,-0.450209,3.43224,0.269482,
2,0,0,1,0,66107.5,0.268275,0.267994,-0.202216,34,0.0191375,10,-5.41925e-05,-3.69419,-0.14271,-0.413426,3.2414,0.267994,
2,0,0,1,0,66107.6,0.266778,0.266482,-0.204456,34,0.0191052,10,-5.44839e-05,-3.6894,-0.150844,-0.391134,3.13836,0.266482,
2,0,0,1,0,66107.8,0.265279,0.26497,-0.210635,34,0.0190721,10,-5.5812e-05,-3.67647,-0.141957,-0.415617,3.39816,0.26497,
2,0,0,1,0,66107.9,0.263781,0.263496,-0.214622,34,0.0190383,10,-5.65521e-05,-3.66833,-0.150031,-0.393252,3.29417,0.2634964,
2,0,0,1,0,66108.1,0.262283,0.261993,-0.219645,34,0.0190038,10,-5.75455e-05,-3.65828,-0.192651,-0.306253,2.62484,0.261993,
2,0,0,1,0,66108.2,0.260784,0.260457,-0.221892,34,0.0189687,10,-5.77934e-05,-3.65386,-0.185728,-0.317668,2.77905,0.260457,
2,0,0,1,0,66108.4,0.259286,0.258993,-0.227822,34,0.0189331,10,-5.90044e-05,-3.6424,-0.180923,-0.326106,2.90034,0.258993,
2,0,0,1,0,66108.5,0.257788,0.25742,-0.233597,34,0.0188967,10,-6.01325e-05,-3.63153,-0.186597,-0.316189,2.8545,0.25742,
2,0,0,1,0,66108.7,0.25629,0.255971,-0.236329,34,0.0188597,10,-6.04934e-05,-3.62648,-0.227758,-0.259047,2.37637,0.255971,
2,0,0,1,0,66108.8,0.254791,0.254458,-0.237534,34,0.0188221,10,-6.04425e-05,-3.62427,-0.258081,-0.228611,2.13746,0.254458,
2,0,0,1,0,66109,0.253293,0.252975,-0.244485,34,0.0187842,10,-6.18487e-05,-3.61175,-0.215786,-0.273418,2.60651,0.252975,
2,0,0,1,0,66109.1,0.251796,0.2515,-0.247032,34,0.0187455,10,-6.21287e-05,-3.60725,-0.222275,-0.265437,2.56051,0.2515,
2,0,0,1,0,66109.3,0.250297,0.249941,-0.251058,34,0.0187063,10,-6.27498e-05,-3.60023,-0.309418,-0.190681,1.86124,0.249941,
2,0,0,1,0,66109.4,0.248799,0.248467,-0.254751,34,0.0186666,10,-6.32972e-05,-3.59388,-0.246038,-0.239801,2.38357,0.248467,
2,0,0,1,0,66109.6,0.247301,0.246996,-0.25657,34,0.0186265,10,-6.3372e-05,-3.59079,-0.247305,-0.238572,2.39867,0.246996,
2,0,0,1,0,66109.7,0.245802,0.245507,-0.261241,34,0.0185857,10,-6.41363e-05,-3.58296,-0.253803,-0.232464,2.36493,0.245507,
2,0,0,1,0,66109.9,0.244304,0.244019,-0.266464,34,0.0185444,10,-6.50223e-05,-3.57436,-0.32291,-0.182713,1.88887,0.244019,
2,0,0,1,0,66110,0.242806,0.242508,-0.267842,34,0.0185026,10,-6.49539e-05,-3.57212,-0.375413,-0.15716,1.64355,0.242508,
2,0,0,1,0,66110.2,0.241308,0.24102,-0.269621,34,0.0184605,10,-6.49841e-05,-3.56925,-0.286144,-0.20619,2.18765,0.24102,
2,0,0,1,0,66110.3,0.23981,0.239488,-0.273187,34,0.0184178,10,-6.54249e-05,-3.56354,-0.226557,-0.26042,2.7841,0.239488,
2,0,0,1,0,66110.5,0.238311,0.238018,-0.277679,34,0.0183747,10,-6.60927e-05,-3.55646,-0.242803,-0.242996,2.62846,0.238018,
2,0,0,1,0,66110.6,0.236814,0.23649,-0.279713,34,0.018331,10,-6.61493e-05,-3.55329,-0.377718,-0.156201,1.70399,0.2364901,
2,0,0,1,0,66110.8,0.235316,0.235013,-0.281908,34,0.0182871,10,-6.62521e-05,-3.54989,-0.295121,-0.199918,2.20509,0.235013,
2,0,0,1,0,66110.9,0.233817,0.233523,-0.286582,34,0.0182426,10,-6.69234e-05,-3.54275,-0.278286,-0.212012,2.37109,0.233523,
2,0,0,1,0,66111.1,0.232319,0.231988,-0.289373,34,0.0181976,10,-6.71313e-05,-3.53854,-0.373351,-0.158028,1.78073,0.2319885,
2,0,0,1,0,66111.2,0.230821,0.230501,-0.290734,34,0.018152,10,-6.70143e-05,-3.5365,-0.476929,-0.123708,1.40743,0.230501,
2,0,0,1,0,66111.4,0.229322,0.229034,-0.293743,34,0.0181062,10,-6.72772e-05,-3.53203,-0.420279,-0.140383,1.61408,0.229034,
2,0,0,1,0,66111.5,0.227824,0.227503,-0.298852,34,0.01806,10,-6.79897e-05,-3.52454,-0.330619,-0.178453,2.07676,0.227503,
2,0,0,1,0,66111.7,0.226326,0.226039,-0.300062,34,0.0180132,10,-6.78256e-05,-3.52279,-0.360892,-0.163484,1.91744,0.226039,
2,0,0,1,0,66111.8,0.224828,0.224498,-0.30397,34,0.0179659,10,-6.82405e-05,-3.51717,-0.564151,-0.104582,1.23935,0.2244978,
2,0,0,1,0,66112,0.223329,0.223045,-0.307492,34,0.0179182,10,-6.85846e-05,-3.51217,-0.380759,-0.154953,1.85591,0.223045,
2,0,0,1,0,66112.1,0.221831,0.221485,-0.310225,34,0.0178702,10,-6.87101e-05,-3.50832,-0.336653,-0.175255,2.12093,0.221485,
2,0,0,1,0,66112.3,0.220334,0.220015,-0.312265,34,0.0178217,10,-6.8703e-05,-3.50548,-0.2638,-0.223655,2.72412,0.220015,
2,0,0,1,0,66112.4,0.218835,0.218497,-0.317824,34,0.0177725,10,-6.94436e-05,-3.49781,-0.293999,-0.200681,2.4779,0.218497,
2,0,0,1,0,66112.6,0.217337,0.217006,-0.317591,34,0.017723,10,-6.89192e-05,-3.49813,-0.436305,-0.135226,1.68015,0.217006,
2,0,0,1,0,66112.7,0.215839,0.215466,-0.320925,34,0.0176731,10,-6.91484e-05,-3.4936,-0.382054,-0.154429,1.93863,0.215466,
2,0,0,1,0,66112.9,0.21434,0.214029,-0.322791,34,0.0176229,10,-6.90869e-05,-3.49108,-0.335376,-0.175922,2.22177,0.214029,
2,0,0,1,0,66113,0.212842,0.212512,-0.328086,34,0.0175721,10,-6.97222e-05,-3.48401,-0.452077,-0.130509,1.67083,0.212512,
2,0,0,1,0,66113.2,0.211344,0.211006,-0.329611,34,0.0175209,10,-6.955e-05,-3.482,-0.37868,-0.155804,1.99913,0.211006,
2,0,0,1,0,66113.3,0.209846,0.209549,-0.3324,34,0.0174693,10,-6.96541e-05,-3.47834,-0.396214,-0.148909,1.93263,0.209549,
2,0,0,1,0,66113.5,0.208348,0.208046,-0.336304,34,0.0174172,10,-6.99666e-05,-3.47327,-0.281123,-0.209872,2.75444,0.2080456,
2,0,0,1,0,66113.6,0.206849,0.206536,-0.342284,34,0.0173646,10,-7.06941e-05,-3.46561,-0.392243,-0.150417,1.99315,0.206536,
2,0,0,1,0,66113.8,0.205352,0.205071,-0.34168,34,0.0173113,10,-7.00688e-05,-3.46638,-0.4984,-0.118379,1.57125,0.205071,
2,0,0,1,0,66113.9,0.203854,0.203527,-0.343639,34,0.0172578,10,-6.99398e-05,-3.4639,-0.465573,-0.126726,1.71354,0.2035272,
2,0,0,1,0,66114.1,0.202355,0.202012,-0.347614,34,0.017204,10,-7.02222e-05,-3.4589,-0.4655,-0.126745,1.72289,0.2020119,
2,0,0,1,0,66114.2,0.200857,0.200535,-0.351419,34,0.0171496,10,-7.04717e-05,-3.45418,-0.338632,-0.174231,2.38563,0.200535,
2,0,0,1,0,66114.4,0.199359,0.199037,-0.354036,34,0.0170948,10,-7.04665e-05,-3.45095,-0.689997,-0.0855076,1.17927,0.199037,
2,0,0,1,0,66114.5,0.19786,0.197526,-0.357161,34,0.0170395,10,-7.05487e-05,-3.44714,-0.425396,-0.138694,1.93235,0.197526,
2,0,0,1,0,66114.7,0.196362,0.196052,-0.360582,34,0.016984,10,-7.0693e-05,-3.443,-0.377449,-0.156312,2.19989,0.1960524,
2,0,0,1,0,66114.8,0.194864,0.19454,-0.36373,34,0.0169278,10,-7.07602e-05,-3.43922,-0.354353,-0.166501,2.35778,0.19454,
2,0,0,1,0,66115,0.193366,0.19301,-0.368224,34,0.0168709,10,-7.10709e-05,-3.43389,-0.357475,-0.165047,2.36304,0.19301,
2,0,0,1,0,66115.1,0.191867,0.19153,-0.370067,34,0.0168138,10,-7.08788e-05,-3.43172,-0.537977,-0.10967,1.58703,0.1915298,
2,0,0,1,0,66115.3,0.190369,0.190046,-0.372827,34,0.0167562,10,-7.08544e-05,-3.42849,-0.323272,-0.182509,2.65845,0.190046,
2,0,0,1,0,66115.4,0.188872,0.188557,-0.374759,34,0.0166982,10,-7.06635e-05,-3.42625,-0.265486,-0.222234,3.25972,0.188557,
2,0,0,1,0,66115.6,0.187373,0.187085,-0.379604,34,0.0166396,10,-7.10181e-05,-3.42067,-0.394598,-0.149519,2.21717,0.187085,
2,0,0,1,0,66115.7,0.185875,0.185552,-0.383053,34,0.0165804,10,-7.10763e-05,-3.41674,-0.451319,-0.130728,1.95123,0.185552,
2,0,0,1,0,66115.9,0.184377,0.18407,-0.385184,34,0.0165208,10,-7.09008e-05,-3.41433,-0.484784,-0.121704,1.83597,0.18407,
2,0,0,1,0,66116,0.182879,0.182528,-0.39014,34,0.0164608,10,-7.12115e-05,-3.40878,-0.328682,-0.179505,2.73657,0.182528,
2,0,0,1,0,66116.2,0.18138,0.181032,-0.394907,34,0.0164001,10,-7.14908e-05,-3.4035,-0.41401,-0.142509,2.19117,0.181032,
2,0,0,1,0,66116.3,0.179882,0.179569,-0.397614,34,0.0163388,10,-7.13992e-05,-3.40054,-0.464571,-0.126999,1.96722,0.179569,
2,0,0,1,0,66116.5,0.178384,0.178081,-0.402272,34,0.0162769,10,-7.16368e-05,-3.39548,-0.446657,-0.132093,2.07207,0.178081,
2,0,0,1,0,66116.6,0.176886,0.176562,-0.405676,34,0.0162147,10,-7.1627e-05,-3.39182,-0.363944,-0.162113,2.56445,0.176562,
2,0,0,1,0,66116.8,0.175387,0.175068,-0.410018,34,0.0161517,10,-7.17811e-05,-3.3872,-0.290075,-0.203395,3.25022,0.175068,
2,0,0,1,0,66116.9,0.17389,0.173531,-0.414782,34,0.016088,10,-7.19777e-05,-3.38218,-0.318174,-0.185433,2.99941,0.173531,
2,0,0,1,0,66117.1,0.172392,0.172067,-0.418443,34,0.0160237,10,-7.20001e-05,-3.37836,-0.30303,-0.1947,3.17874,0.172067,
2,0,0,1,0,66117.2,0.170893,0.17056,-0.423049,34,0.0159587,10,-7.21553e-05,-3.37361,-0.310555,-0.189982,3.13231,0.17056,
2,0,0,1,0,66117.4,0.169395,0.169061,-0.428485,34,0.015893,10,-7.244e-05,-3.36806,-0.244023,-0.241781,4.02898,0.169061,
2,0,0,1,0,66117.5,0.167897,0.167592,-0.433402,34,0.0158265,10,-7.26348e-05,-3.36311,-0.267299,-0.220727,3.73204,0.167592,
2,0,0,1,0,66117.7,0.166398,0.166078,-0.43895,34,0.0157591,10,-7.28998e-05,-3.35759,-0.305326,-0.193236,3.31504,0.1660779,
2,0,0,1,0,66117.8,0.1649,0.164567,-0.442092,34,0.015691,10,-7.27536e-05,-3.35449,-0.269185,-0.21918,3.80225,0.164567,
2,0,0,1,0,66118,0.163402,0.163037,-0.45056,34,0.015622,10,-7.34578e-05,-3.34625,-0.238308,-0.247579,4.35317,0.163037,
2,0,0,1,0,66118.1,0.161904,0.161591,-0.458092,34,0.015552,10,-7.40238e-05,-3.33905,-0.214237,-0.275396,4.90927,0.161591,
2,0,0,1,0,66118.3,0.160405,0.160116,-0.465295,34,0.0154809,10,-7.45014e-05,-3.33227,-0.229345,-0.257254,4.6555,0.160116,
2,0,0,1,0,66118.4,0.158907,0.158613,-0.470489,34,0.0154087,10,-7.46259e-05,-3.32745,-0.192846,-0.305944,5.64078,0.158613,
2,0,0,1,0,66118.6,0.15741,0.157084,-0.480584,34,0.0153354,10,-7.54919e-05,-3.31823,-0.180938,-0.326079,6.14239,0.157084,
2,0,0,1,0,66118.7,0.155911,0.155548,-0.489093,34,0.0152606,10,-7.60775e-05,-3.31061,-0.167683,-0.351854,6.73203,0.155548,
2,0,0,1,0,66118.9,0.154413,0.154042,-0.500197,34,0.0151843,10,-7.70515e-05,-3.30086,-0.176498,-0.334281,6.52199,0.154042,
2,0,0,1,0,66119,0.152915,0.152634,-0.50987,34,0.0151065,10,-7.78235e-05,-3.29254,-0.166504,-0.354346,7.07318,0.152634,
2,0,0,1,0,66119.2,0.151417,0.151095,-0.522397,34,0.0150273,10,-7.89317e-05,-3.282,-0.151899,-0.388416,7.94623,0.151095,
2,0,0,1,0,66119.3,0.149918,0.149565,-0.534781,34,0.0149461,10,-7.99847e-05,-3.27182,-0.12882,-0.458002,9.55804,0.149565,
2,0,0,1,0,66119.5,0.14842,0.148135,-0.55017,34,0.0148627,10,-8.14993e-05,-3.2595,-0.123302,-0.478499,10.2957,0.148135,
2,0,0,1,0,66119.6,0.146922,0.146591,-0.5662,34,0.0147769,10,-8.29998e-05,-3.24703,-0.110667,-0.533129,11.8066,0.146591,
2,0,0,1,0,66119.8,0.145424,0.145138,-0.58484,34,0.0146887,10,-8.48825e-05,-3.23296,-0.102948,-0.573103,13.1369,0.145138,
2,0,0,1,0,66119.9,0.143925,0.143624,-0.603769,34,0.0145975,10,-8.6716e-05,-3.21913,-0.0936688,-0.629879,14.8507,0.143624,
2,0,0,1,0,66120.1,0.142428,0.142094,-0.629135,34,0.014503,10,-8.9396e-05,-3.20126,-0.0923041,-0.639192,15.7085,0.142094,
2,0,0,1,0,66120.2,0.14093,0.140581,-0.650387,34,0.014405,10,-9.14323e-05,-3.18683,-0.0979112,-0.602587,15.3518,0.140581,
2,0,0,1,0,66120.4,0.139431,0.139113,-0.674249,34,0.0143034,10,-9.37967e-05,-3.17118,-0.0899961,-0.655584,17.3551,0.139113,
2,0,0,1,0,66120.5,0.137933,0.137634,-0.703545,34,0.014198,10,-9.68314e-05,-3.15271,-0.0861971,-0.684478,18.8283,0.137634,
2,0,0,1,0,66120.7,0.136435,0.136142,-0.733329,34,0.0140882,10,-9.98366e-05,-3.1347,-0.0855996,-0.689255,19.7085,0.136142,
2,0,0,1,0,66120.8,0.134936,0.134618,-0.76352,34,0.0139739,10,-0.000102783,-3.11718,-0.091978,-0.641458,19.0941,0.134618,
2,0,0,1,0,66121,0.133438,0.133123,-0.791685,34,0.0138553,10,-0.000105391,-3.10145,-0.0926217,-0.636999,19.7225,0.133123,
2,0,0,1,0,66121.1,0.13194,0.131657,-0.823852,34,0.0137321,10,-0.000108466,-3.08415,-0.0933842,-0.631798,20.3097,0.131657,
2,0,0,1,0,66121.3,0.130442,0.130138,-0.853881,34,0.0136043,10,-0.000111122,-3.0686,-0.0968718,-0.609052,20.2667,0.130138,
2,0,0,1,0,66121.4,0.128943,0.128632,-0.886228,34,0.0134717,10,-0.000113997,-3.05245,-0.105962,-0.556806,19.1877,0.128632,
2,0,0,1,0,66121.6,0.127445,0.127105,-0.913331,34,0.013335,10,-0.000116089,-3.03937,-0.114154,-0.516845,18.3831,0.127105,
2,0,0,1,0,66121.7,0.125948,0.125662,-0.940511,34,0.0131942,10,-0.000118186,-3.02664,-0.118302,-0.498722,18.2757,0.125662,
2,0,0,1,0,66121.9,0.124449,0.124119,-0.966759,34,0.0130491,10,-0.000119993,-3.01468,-0.122817,-0.48039,18.0772,0.124119,
2,0,0,1,0,66122,0.122951,0.122631,-0.992875,34,0.0129001,10,-0.000121757,-3.00311,-0.141589,-0.416699,16.0978,0.122631,
2,0,0,1,0,66122.2,0.121453,0.121143,-1.01306,34,0.0127476,10,-0.000122725,-2.99436,-0.165628,-0.356219,14.0647,0.121143,
2,0,0,1,0,66122.3,0.119955,0.119648,-1.03228,34,0.0125921,10,-0.00012351,-2.9862,-0.192419,-0.306622,12.3616,0.119648,
2,0,0,1,0,66122.5,0.118456,0.118127,-1.05182,34,0.0124337,10,-0.000124249,-2.97806,-0.209817,-0.281197,11.5096,0.118127,
2,0,0,1,0,66122.6,0.116958,0.11665,-1.07065,34,0.0122724,10,-0.000124891,-2.97035,-0.263576,-0.223844,9.31183,0.11665,
2,0,0,1,0,66122.8,0.11546,0.115108,-1.08163,34,0.012109,10,-0.000124504,-2.96592,-0.350343,-0.168407,7.08863,0.115108,
2,0,0,1,0,66122.9,0.113962,0.113676,-1.08773,34,0.0119441,10,-0.000123649,-2.96348,-0.513559,-0.114884,4.88164,0.1136758,
2,0,0,1,0,66123.1,0.112463,0.112134,-1.09786,34,0.0117781,10,-0.000123107,-2.95945,-0.612459,-0.096333,4.11881,0.1121345,
2,0,0,1,0,66123.2,0.110966,0.110643,-1.10334,34,0.0116112,10,-0.000122077,-2.95729,-0.867711,-0.067995,2.92153,0.110643,
2,0,0,1,0,66123.4,0.109468,0.109136,-1.10505,34,0.0114436,10,-0.000120601,-2.95662,-5.05861,-0.0116633,0.501674,0.109136,
2,0,0,1,0,66123.5,0.107969,0.107654,-1.10511,34,0.0112756,10,-0.000118969,-2.95659,5.57992,0.0105736,-0.45615,0.107654,
2,0,0,1,0,66123.7,0.106471,0.10613,-1.10301,34,0.011108,10,-0.000117063,-2.95742,2.88153,0.0204752,-0.882981,0.10613,
2,0,0,1,0,66123.8,0.104973,0.104639,-1.1033,34,0.0109405,10,-0.000115448,-2.95731,1.64849,0.0357903,-1.5401,0.104639,
2,0,0,1,0,66124,0.103474,0.103177,-1.10197,34,0.0107731,10,-0.000113698,-2.95783,1.14247,0.0516424,-2.21577,0.103177,
2,0,0,1,0,66124.1,0.101976,0.101632,-1.09791,34,0.0106063,10,-0.000111582,-2.95944,0.855291,0.0689824,-2.95115,0.101632,
2,0,0,1,0,66124.3,0.100478,0.100178,-1.09231,34,0.0104403,10,-0.000109425,-2.96165,0.879306,0.0670984,-2.85935,0.100178,
2,0,0,1,0,66124.4,0.0989798,0.0986753,-1.09066,34,0.0102749,10,-0.000107621,-2.96231,0.999874,0.0590074,-2.50473,0.0986753,
2,0,0,1,0,66124.6,0.0974808,0.0971539,-1.08449,34,0.0101099,10,-0.000105362,-2.96478,1.1536,0.0511442,-2.16281,0.0971539,
2,0,0,1,0,66124.7,0.0959833,0.0956604,-1.08069,34,0.00994573,10,-0.000103379,-2.9663,0.830421,0.0710483,-2.99555,0.0956604,
2,0,0,1,0,66124.9,0.0944857,0.0941794,-1.0725,34,0.00978233,10,-0.000101007,-2.9696,0.918101,0.0642631,-2.69581,0.0941794,
2,0,0,1,0,66125,0.0929871,0.0926935,-1.06876,34,0.00961957,10,-9.90668e-05,-2.97112,1.1219,0.0525894,-2.19531,0.09269353,
2,0,0,1,0,66125.2,0.0914889,0.0911856,-1.06677,34,0.00945734,10,-9.72738e-05,-2.97193,0.911037,0.0647613,-2.69153,0.0911856,
2,0,0,1,0,66125.3,0.0899907,0.0896565,-1.06145,34,0.00929574,10,-9.51663e-05,-2.9741,0.731463,0.0806602,-3.33557,0.0896565,
2,0,0,1,0,66125.5,0.0884925,0.0881561,-1.05375,34,0.00913501,10,-9.28945e-05,-2.97726,0.773426,0.076284,-3.14356,0.0881561,
2,0,0,1,0,66125.6,0.0869943,0.08668,-1.0517,34,0.00897521,10,-9.1161e-05,-2.97811,0.714917,0.0825271,-3.38798,0.08668,
2,0,0,1,0,66125.8,0.0854961,0.0851445,-1.04581,34,0.0088159,10,-8.90452e-05,-2.98055,0.702349,0.0840038,-3.42917,0.0851445,
2,0,0,1,0,66125.9,0.083998,0.0836599,-1.0431,34,0.00865723,10,-8.72657e-05,-2.98167,0.575944,0.102441,-4.16386,0.0836599,
2,0,0,1,0,66126.1,0.0824998,0.0821998,-1.03735,34,0.0084993,10,-8.52701e-05,-2.98407,0.681922,0.0865201,-3.50291,0.0821998,
2,0,0,1,0,66126.2,0.0810011,0.0806581,-1.03233,34,0.00834234,10,-8.32655e-05,-2.98618,0.772751,0.0763506,-3.07999,0.0806581,
2,0,0,1,0,66126.4,0.0795036,0.0791789,-1.02748,34,0.0081861,10,-8.13548e-05,-2.98823,0.873263,0.0675627,-2.70553,0.0791789,
2,0,0,1,0,66126.5,0.0780061,0.0776751,-1.02389,34,0.00803045,10,-7.95307e-05,-2.98975,0.841938,0.0700764,-2.7935,0.0776751,
2,0,0,1,0,66126.7,0.076507,0.0762084,-1.01663,34,0.00787548,10,-7.74759e-05,-2.99284,0.633094,0.0931931,-3.69879,0.0762084,
2,0,0,1,0,66126.8,0.0750088,0.0746698,-1.01005,34,0.00772171,10,-7.542e-05,-2.99566,0.592887,0.0995131,-3.9284,0.0746698,
2,0,0,1,0,66127,0.0735106,0.0731969,-1.00486,34,0.00756868,10,-7.35524e-05,-2.9979,0.821,0.0718635,-2.81609,0.0731969,
2,0,0,1,0,66127.1,0.0720124,0.071672,-0.999344,34,0.00741638,10,-7.1625e-05,-3.00029,0.693122,0.0851221,-3.32386,0.07167203,
2,0,0,1,0,66127.3,0.0705142,0.0702002,-0.995154,34,0.00726485,10,-6.986e-05,-3.00211,0.551528,0.106976,-4.15233,0.0702002,
2,0,0,1,0,66127.4,0.069016,0.06874,-0.986541,34,0.00711425,10,-6.78148e-05,-3.00588,0.58908,0.100156,-3.86858,0.06874001,
2,0,0,1,0,66127.6,0.0675179,0.0671801,-0.984141,34,0.00696453,10,-6.61147e-05,-3.00694,0.682744,0.086416,-3.31976,0.0671801,
2,0,0,1,0,66127.7,0.0660188,0.0656829,-0.980444,34,0.00681541,10,-6.43984e-05,-3.00858,0.613174,0.0962206,-3.66979,0.0656829,
2,0,0,1,0,66127.9,0.0645213,0.0641991,-0.974351,34,0.00666707,10,-6.25524e-05,-3.01128,0.498431,0.118372,-4.48403,0.0641991,
2,0,0,1,0,66128,0.0630237,0.0626907,-0.965925,34,0.00651973,10,-6.05545e-05,-3.01506,0.589051,0.100161,-3.78059,0.06269072,
2,0,0,1,0,66128.2,0.0615251,0.0612164,-0.960823,34,0.00637335,10,-5.88181e-05,-3.01736,0.663486,0.0889242,-3.33653,0.0612164,
2,0,0,1,0,66128.3,0.0600269,0.0597011,-0.953862,34,0.00622779,10,-5.69466e-05,-3.02051,0.604869,0.0975418,-3.63546,0.0597011,
2,0,0,1,0,66128.5,0.0585287,0.0581805,-0.950478,34,0.00608294,10,-5.52993e-05,-3.02206,0.45613,0.129349,-4.78698,0.0581805,
2,0,0,1,0,66128.6,0.0570305,0.0567309,-0.943023,34,0.00593906,10,-5.34985e-05,-3.02548,0.509061,0.1159,-4.26587,0.0567309,
2,0,0,1,0,66128.8,0.0555323,0.055206,-0.938323,34,0.00579621,10,-5.18011e-05,-3.02765,0.565744,0.104287,-3.81919,0.055206,
2,0,0,1,0,66128.9,0.0540342,0.0537416,-0.931038,34,0.00565414,10,-5.00355e-05,-3.03103,0.560812,0.105205,-3.82181,0.0537416,
2,0,0,1,0,66129.1,0.052536,0.0521849,-0.927575,34,0.00551275,10,-4.84055e-05,-3.03265,0.546455,0.107969,-3.90453,0.0521849,
2,0,0,1,0,66129.2,0.0510378,0.0507332,-0.920971,34,0.00537238,10,-4.67238e-05,-3.03575,0.435743,0.135401,-4.86402,0.0507332,
2,0,0,1,0,66129.4,0.0495391,0.0492115,-0.912758,34,0.005233,10,-4.49182e-05,-3.03964,0.504602,0.116924,-4.17341,0.0492115,
2,0,0,1,0,66129.5,0.0480416,0.0477156,-0.906776,34,0.00509467,10,-4.32673e-05,-3.0425,0.639339,0.0922828,-3.26429,0.0477156,
2,0,0,1,0,66129.7,0.0465441,0.0462559,-0.901977,34,0.00495712,10,-4.17217e-05,-3.0448,0.53472,0.110338,-3.88375,0.0462559,
2,0,0,1,0,66129.8,0.045045,0.0447176,-0.894914,34,0.00482043,10,-4.00184e-05,-3.04822,0.429374,0.137409,-4.79516,0.0447176,
2,0,0,1,0,66130,0.0435468,0.0432807,-0.886242,34,0.00468481,10,-3.83572e-05,-3.05245,0.43804,0.134691,-4.67117,0.04328071,
2,0,0,1,0,66130.1,0.0420486,0.0417198,-0.881266,34,0.0045503,10,-3.67662e-05,-3.05489,0.462923,0.127451,-4.38725,0.0417198,
2,0,0,1,0,66130.3,0.0405504,0.0402045,-0.877367,34,0.00441656,10,-3.52741e-05,-3.05682,0.473148,0.124697,-4.2607,0.0402045,
2,0,0,1,0,66130.4,0.0390523,0.0387454,-0.868595,34,0.00428369,10,-3.3654e-05,-3.06118,0.39432,0.149625,-5.07045,0.0387454,
2,0,0,1,0,66130.6,0.0375541,0.037212,-0.860995,34,0.00415191,10,-3.20394e-05,-3.065,0.414976,0.142177,-4.79299,0.03721201,
2,0,0,1,0,66130.7,0.0360559,0.0357243,-0.855071,34,0.00402128,10,-3.05468e-05,-3.068,0.450022,0.131105,-4.38525,0.0357243,
2,0,0,1,0,66130.9,0.0345568,0.0342217,-0.849867,34,0.00389142,10,-2.90839e-05,-3.07065,0.486229,0.121342,-4.02393,0.0342217,
2,0,0,1,0,66131,0.0330593,0.0327326,-0.84345,34,0.00376241,10,-2.76083e-05,-3.07394,0.430379,0.137088,-4.5061,0.0327326,
2,0,0,1,0,66131.2,0.0315618,0.0312348,-0.837466,34,0.00363445,10,-2.61581e-05,-3.07703,0.435392,0.13551,-4.42894,0.0312348,
2,0,0,1,0,66131.3,0.0300631,0.0297118,-0.830242,34,0.00350758,10,-2.46679e-05,-3.0808,0.465997,0.12661,-4.10251,0.0297118,
2,0,0,1,0,66131.5,0.0285649,0.0282463,-0.824606,34,0.00338157,10,-2.3292e-05,-3.08375,0.488812,0.120701,-3.8767,0.0282463,
2,0,0,1,0,66131.6,0.0270667,0.0267426,-0.819267,34,0.00325633,10,-2.19093e-05,-3.08657,0.507332,0.116295,-3.71531,0.0267426,
2,0,0,1,0,66131.8,0.0255685,0.0252665,-0.812371,34,0.00313201,10,-2.05258e-05,-3.09025,0.428233,0.137776,-4.37257,0.0252665,
2,0,0,1,0,66131.9,0.0240704,0.0237714,-0.806426,34,0.00300872,10,-1.91698e-05,-3.09344,0.492317,0.119842,-3.77883,0.0237714,
2,0,0,1,0,66132.1,0.0225722,0.0222327,-0.80286,34,0.00288618,10,-1.78497e-05,-3.09536,0.663747,0.0888893,-2.78131,0.0222327,
2,0,0,1,0,66132.2,0.021074,0.0207407,-0.797589,34,0.00276429,10,-1.65426e-05,-3.09822,0.621095,0.0949935,-2.95868,0.0207407,
2,0,0,1,0,66132.4,0.0195758,0.0192699,-0.792722,34,0.00264313,10,-1.52757e-05,-3.10088,0.509945,0.115699,-3.5743,0.0192699,
2,0,0,1,0,66132.5,0.0180771,0.0177231,-0.785515,34,0.00252263,10,-1.39218e-05,-3.10485,0.642292,0.0918585,-2.827,0.0177231,
2,0,0,1,0,66132.7,0.0165796,0.0162767,-0.784313,34,0.00240304,10,-1.2766e-05,-3.10551,0.905997,0.0651217,-1.99431,0.0162767,
2,0,0,1,0,66132.8,0.0150821,0.0147462,-0.78267,34,0.00228374,10,-1.15414e-05,-3.10642,1.05009,0.0561856,-1.71139,0.0147462,
2,0,0,1,0,66133,0.013583,0.0132945,-0.778355,34,0.00216467,10,-1.03479e-05,-3.10882,0.697811,0.0845501,-2.56195,0.0132945,
2,0,0,1,0,66133.1,0.0120848,0.0117516,-0.774295,34,0.00204624,10,-9.09924e-06,-3.11109,0.782398,0.0754092,-2.28317,0.0117516,
2,0,0,1,0,66133.3,0.0105866,0.010248,-0.772345,34,0.00192847,10,-7.91499e-06,-3.11219,1.39894,0.0421748,-1.2724,0.01024799,
2,0,0,1,0,66133.4,0.00908845,0.00875388,-0.77148,34,0.00181084,10,-6.75344e-06,-3.11268,2.45094,0.0240724,-0.723701,0.00875388,
2,0,0,1,0,66133.6,0.00759027,0.00724386,-0.76961,34,0.00169339,10,-5.57494e-06,-3.11373,1.97035,0.029944,-0.898963,0.00724386,
2,0,0,1,0,66133.7,0.00609208,0.00579958,-0.770081,34,0.00157609,10,-4.46615e-06,-3.11346,4.63806,0.0127208,-0.381778,0.00579958,
2,0,0,1,0,66133.9,0.00459389,0.00424821,-0.767761,34,0.00145909,10,-3.26161e-06,-3.11477,2.96707,0.0198849,-0.595723,0.00424821,
2,0,0,1,0,66134,0.0030948,0.00276891,-0.768131,34,0.00134193,10,-2.12689e-06,-3.11456,-0.983834,-0.0599695,1.80081,0.00276891,
2,0,0,1,0,66134.2,0.00159728,0.00119284,-0.77825,34,0.00122365,10,-9.28329e-07,-3.10888, , , ,0.00119284,
2,0,0,1,0,66134.3,0.000199195,-0.000243248,-0.77275,34,0.00111345,10,1.8797e-07,-3.11196, , , ,-0.000243248,