File: Figure_codes/Fig_S2/20220924_003_MultiCV_0_850mV_1-84_C_02_CV_C01_0.csv
mode,ox/red,error,control changes,counter inc.,time/s,control/V,Ewe/V,<I>/mA,cycle number,(Q-Qo)/C,I Range,P/W,log(|I|),Tafel slope mV/dec,alpha_eff,E-IR/V,
2,0,0,1,0,30.0202,2.17368e-05,-0.000199204,-0.164905,1,0.0000000E+000,10,3.28498e-08,-3.78277, , ,9.59762e-05,
2,1,0,1,0,30.7705,0.00377281,0.00350374,0.273262,1,0.00012651,10,9.57437e-07,-3.56342,0.0165686,3.56096,0.0030146,
2,1,0,0,0,31.5308,0.00757389,0.00740709,0.320095,1,0.000370438,10,2.37097e-06,-3.49472,0.163476,0.360909,0.00683412,
2,1,0,1,0,32.291,0.011375,0.01111,0.334036,1,0.000626932,10,3.71115e-06,-3.47621,0.145709,0.404917,0.0105121,
2,1,0,0,0,33.0512,0.015176,0.0149848,0.347224,1,0.000894605,10,5.20306e-06,-3.45939,0.266523,0.221369,0.0143632,
2,1,0,1,0,33.8114,0.0189771,0.0188118,0.35862,1,0.00117114,10,6.74628e-06,-3.44537,0.287471,0.205238,0.0181698,
2,1,0,0,0,34.5716,0.0227782,0.0224861,0.364799,1,0.00145409,10,8.20289e-06,-3.43795,-0.543934,-0.108469,0.0218331,
2,1,0,1,0,35.3318,0.0265793,0.0263799,0.372431,1,0.00174115,10,9.82469e-06,-3.42895,0.405077,0.145651,0.0257132,
2,1,0,0,0,36.092,0.0303804,0.0301496,0.37872,1,0.00203451,10,1.14183e-05,-3.42168,0.593239,0.0994539,0.0294717,
2,1,0,1,0,36.8522,0.0341815,0.0340434,0.38142,1,0.00233215,10,1.29848e-05,-3.4186,0.741523,0.079566,0.0333607,
2,1,0,0,0,37.6124,0.0379825,0.0378227,0.388429,1,0.00263242,10,1.46915e-05,-3.41069,0.435095,0.135603,0.0371274,
2,1,0,1,0,38.3726,0.0417836,0.0415352,0.391811,1,0.00293724,10,1.62739e-05,-3.40692,0.993229,0.0594022,0.0408339,
2,1,0,0,0,39.1328,0.0455847,0.0453718,0.394361,1,0.0032454,10,1.78929e-05,-3.40411,0.945108,0.0624267,0.0446659,
2,1,0,1,0,39.8931,0.0493858,0.0491892,0.396602,1,0.00355651,10,1.95086e-05,-3.40164,-3.02872,-0.0194802,0.0484793,
2,1,0,1,0,40.6534,0.0531869,0.0529972,0.403597,1,0.00387068,10,2.13895e-05,-3.39405,0.792051,0.0744902,0.0522747,
2,1,0,0,0,41.4136,0.056988,0.0567955,0.410132,1,0.00418946,10,2.32937e-05,-3.38708,0.725555,0.081317,0.0560614,
2,1,0,1,0,42.1738,0.060789,0.0605462,0.412878,1,0.00451205,10,2.49982e-05,-3.38418,0.591449,0.099755,0.0598071,
2,1,0,0,0,42.934,0.0645901,0.0643159,0.41794,1,0.00483748,10,2.68802e-05,-3.37889,0.497935,0.118489,0.0635678,
2,1,0,1,0,43.6942,0.0683912,0.0681716,0.426325,1,0.00516869,10,2.90633e-05,-3.37026,0.347715,0.169679,0.0674084,
2,1,0,0,0,44.4544,0.0721923,0.0720272,0.432393,1,0.00550567,10,3.11441e-05,-3.36412,0.550572,0.107161,0.0712532,
2,1,0,1,0,45.2146,0.0759934,0.075797,0.441097,1,0.00584776,10,3.34338e-05,-3.35547,0.206226,0.286094,0.0750074,
2,1,0,0,0,45.9748,0.0797945,0.079519,0.453519,1,0.00619783,10,3.60634e-05,-3.3434,0.326129,0.18091,0.0787072,
2,1,0,1,0,46.735,0.0835955,0.0834796,0.465623,1,0.00655778,10,3.887e-05,-3.33197,0.427228,0.138099,0.0826461,
2,1,0,0,0,47.4952,0.0873966,0.0871825,0.479181,1,0.00692737,10,4.17762e-05,-3.3195,0.726579,0.0812025,0.0863248,
2,1,0,1,0,48.2554,0.0911977,0.0909332,0.499722,1,0.00730835,10,4.54413e-05,-3.30127,0.19784,0.298221,0.0900387,
2,1,0,1,0,49.0157,0.0949988,0.0948175,0.521682,1,0.00770517,10,4.94645e-05,-3.28259,0.158926,0.371242,0.0938837,
2,1,0,0,0,49.776,0.0987999,0.0986445,0.548515,1,0.00811963,10,5.41079e-05,-3.26081,0.17355,0.33996,0.0976626,
2,1,0,1,0,50.5362,0.102601,0.1025,0.576571,1,0.00855382,10,5.90986e-05,-3.23915,0.1441,0.409439,0.101468,
2,1,0,0,0,51.2964,0.106402,0.106146,0.615201,1,0.00901449,10,6.53009e-05,-3.21098,0.126436,0.46664,0.105045,
2,1,0,1,0,52.0566,0.110203,0.109944,0.662319,1,0.0095086,10,7.28181e-05,-3.17893,0.109039,0.541089,0.108759,
2,1,0,0,0,52.8168,0.114004,0.113809,0.713156,1,0.0100394,10,8.11638e-05,-3.14682,0.0836564,0.705266,0.112533,
2,1,0,1,0,53.577,0.117805,0.117589,0.784723,1,0.0106164,10,9.22745e-05,-3.10528,0.0939136,0.628237,0.116184,
2,1,0,0,0,54.3372,0.121606,0.121282,0.865609,1,0.0112507,10,0.000104983,-3.06268,0.0769997,0.766237,0.119733,
2,1,0,1,0,55.0974,0.125407,0.125262,0.963532,1,0.0119532,10,0.000120694,-3.01613,0.0831531,0.709534,0.123537,
2,1,0,0,0,55.8576,0.129209,0.129003,1.07951,1,0.0127351,10,0.00013926,-2.96677,0.0695557,0.848241,0.127071,
2,1,0,1,0,56.6178,0.13301,0.13282,1.21669,1,0.0136143,10,0.000161601,-2.91482,0.0663557,0.889148,0.130642,
2,1,0,0,0,57.378,0.136811,0.1366,1.36606,1,0.014604,10,0.000186603,-2.86453,0.0642681,0.91803,0.134154,
2,1,0,1,0,58.1383,0.140612,0.140446,1.52416,1,0.0157107,10,0.000214061,-2.81697,0.0750327,0.786324,0.137717,
2,1,0,1,0,58.8986,0.144413,0.144235,1.68321,1,0.016939,10,0.000242777,-2.77386,0.0852001,0.692488,0.141222,
2,1,0,0,0,59.6588,0.148214,0.148081,1.83103,1,0.0182861,10,0.00027114,-2.73731,0.107621,0.548221,0.144803,
2,1,0,1,0,60.419,0.152015,0.151841,1.94921,1,0.0197362,10,0.000295969,-2.71014,0.168923,0.349272,0.148352,
2,1,0,0,0,61.1792,0.155816,0.155515,2.03878,1,0.0212651,10,0.000317062,-2.69063,0.242052,0.24375,0.151866,
2,1,0,1,0,61.9394,0.159617,0.159428,2.08459,1,0.0228453,10,0.000332342,-2.68098,0.808884,0.07294,0.155697,
2,1,0,0,0,62.6996,0.163418,0.163274,2.08023,1,0.0244421,10,0.000339647,-2.68189,-0.433839,-0.135995,0.159551,
2,1,0,1,0,63.4598,0.167219,0.166968,2.01878,1,0.0260121,10,0.000337071,-2.69491,-0.202154,-0.291856,0.163354,
2,1,0,0,0,64.22,0.17102,0.170804,1.90252,1,0.0275161,10,0.000324957,-2.72067,-0.114338,-0.516015,0.167399,
2,1,0,1,0,64.9802,0.174822,0.174612,1.72487,1,0.028908,10,0.000301183,-2.76324,-0.0815145,-0.723798,0.171524,
2,1,0,0,0,65.7404,0.178623,0.178468,1.51857,1,0.030151,10,0.000271015,-2.81857,-0.0732466,-0.805498,0.175749,
2,1,0,1,0,66.5006,0.182424,0.182237,1.31974,1,0.0312382,10,0.000240505,-2.87951,-0.0706156,-0.83551,0.179875,
2,1,0,0,0,67.2608,0.186225,0.186036,1.15139,1,0.0321858,10,0.000214201,-2.93878,-0.0713173,-0.827289,0.183975,
2,1,0,0,0,68.0212,0.190026,0.189806,1.01496,1,0.0330178,10,0.000192645,-2.99355,-0.0761501,-0.774786,0.187989,
2,1,0,1,0,68.7814,0.193827,0.193652,0.91605,1,0.0337598,10,0.000177395,-3.03808,-0.100308,-0.58819,0.192012,
2,1,0,0,0,69.5416,0.197628,0.197412,0.838084,1,0.0344352,10,0.000165448,-3.07671,-0.104469,-0.564762,0.195912,
2,1,0,1,0,70.3018,0.201429,0.201201,0.777629,1,0.0350578,10,0.000156459,-3.10923,-0.12684,-0.465152,0.199809,
2,1,0,0,0,71.062,0.20523,0.205085,0.726396,1,0.0356369,10,0.000148973,-3.13883,-0.142915,-0.412832,0.203785,
2,1,0,1,0,71.8222,0.209031,0.208759,0.688889,1,0.0361825,10,0.000143812,-3.16185,-0.203651,-0.289712,0.207526,
2,1,0,0,0,72.5824,0.212832,0.212682,0.654816,1,0.036701,10,0.000139267,-3.18388,-0.209672,-0.281392,0.21151,
2,1,0,1,0,73.3426,0.216633,0.216375,0.623209,1,0.0371946,10,0.000134847,-3.20537,-0.348498,-0.169298,0.21526,
2,1,0,0,0,74.1028,0.220434,0.220202,0.602045,1,0.0376686,10,0.000132572,-3.22037,-0.245312,-0.24051,0.219124,
2,1,0,1,0,74.863,0.224236,0.22401,0.583243,1,0.0381266,10,0.000130652,-3.23415,-0.25948,-0.227378,0.222966,
2,1,0,0,0,75.6232,0.228037,0.227799,0.566356,1,0.0385708,10,0.000129015,-3.24691,-0.216105,-0.273016,0.226785,
2,1,0,1,0,76.3835,0.231838,0.231664,0.553058,1,0.0390022,10,0.000128124,-3.25723,-0.385961,-0.152865,0.230674,
2,1,0,1,0,77.1438,0.235639,0.235424,0.54046,1,0.0394249,10,0.000127237,-3.26724,-0.243344,-0.242455,0.234457,
2,1,0,0,0,77.904,0.23944,0.239223,0.529933,1,0.0398389,10,0.000126772,-3.27578,-0.733543,-0.0804316,0.238274,
2,1,0,1,0,78.6642,0.243241,0.242954,0.519783,1,0.0402444,10,0.000126283,-3.28418,-0.805255,-0.0732687,0.242024,
2,1,0,0,0,79.4244,0.247042,0.246838,0.510249,1,0.0406435,10,0.000125949,-3.29222,-0.843065,-0.0699827,0.245925,
2,1,0,1,0,80.1846,0.250843,0.250589,0.504641,1,0.041037,10,0.000126458,-3.29702,-0.735245,-0.0802454,0.249686,
2,1,0,0,0,80.9448,0.254644,0.254397,0.49525,1,0.0414245,10,0.00012599,-3.30518,-1.17935,-0.0500275,0.25351,
2,1,0,1,0,81.705,0.258445,0.2583,0.489896,1,0.0418074,10,0.00012654,-3.3099,-1.93495,-0.0304918,0.257423,
2,1,0,0,0,82.4652,0.262246,0.262099,0.48534,1,0.0421869,10,0.000127207,-3.31395,-1.28766,-0.0458196,0.26123,
2,1,0,1,0,83.2254,0.266047,0.265792,0.480829,1,0.0425624,10,0.000127801,-3.31801,-0.27096,-0.217744,0.264931,
2,1,0,0,0,83.9856,0.269849,0.269743,0.475514,1,0.0429334,10,0.000128267,-3.32284,-0.698372,-0.0844822,0.268892,
2,1,0,1,0,84.7458,0.27365,0.273379,0.470049,1,0.0433019,10,0.000128502,-3.32786,-0.952703,-0.061929,0.272538,
2,1,0,0,0,85.506,0.277451,0.277321,0.466272,1,0.0436676,10,0.000129307,-3.33136,-0.787642,-0.0749071,0.276486,
2,1,0,0,0,86.2664,0.281252,0.280938,0.463909,1,0.0440299,10,0.00013033,-3.33357,1.9988,0.0295178,0.280108,
2,1,0,1,0,87.0266,0.285053,0.284889,0.458075,1,0.0443903,10,0.0001305,-3.33906,-39.4654,-0.00149498,0.284069,
2,1,0,0,0,87.7868,0.288854,0.288601,0.455953,1,0.0447485,10,0.000131589,-3.34108,-0.595498,-0.0990767,0.287785,
2,1,0,1,0,88.547,0.292655,0.292438,0.451221,1,0.0451037,10,0.000131954,-3.34561,-0.874089,-0.0674988,0.29163,
2,1,0,0,0,89.3072,0.296456,0.296389,0.449547,1,0.0454566,10,0.000133241,-3.34723,62.9382,0.000937428,0.295584,
2,1,0,1,0,90.0674,0.300257,0.300102,0.449216,1,0.045808,10,0.00013481,-3.34754,-1.92029,-0.0307246,0.299297,
2,1,0,0,0,90.8276,0.304058,0.303833,0.445932,1,0.0461577,10,0.000135489,-3.35073,-1.9566,-0.0301543,0.303035,
2,1,0,1,0,91.5878,0.307859,0.307651,0.443946,1,0.046505,10,0.00013658,-3.35267,-1.39541,-0.0422815,0.306856,
2,1,0,0,0,92.348,0.31166,0.311478,0.444913,1,0.0468515,10,0.00013858,-3.35173,2.71864,0.021702,0.310681,
2,1,0,1,0,93.1082,0.315462,0.315247,0.44037,1,0.0471968,10,0.000138825,-3.35618,-0.848648,-0.0695224,0.314459,
2,1,0,0,0,93.8684,0.319263,0.319036,0.437332,1,0.0475401,10,0.000139525,-3.35919,2.20907,0.0267081,0.318253,
2,1,0,1,0,94.6287,0.323064,0.322806,0.435971,1,0.0478825,10,0.000140734,-3.36054,-7.15955,-0.00824074,0.322026,
2,1,0,1,0,95.389,0.326865,0.32669,0.435431,1,0.0482237,10,0.000142251,-3.36108,5.54224,0.0106455,0.325911,
2,1,0,0,0,96.1492,0.330666,0.33045,0.430894,1,0.0485637,10,0.000142389,-3.36563,-0.874462,-0.06747,0.329679,
2,1,0,1,0,96.9094,0.334467,0.334316,0.430933,1,0.0489019,10,0.000144068,-3.36559,-1.73867,-0.0339339,0.333544,
2,1,0,0,0,97.6696,0.338268,0.338114,0.4302,1,0.0492396,10,0.000145457,-3.36633,-0.905986,-0.0651224,0.337344,
2,1,0,1,0,98.4298,0.342069,0.341941,0.42996,1,0.049576,10,0.000147021,-3.36657,-1.07738,-0.0547624,0.341171,
2,1,0,0,0,99.19,0.34587,0.345701,0.426909,1,0.0499105,10,0.000147583,-3.36966,-0.850485,-0.0693721,0.344937,
2,1,0,1,0,99.9502,0.349671,0.349442,0.424891,1,0.0502441,10,0.000148475,-3.37172,-18.9314,-0.00311652,0.348682,
2,1,0,0,0,100.71,0.353472,0.353298,0.42417,1,0.0505767,10,0.000149859,-3.37246,-2.86961,-0.0205603,0.352539,
2,1,0,1,0,101.471,0.357273,0.357096,0.421795,1,0.0509077,10,0.000150621,-3.3749,0.416433,0.14168,0.356341,
2,1,0,0,0,102.231,0.361075,0.360904,0.42184,1,0.0512378,10,0.000152244,-3.37485,-1.03752,-0.0568664,0.360149,
2,1,0,1,0,102.991,0.364876,0.364684,0.418472,1,0.0515675,10,0.00015261,-3.37833,-244.906,-0.000240909,0.363934,
2,1,0,1,0,103.751,0.368677,0.368511,0.417657,1,0.0518953,10,0.000153911,-3.37918,-0.442714,-0.133269,0.367763,
2,1,0,0,0,104.512,0.372478,0.372347,0.417362,1,0.0522214,10,0.000155404,-3.37949,-5.5968,-0.0105417,0.3716,
2,1,0,1,0,105.272,0.376279,0.37605,0.414487,1,0.0525469,10,0.000155868,-3.38249,-0.892052,-0.0661396,0.375308,
2,1,0,0,0,106.032,0.38008,0.379982,0.411677,1,0.0528712,10,0.00015643,-3.38544,-6.67624,-0.00883731,0.379245,
2,1,0,1,0,106.792,0.383881,0.383675,0.412352,1,0.053194,10,0.000158209,-3.38473,-2.02148,-0.0291865,0.382937,
2,1,0,0,0,107.552,0.387682,0.387512,0.408679,1,0.0535161,10,0.000158368,-3.38862,1.67447,0.0352351,0.38678,
2,1,0,1,0,108.313,0.391483,0.391215,0.410639,1,0.0538373,10,0.000160648,-3.38654,-0.685413,-0.0860795,0.39048,
2,1,0,0,0,109.073,0.395284,0.395042,0.407965,1,0.0541571,10,0.000161163,-3.38938,4.04758,0.0145766,0.394312,
2,1,0,1,0,109.833,0.399085,0.398936,0.405803,1,0.0544764,10,0.000161889,-3.39168,-0.341569,-0.172732,0.398209,
2,1,0,0,0,110.593,0.402886,0.402725,0.407828,1,0.0547951,10,0.000164242,-3.38952,10.3243,0.00571466,0.401995,
2,1,0,1,0,111.353,0.406687,0.406494,0.404343,1,0.0551131,10,0.000164363,-3.39325,-0.302218,-0.195223,0.405771,
2,1,0,0,0,112.114,0.410489,0.410302,0.405563,1,0.0554297,10,0.000166403,-3.39194,4.17611,0.014128,0.409576,
2,1,0,1,0,112.874,0.41429,0.414139,0.410544,1,0.0557472,10,0.000170022,-3.38664,-3.1318,-0.018839,0.413404,
2,1,0,1,0,113.634,0.418091,0.417928,0.405849,1,0.0560637,10,0.000169615,-3.39164,-1.22008,-0.0483575,0.417201,
2,1,0,0,0,114.394,0.421892,0.421659,0.406939,1,0.056379,10,0.00017159,-3.39047,1.48487,0.0397342,0.420931,
2,1,0,1,0,115.155,0.425693,0.425486,0.404129,1,0.0566938,10,0.000171951,-3.39348,-204.412,-0.000288633,0.424763,
2,1,0,0,0,115.915,0.429494,0.429285,0.403331,1,0.0570083,10,0.000173144,-3.39434,-3.27713,-0.0180036,0.428563,
2,1,0,1,0,116.675,0.433295,0.433054,0.400936,1,0.0573221,10,0.000173627,-3.39693,-0.32128,-0.18364,0.432337,
2,1,0,0,0,117.435,0.437096,0.43691,0.402377,1,0.0576349,10,0.000175802,-3.39537,1.07345,0.0549631,0.43619,
2,1,0,1,0,118.195,0.440897,0.440746,0.40261,1,0.057948,10,0.000177449,-3.39512,0.70605,0.0835635,0.440026,
2,1,0,0,0,118.956,0.444698,0.444507,0.402442,1,0.0582607,10,0.000178888,-3.3953,6.84399,0.0086207,0.443786,
2,1,0,1,0,119.716,0.448499,0.448267,0.401909,1,0.0585729,10,0.000180163,-3.39587,1.89323,0.0311637,0.447547,
2,1,0,0,0,120.476,0.452301,0.452094,0.402552,1,0.0588853,10,0.000181991,-3.39518,0.914797,0.0644952,0.451373,
2,1,0,1,0,121.236,0.456102,0.455959,0.401475,1,0.059198,10,0.000183056,-3.39634,-6.10562,-0.00966323,0.45524,
2,1,0,1,0,121.996,0.459903,0.459719,0.400731,1,0.0595101,10,0.000184224,-3.39715,0.509091,0.115893,0.459002,
2,1,0,0,0,122.757,0.463704,0.463537,0.402591,1,0.059823,10,0.000186616,-3.39514,0.836832,0.070504,0.462816,
2,1,0,1,0,123.517,0.467505,0.467345,0.401066,1,0.0601364,10,0.000187436,-3.39678,3.42797,0.0172113,0.466627,
2,1,0,0,0,124.277,0.471306,0.471143,0.401942,1,0.06045,10,0.000189372,-3.39584,-1.22181,-0.048289,0.470424,
2,1,0,1,0,125.037,0.475107,0.474913,0.402234,1,0.0607635,10,0.000191026,-3.39552,1.7318,0.0340685,0.474193,
2,1,0,0,0,125.798,0.478908,0.478663,0.402,1,0.0610782,10,0.000192423,-3.39577,-4.55269,-0.0129594,0.477944,
2,1,0,1,0,126.558,0.482709,0.482538,0.404064,1,0.0613934,10,0.000194976,-3.39355,1.95583,0.0301662,0.481815,
2,1,0,0,0,127.318,0.48651,0.486279,0.404213,1,0.061709,10,0.000196561,-3.39339,1.73553,0.0339954,0.485556,
2,1,0,1,0,128.078,0.490311,0.490039,0.405252,1,0.0620258,10,0.000198589,-3.39228,2.51818,0.0234296,0.489314,
2,1,0,0,0,128.838,0.494112,0.494,0.406881,1,0.0623439,10,0.000200999,-3.39053,22.3987,0.00263408,0.493272,
2,1,0,1,0,129.599,0.497913,0.497694,0.407004,1,0.0626623,10,0.000202563,-3.3904,0.434392,0.135822,0.496965,
2,1,0,0,0,130.359,0.501715,0.501501,0.408951,1,0.0629819,10,0.00020509,-3.38833,1.19108,0.0495348,0.500769,
2,1,0,1,0,131.119,0.505516,0.505338,0.413288,1,0.0633033,10,0.00020885,-3.38375,-20.6461,-0.00285769,0.504598,
2,1,0,1,0,131.879,0.509317,0.509108,0.414357,1,0.0636262,10,0.000210953,-3.38262,-0.954489,-0.0618132,0.508366,
2,1,0,0,0,132.64,0.513118,0.512839,0.417317,1,0.0639502,10,0.000214016,-3.37953,0.696222,0.0847431,0.512092,
2,1,0,1,0,133.4,0.516919,0.516762,0.421847,1,0.0642769,10,0.000217994,-3.37485,1.00445,0.0587386,0.516007,
2,1,0,0,0,134.16,0.52072,0.520579,0.424651,1,0.0646058,10,0.000221064,-3.37197,0.722654,0.0816435,0.519819,
2,1,0,1,0,134.92,0.524521,0.524473,0.429674,1,0.064937,10,0.000225352,-3.36686,0.729887,0.0808344,0.523704,
2,1,0,0,0,135.68,0.528322,0.528176,0.434165,1,0.0652713,10,0.000229316,-3.36234,1.72284,0.0342458,0.527399,
2,1,0,1,0,136.441,0.532123,0.531993,0.43643,1,0.0656082,10,0.000232178,-3.36009,1.40834,0.0418934,0.531212,
2,1,0,0,0,137.201,0.535924,0.535687,0.439675,1,0.0659484,10,0.000235528,-3.35687,0.455636,0.129489,0.5349,
2,1,0,1,0,137.961,0.539725,0.539466,0.446425,1,0.0662927,10,0.000240831,-3.35025,0.544231,0.10841,0.538667,
2,1,0,0,0,138.721,0.543526,0.543417,0.454369,1,0.0666419,10,0.000246912,-3.34259,0.845664,0.0697677,0.542604,
2,1,0,1,0,139.481,0.547328,0.547072,0.459276,1,0.0669959,10,0.000251257,-3.33793,1.4651,0.0402703,0.54625,
2,1,0,1,0,140.242,0.551129,0.550957,0.466894,1,0.0673549,10,0.000257238,-3.33078,0.718243,0.0821449,0.550121,
2,1,0,0,0,141.002,0.55493,0.554717,0.476137,1,0.0677206,10,0.000264121,-3.32227,0.686993,0.0858815,0.553865,
2,1,0,1,0,141.762,0.558731,0.558592,0.484457,1,0.0680935,10,0.000270614,-3.31474,0.301087,0.195957,0.557724,
2,1,0,0,0,142.522,0.562532,0.562295,0.495069,1,0.0684744,10,0.000278374,-3.30533,0.295963,0.199349,0.561408,
2,1,0,1,0,143.283,0.566333,0.566179,0.509528,1,0.0688651,10,0.000288484,-3.29283,0.292556,0.201671,0.565267,
2,1,0,0,0,144.043,0.570134,0.569949,0.523962,1,0.0692667,10,0.000298632,-3.2807,0.270288,0.218286,0.569011,
2,1,0,1,0,144.803,0.573935,0.573737,0.539759,1,0.0696799,10,0.00030968,-3.2678,0.305451,0.193157,0.572771,
2,1,0,0,0,145.563,0.577736,0.577564,0.559548,1,0.0701061,10,0.000323175,-3.25216,0.235029,0.251033,0.576563,
2,1,0,1,0,146.323,0.581537,0.581363,0.581413,1,0.0705482,10,0.000338012,-3.23552,0.200175,0.294742,0.580322,
2,1,0,0,0,147.084,0.585338,0.585104,0.609165,1,0.0710087,10,0.000356425,-3.21527,0.234913,0.251156,0.584013,
2,1,0,1,0,147.844,0.589139,0.588893,0.639091,1,0.0714901,10,0.000376356,-3.19444,0.205944,0.286486,0.587749,
2,1,0,0,0,148.604,0.592941,0.592691,0.672722,1,0.071996,10,0.000398717,-3.17216,0.147891,0.398944,0.591487,
2,1,0,1,0,149.364,0.596742,0.596499,0.712585,1,0.0725304,10,0.000425056,-3.14716,0.148806,0.39649,0.595224,
2,1,0,1,0,150.125,0.600543,0.600326,0.758256,1,0.0730961,10,0.000455201,-3.12018,0.130743,0.451267,0.598969,
2,1,0,0,0,150.885,0.604344,0.604124,0.81191,1,0.0736994,10,0.000490494,-3.09049,0.124371,0.474389,0.602671,
2,1,0,1,0,151.645,0.608145,0.607942,0.871489,1,0.0743456,10,0.000529815,-3.05974,0.106578,0.553586,0.606382,
2,1,0,0,0,152.405,0.611946,0.611673,0.942445,1,0.0750422,10,0.000576469,-3.02574,0.114334,0.51603,0.609986,
2,1,0,1,0,153.165,0.615747,0.615596,1.02198,1,0.0757944,10,0.000629124,-2.99056,0.0948433,0.622079,0.613767,
2,1,0,0,0,153.926,0.619548,0.619289,1.11184,1,0.0766117,10,0.000688549,-2.95396,0.0987955,0.597193,0.617299,
2,1,0,1,0,154.686,0.623349,0.623116,1.21382,1,0.0775031,10,0.000756349,-2.91585,0.0991122,0.595285,0.620944,
2,1,0,0,0,155.446,0.62715,0.626905,1.33223,1,0.0784779,10,0.000835181,-2.87542,0.0901894,0.654179,0.62452,
2,1,0,1,0,156.206,0.630951,0.630828,1.46424,1,0.0795478,10,0.000923682,-2.83439,0.0835703,0.705992,0.628207,
2,1,0,0,0,156.966,0.634752,0.634616,1.61141,1,0.0807244,10,0.00102263,-2.79279,0.0725104,0.813677,0.631732,
2,1,0,1,0,157.727,0.638554,0.638348,1.77806,1,0.0820205,10,0.00113502,-2.75005,0.08189,0.720478,0.635165,
2,1,0,0,0,158.487,0.642355,0.642213,1.96066,1,0.0834499,10,0.00125916,-2.7076,0.0789414,0.74739,0.638704,
2,1,0,0,0,159.247,0.646156,0.646078,2.16557,1,0.0850268,10,0.00139913,-2.66443,0.081186,0.726726,0.642202,
2,1,0,1,0,160.007,0.649957,0.6498,2.38819,1,0.0867658,10,0.00155185,-2.62193,0.0822309,0.717492,0.645525,
2,1,0,0,0,160.768,0.653758,0.653618,2.62762,1,0.08868,10,0.00171746,-2.58044,0.0827273,0.713187,0.648914,
2,1,0,1,0,161.528,0.657559,0.65733,2.89065,1,0.0907858,10,0.00190011,-2.539,0.0836701,0.70515,0.652156,
2,1,0,0,0,162.288,0.66136,0.661167,3.16821,1,0.0930971,10,0.00209472,-2.49919,0.082195,0.717805,0.655496,
2,1,0,1,0,163.048,0.665161,0.665061,3.46868,1,0.0956291,10,0.00230688,-2.45984,0.0813245,0.725488,0.658852,
2,1,0,0,0,163.808,0.668962,0.668802,3.78759,1,0.0983962,10,0.00253315,-2.42164,0.0895069,0.659167,0.662022,
2,1,0,1,0,164.569,0.672763,0.672467,4.12684,1,0.101414,10,0.00277516,-2.38438,0.0760004,0.776312,0.665079,
2,1,0,0,0,165.329,0.676564,0.676389,4.4783,1,0.104694,10,0.00302907,-2.34889,0.0841109,0.701455,0.668373,
2,1,0,1,0,166.089,0.680365,0.68013,4.85278,1,0.108251,10,0.00330052,-2.31401,0.0867569,0.680061,0.671444,
2,1,0,0,0,166.849,0.684167,0.683948,5.24073,1,0.112097,10,0.00358438,-2.28061,0.0883518,0.667785,0.674567,
2,1,0,1,0,167.609,0.687968,0.687908,5.64563,1,0.116244,10,0.00388367,-2.24829,0.0977655,0.603485,0.677802,
2,1,0,1,0,168.37,0.691769,0.691668,6.05965,1,0.120704,10,0.00419127,-2.21755,0.10215,0.577585,0.680822,
2,1,0,0,0,169.13,0.69557,0.69539,6.49176,1,0.125485,10,0.00451431,-2.18764,0.102995,0.572846,0.68377,
2,1,0,1,0,169.89,0.699371,0.699208,6.93554,1,0.130599,10,0.00484938,-2.15892,0.105927,0.556988,0.686793,
2,1,0,0,0,170.65,0.703172,0.703073,7.38921,1,0.136053,10,0.00519516,-2.1314,0.109004,0.541263,0.689846,
2,1,0,1,0,171.411,0.706973,0.706843,7.85373,1,0.141857,10,0.00555135,-2.10492,0.114273,0.516307,0.692785,
2,1,0,0,0,172.171,0.710774,0.710555,8.32475,1,0.148016,10,0.00591519,-2.07963,0.118874,0.496323,0.695654,
2,1,0,1,0,172.931,0.714575,0.714411,8.80328,1,0.154537,10,0.00628916,-2.05536,0.126433,0.466651,0.698653,
2,1,0,0,0,173.691,0.718376,0.718152,9.28607,1,0.161421,10,0.00666881,-2.03217,0.132886,0.443989,0.70153,
2,1,0,1,0,174.451,0.722177,0.721912,9.77848,1,0.168677,10,0.0070592,-2.00973,0.122682,0.480918,0.704409,
2,1,0,0,0,175.212,0.725978,0.725777,10.2715,1,0.176308,10,0.00745485,-1.98836,0.146503,0.402721,0.707391,
2,1,0,1,0,175.972,0.72978,0.729538,10.7645,1,0.184313,10,0.0078531,-1.96801,0.15349,0.38439,0.710269,
2,1,0,0,0,176.732,0.733581,0.733422,11.2615,1,0.192695,10,0.00825945,-1.9484,0.187614,0.314475,0.713264,
2,1,0,0,0,177.492,0.737382,0.737182,11.762,1,0.201458,10,0.00867077,-1.92952,0.165253,0.357028,0.716128,
2,1,0,1,0,178.253,0.741183,0.741019,12.2563,1,0.210598,10,0.00908213,-1.91164,0.189399,0.311512,0.71908,
2,1,0,0,0,179.013,0.744984,0.744588,12.7571,1,0.220117,10,0.00949877,-1.89425,0.161658,0.364968,0.721753,
2,1,0,1,0,179.773,0.748785,0.748644,13.2622,1,0.230016,10,0.00992865,-1.87739,0.171172,0.344683,0.724905,
2,1,0,0,0,180.533,0.752586,0.752366,13.7625,1,0.240298,10,0.0103545,-1.8613,0.192648,0.306259,0.727731,
2,1,0,1,0,181.293,0.756387,0.756117,14.256,1,0.250958,10,0.0107792,-1.846,0.175451,0.336276,0.730598,
2,1,0,0,0,182.054,0.760188,0.759877,14.7573,1,0.261996,10,0.0112137,-1.83099,0.203393,0.290078,0.733461,
2,1,0,1,0,182.814,0.763989,0.763809,15.2625,1,0.273417,10,0.0116576,-1.81637,0.210039,0.2809,0.736489,
2,1,0,0,0,183.574,0.76779,0.767579,15.7706,1,0.285224,10,0.0121052,-1.80215,0.196203,0.300708,0.739349,
2,1,0,1,0,184.334,0.771591,0.771367,16.2874,1,0.297419,10,0.0125636,-1.78815,0.175825,0.335562,0.742213,
2,1,0,0,0,185.094,0.775393,0.775223,16.8146,1,0.310012,10,0.0130351,-1.77431,0.217658,0.271068,0.745125,
2,1,0,1,0,185.855,0.779194,0.778993,17.3468,1,0.323007,10,0.013513,-1.76078,0.195566,0.301689,0.747942,
2,1,0,1,0,186.615,0.782995,0.782772,17.9023,1,0.33642,10,0.0140135,-1.74709,0.223331,0.264182,0.750727,
2,1,0,0,0,187.375,0.786796,0.786542,18.4659,1,0.350254,10,0.0145242,-1.73363,0.216147,0.272962,0.753488,
2,1,0,1,0,188.135,0.790597,0.790398,19.0235,1,0.364513,10,0.0150361,-1.72071,0.227772,0.259031,0.756345,
2,1,0,0,0,188.896,0.794398,0.794177,19.5892,1,0.379199,10,0.0155573,-1.70798,0.214593,0.274939,0.759112,
2,1,0,1,0,189.656,0.798199,0.798023,20.1747,1,0.394323,10,0.0160999,-1.69519,0.211705,0.278689,0.76191,
2,1,0,0,0,190.416,0.802,0.801783,20.7649,1,0.409895,10,0.0166489,-1.68267,0.214493,0.275068,0.764614,
2,1,0,1,0,191.176,0.805801,0.805677,21.3769,1,0.425922,10,0.0172229,-1.67006,0.210866,0.279798,0.767412,
2,1,0,0,0,191.936,0.809602,0.809351,21.9887,1,0.442416,10,0.0177966,-1.6578,0.241635,0.24417,0.769992,
2,1,0,1,0,192.697,0.813403,0.813254,22.6212,1,0.45938,10,0.0183968,-1.64548,0.225958,0.261111,0.772762,
2,1,0,0,0,193.457,0.817204,0.817024,23.2499,1,0.476828,10,0.0189958,-1.63358,0.244247,0.241559,0.775407,
2,1,0,1,0,194.217,0.821005,0.820794,23.8745,1,0.494751,10,0.0195961,-1.62207,0.216803,0.272137,0.778059,
2,1,0,1,0,194.977,0.824807,0.824612,24.4981,1,0.513148,10,0.0202014,-1.61087,0.249659,0.236322,0.78076,
2,1,0,0,0,195.738,0.828608,0.828486,25.1386,1,0.532022,10,0.020827,-1.59966,0.226941,0.25998,0.783488,
2,1,0,1,0,196.498,0.832409,0.83217,25.7864,1,0.55139,10,0.0214587,-1.58861,0.222784,0.264831,0.786012,
2,1,0,0,0,197.258,0.83621,0.836054,26.4214,1,0.571245,10,0.0220898,-1.57804,0.270126,0.218417,0.78876,
2,1,0,1,0,198.018,0.840011,0.839805,27.0422,1,0.591573,10,0.0227102,-1.56796,0.27535,0.214272,0.7914,
2,1,0,0,0,198.778,0.843812,0.843603,27.6834,1,0.612383,10,0.0233538,-1.55778,0.235003,0.251061,0.79405,
2,1,0,1,0,199.539,0.847613,0.847392,28.3311,1,0.633685,10,0.0240076,-1.54774,0.275872,0.213868,0.79668,
2,1,0,1,0,200.279,0.848613,0.848404,28.317,1,0.654812,10,0.0240242,-1.54795,0.12325,0.478704,0.797717,
2,1,0,0,0,201.04,0.844812,0.844653,27.424,1,0.675975,10,0.0231638,-1.56187,0.199461,0.295798,0.795564,
2,1,0,1,0,201.8,0.841011,0.840941,26.6488,1,0.696512,10,0.0224101,-1.57432,0.198335,0.297476,0.793239,
2,1,0,0,0,202.56,0.83721,0.837047,25.914,1,0.71648,10,0.0216912,-1.58647,0.208643,0.28278,0.790661,
2,1,0,1,0,203.32,0.833409,0.833249,25.1957,1,0.735895,10,0.0209943,-1.59867,0.220362,0.267742,0.788148,
2,1,0,0,0,204.08,0.829608,0.829441,24.4804,1,0.754766,10,0.020305,-1.61118,0.199786,0.295315,0.785621,
2,1,0,1,0,204.841,0.825807,0.825661,23.7925,1,0.773104,10,0.0196446,-1.62356,0.184936,0.31903,0.783073,
2,1,0,0,0,205.601,0.822006,0.821748,23.0983,1,0.790917,10,0.018981,-1.63642,0.196373,0.300449,0.780402,
2,1,0,1,0,206.361,0.818205,0.81796,22.4168,1,0.80821,10,0.018336,-1.64943,0.212872,0.277161,0.777834,
2,1,0,1,0,207.121,0.814404,0.814199,21.7126,1,0.824978,10,0.0176784,-1.66329,0.219556,0.268724,0.775334,
2,1,0,0,0,207.882,0.810602,0.810411,21.0303,1,0.841214,10,0.0170432,-1.67715,0.181498,0.325073,0.772766,
2,1,0,1,0,208.642,0.806801,0.806679,20.3592,1,0.856938,10,0.0164233,-1.69124,0.170959,0.345112,0.770236,
2,1,0,0,0,209.402,0.803,0.802833,19.6975,1,0.87215,10,0.0158138,-1.70559,0.174962,0.337216,0.767574,
2,1,0,1,0,210.162,0.799199,0.799006,19.0358,1,0.886863,10,0.0152097,-1.72043,0.185619,0.317855,0.764932,
2,1,0,0,0,210.922,0.795398,0.795217,18.3792,1,0.901075,10,0.0146154,-1.73567,0.15621,0.377696,0.762318,
2,1,0,1,0,211.683,0.791597,0.79139,17.713,1,0.91478,10,0.0140179,-1.75171,0.167608,0.352011,0.759684,
2,1,0,0,0,212.443,0.787796,0.78762,17.0585,1,0.927987,10,0.0134356,-1.76806,0.156048,0.37809,0.757086,
2,1,0,1,0,213.203,0.783995,0.783831,16.405,1,0.940695,10,0.0128588,-1.78502,0.163424,0.361024,0.754467,
2,1,0,0,0,213.963,0.780194,0.780033,15.7567,1,0.952908,10,0.0122907,-1.80253,0.14996,0.393438,0.751829,
2,1,0,1,0,214.723,0.776393,0.776216,15.1251,1,0.964635,10,0.0117404,-1.8203,0.142167,0.415006,0.749142,
2,1,0,0,0,215.484,0.772592,0.772455,14.4999,1,0.975885,10,0.0112005,-1.83864,0.145319,0.406004,0.746501,
2,1,0,0,0,216.244,0.768791,0.768667,13.8758,1,0.986661,10,0.0106659,-1.85774,0.147209,0.400792,0.743829,
2,1,0,1,0,217.004,0.76499,0.764782,13.2687,1,0.996968,10,0.0101477,-1.87717,0.146988,0.401393,0.741031,
2,1,0,0,0,217.764,0.761189,0.760984,12.664,1,1.00682,10,0.00963707,-1.89743,0.138406,0.426282,0.738315,
2,1,0,1,0,218.525,0.757387,0.757252,12.0705,1,1.01621,10,0.00914041,-1.91828,0.133816,0.440903,0.735646,
2,1,0,0,0,219.285,0.753586,0.753502,11.4831,1,1.02515,10,0.0086525,-1.93994,0.114794,0.513966,0.732947,
2,1,0,1,0,220.045,0.749785,0.749684,10.9125,1,1.03365,10,0.00818095,-1.96207,0.11887,0.496342,0.730151,
2,1,0,0,0,220.805,0.745984,0.7458,10.348,1,1.04173,10,0.00771752,-1.98514,0.118068,0.499711,0.727277,
2,1,0,1,0,221.565,0.742183,0.741973,9.79658,1,1.04937,10,0.0072688,-2.00893,0.124621,0.473434,0.724437,
2,1,0,0,0,222.326,0.738382,0.738213,9.25565,1,1.0566,10,0.00683264,-2.03359,0.112959,0.522312,0.721645,
2,1,0,1,0,223.086,0.734581,0.734357,8.7264,1,1.06343,10,0.0064083,-2.05916,0.108769,0.542434,0.718737,
2,1,0,0,0,223.846,0.73078,0.730664,8.2074,1,1.06985,10,0.00599685,-2.08579,0.10792,0.546701,0.715972,
2,1,0,1,0,224.606,0.726979,0.726818,7.70325,1,1.07589,10,0.00559886,-2.11333,0.100538,0.586842,0.713029,
2,1,0,1,0,225.367,0.723178,0.722914,7.21111,1,1.08155,10,0.00521301,-2.142,0.101027,0.584003,0.710006,
2,1,0,0,0,226.127,0.719376,0.71923,6.73039,1,1.08684,10,0.0048407,-2.17196,0.0984111,0.599526,0.707183,
2,1,0,1,0,226.887,0.715575,0.715461,6.26651,1,1.09177,10,0.00448344,-2.20297,0.097021,0.608116,0.704244,
2,1,0,0,0,227.647,0.711774,0.711548,5.81613,1,1.09635,10,0.00413845,-2.23537,0.0948435,0.622078,0.701137,
2,1,0,1,0,228.407,0.707973,0.707769,5.37931,1,1.10059,10,0.0038073,-2.26927,0.0898997,0.656287,0.69814,
2,1,0,0,0,229.168,0.704172,0.70398,4.96402,1,1.10452,10,0.00349457,-2.30417,0.086643,0.680956,0.695094,
2,1,0,1,0,229.928,0.700371,0.700143,4.56121,1,1.10813,10,0.0031935,-2.34092,0.0806599,0.731467,0.691979,
2,1,0,0,0,230.688,0.69657,0.696297,4.17597,1,1.11144,10,0.00290772,-2.37924,0.086348,0.683281,0.688822,
2,1,0,1,0,231.448,0.692769,0.692718,3.80935,1,1.11447,10,0.0026388,-2.41915,0.0765149,0.771092,0.685899,
2,1,0,0,0,232.208,0.688968,0.688719,3.46168,1,1.11722,10,0.00238412,-2.46071,0.0781211,0.755238,0.682523,
2,1,0,1,0,232.969,0.685167,0.684921,3.12985,1,1.11971,10,0.0021437,-2.50448,0.0737599,0.799893,0.679319,
2,1,0,0,0,233.729,0.681366,0.68117,2.81642,1,1.12196,10,0.00191846,-2.5503,0.0691357,0.853394,0.676129,
2,1,0,0,0,234.489,0.677565,0.677401,2.52259,1,1.12398,10,0.0017088,-2.59815,0.0731124,0.806977,0.672885,
2,1,0,1,0,235.249,0.673764,0.673602,2.24764,1,1.12579,10,0.00151402,-2.64827,0.0657056,0.897944,0.669579,
2,1,0,0,0,236.01,0.669963,0.669737,1.98917,1,1.12738,10,0.00133222,-2.70133,0.0566326,1.0418,0.666176,
2,1,0,1,0,236.77,0.666161,0.665967,1.75096,1,1.12879,10,0.00116608,-2.75672,0.0606859,0.97222,0.662833,
2,1,0,0,0,237.53,0.66236,0.662198,1.53072,1,1.13003,10,0.00101364,-2.8151,0.0554894,1.06327,0.659458,
2,1,0,1,0,238.29,0.658559,0.658256,1.32648,1,1.13111,10,0.000873163,-2.8773,0.0528422,1.11653,0.655882,
2,1,0,0,0,239.05,0.654758,0.654591,1.1432,1,1.13204,10,0.000748327,-2.94188,0.0523961,1.12604,0.652545,
2,1,0,1,0,239.811,0.650957,0.650841,0.976175,1,1.13283,10,0.000635334,-3.01047,0.0545279,1.08202,0.649093,
2,1,0,0,0,240.571,0.647156,0.646985,0.826162,1,1.13351,10,0.000534514,-3.08293,0.0462961,1.2744,0.645506,
2,1,0,1,0,241.331,0.643355,0.643158,0.689253,1,1.13408,10,0.000443298,-3.16162,0.0448408,1.31577,0.641924,
2,1,0,0,0,242.091,0.639554,0.63935,0.567699,1,1.13455,10,0.000362959,-3.24588,0.0404206,1.45965,0.638334,
2,1,0,1,0,242.851,0.635753,0.635599,0.462819,1,1.13494,10,0.000294168,-3.33459,0.0399918,1.4753,0.634771,
2,1,0,1,0,243.612,0.631952,0.631725,0.36905,1,1.13524,10,0.000233138,-3.43291,0.0349471,1.68827,0.631064,
2,1,0,0,0,244.372,0.628151,0.627945,0.287209,1,1.13549,10,0.000180352,-3.5418,0.0307358,1.91958,0.627431,
2,1,0,1,0,245.132,0.62435,0.624185,0.217648,1,1.13567,10,0.000135853,-3.66224,0.0274649,2.1482,0.623796,
2,1,0,0,0,245.892,0.620548,0.620358,0.155019,1,1.1358,10,9.61671e-05,-3.80962,0.02175,2.71265,0.620081,
2,1,0,1,0,246.653,0.616747,0.616598,0.0992361,1,1.13589,10,6.11888e-05,-4.00333,0.0168778,3.49571,0.61642,
2,1,0,0,0,247.413,0.612946,0.612733,0.0539221,1,1.13594,10,3.30398e-05,-4.26823,0.0127959,4.61085,0.612636,
2,1,0,1,0,248.173,0.609145,0.609001,0.0130668,1,1.13596,10,7.95768e-06,-4.88383,0.00317127,18.6045,0.608978,
2,0,0,0,0,248.933,0.605344,0.605136,-0.0210453,1,1.13595,10,-1.27353e-05,-4.67685,-0.00537617,-10.9744,0.605174,
2,0,0,1,0,249.693,0.601543,0.601347,-0.0492903,1,1.13591,10,-2.96406e-05,-4.30724,-0.0163411,-3.61054,0.601435,
2,0,0,0,0,250.454,0.597742,0.597597,-0.0749003,1,1.13586,10,-4.47602e-05,-4.12552,-0.0247474,-2.38409,0.597731,
2,0,0,1,0,251.214,0.593941,0.593693,-0.0973496,1,1.13578,10,-5.77958e-05,-4.01167,-0.0326117,-1.80917,0.593867,
2,0,0,0,0,251.974,0.59014,0.589914,-0.116177,1,1.13569,10,-6.85347e-05,-3.93488,-0.0555094,-1.06288,0.590122,
2,0,0,0,0,252.734,0.586339,0.586173,-0.132048,1,1.13559,10,-7.74029e-05,-3.87927,-0.0832961,-0.708317,0.586409,
2,0,0,1,0,253.495,0.582538,0.582355,-0.146499,1,1.13548,10,-8.53147e-05,-3.83416,-0.0806634,-0.731434,0.582617,
2,0,0,0,0,254.255,0.578736,0.578566,-0.15957,1,1.13535,10,-9.23221e-05,-3.79705,-0.119177,-0.495063,0.578852,
2,0,0,1,0,255.015,0.574935,0.574739,-0.169358,1,1.13522,10,-9.73365e-05,-3.7712,-0.160827,-0.366855,0.575043,
2,0,0,0,0,255.775,0.571134,0.57096,-0.177548,1,1.13508,10,-0.000101373,-3.75068,-0.159316,-0.370333,0.571278,
2,0,0,1,0,256.535,0.567333,0.567133,-0.187108,1,1.13494,10,-0.000106115,-3.72791,-0.289514,-0.20379,0.567468,
2,0,0,0,0,257.296,0.563532,0.563316,-0.192443,1,1.13479,10,-0.000108406,-3.7157,-0.32511,-0.181477,0.56366,
2,0,0,1,0,258.056,0.559731,0.559555,-0.196973,1,1.13464,10,-0.000110217,-3.70559,-0.174251,-0.338592,0.559908,
2,0,0,0,0,258.816,0.55593,0.555681,-0.203145,1,1.13448,10,-0.000112884,-3.69219,-0.618309,-0.0954216,0.556044,
2,0,0,1,0,259.576,0.552129,0.55193,-0.206741,1,1.13432,10,-0.000114106,-3.68457,-1.63082,-0.0361781,0.5523,
2,0,0,0,0,260.336,0.548328,0.548179,-0.21007,1,1.13415,10,-0.000115156,-3.67764,0.742844,0.0794245,0.548555,
2,0,0,1,0,261.097,0.544527,0.544372,-0.21388,1,1.13398,10,-0.00011643,-3.66983,-0.32381,-0.182205,0.544754,
2,0,0,1,0,261.857,0.540726,0.540401,-0.218753,1,1.13381,10,-0.000118214,-3.66005,-1.70487,-0.0346068,0.540793,
2,0,0,0,0,262.617,0.536925,0.536794,-0.221389,1,1.13364,10,-0.00011884,-3.65484,-0.67845,-0.0869629,0.53719,
2,0,0,1,0,263.377,0.533123,0.532919,-0.222765,1,1.13346,10,-0.000118716,-3.65215,-4.29829,-0.0137264,0.533318,
2,0,0,0,0,264.138,0.529322,0.529168,-0.225458,1,1.13328,10,-0.000119305,-3.64693,-2.06085,-0.0286289,0.529572,
2,0,0,1,0,264.898,0.525521,0.525341,-0.227652,1,1.1331,10,-0.000119595,-3.64273,-9.16911,-0.00643465,0.525749,
2,0,0,0,0,265.658,0.52172,0.521543,-0.228281,1,1.13292,10,-0.000119059,-3.64153,-0.162391,-0.36332,0.521952,
2,0,0,1,0,266.418,0.517919,0.517792,-0.231929,1,1.13274,10,-0.000120091,-3.63465,-0.577072,-0.10224,0.518208,
2,0,0,0,0,267.178,0.514118,0.513889,-0.233817,1,1.13255,10,-0.000120156,-3.63112,-1.07661,-0.0548015,0.514308,
2,0,0,1,0,267.939,0.510317,0.510062,-0.235518,1,1.13236,10,-0.000120129,-3.62798,0.646247,0.0912963,0.510484,
2,0,0,0,0,268.699,0.506516,0.506283,-0.238049,1,1.13218,10,-0.00012052,-3.62333,-1.82887,-0.0322603,0.506709,
2,0,0,1,0,269.459,0.502715,0.502437,-0.239334,1,1.13199,10,-0.00012025,-3.621,-0.744976,-0.0791972,0.502865,
2,0,0,0,0,270.219,0.498914,0.498753,-0.240755,1,1.1318,10,-0.000120077,-3.61842,-1.15071,-0.0512726,0.499184,
2,0,0,1,0,270.979,0.495113,0.494888,-0.243115,1,1.1316,10,-0.000120315,-3.61419,-0.325678,-0.181161,0.495323,
2,0,0,1,0,271.74,0.491312,0.491156,-0.244838,1,1.13141,10,-0.000120253,-3.61112,-0.354239,-0.166554,0.491594,
2,0,0,0,0,272.5,0.487511,0.48732,-0.248122,1,1.13121,10,-0.000120914,-3.60534,-1.56978,-0.037585,0.487764,
2,0,0,1,0,273.26,0.483709,0.483464,-0.248836,1,1.13102,10,-0.000120303,-3.60409,-6.20743,-0.00950474,0.483909,
2,0,0,0,0,274.02,0.479908,0.479685,-0.252918,1,1.13082,10,-0.000121321,-3.59702,-0.936343,-0.0630111,0.480137,
2,0,0,1,0,274.781,0.476107,0.475896,-0.255728,1,1.13062,10,-0.0001217,-3.59222,-0.52375,-0.112649,0.476354,
2,0,0,0,0,275.541,0.472306,0.472107,-0.25872,1,1.13041,10,-0.000122144,-3.58717,2.8097,0.0209987,0.47257,
2,0,0,1,0,276.301,0.468505,0.468309,-0.260154,1,1.13021,10,-0.000121833,-3.58477,-1.18039,-0.0499837,0.468774,
2,0,0,0,0,277.061,0.464704,0.464558,-0.263425,1,1.13,10,-0.000122376,-3.57934,-2.08603,-0.0282834,0.465029,
2,0,0,1,0,277.821,0.460903,0.460712,-0.264509,1,1.1298,10,-0.000121863,-3.57756,-0.716312,-0.0823664,0.461185,
2,0,0,0,0,278.582,0.457102,0.456894,-0.268364,1,1.12959,10,-0.000122614,-3.57128,-0.814537,-0.0724338,0.457375,
2,0,0,1,0,279.342,0.453301,0.453163,-0.269565,1,1.12938,10,-0.000122157,-3.56934,-0.785432,-0.0751179,0.453645,
2,0,0,1,0,280.102,0.4495,0.449221,-0.273025,1,1.12916,10,-0.000122649,-3.5638,-0.355808,-0.16582,0.44971,
2,0,0,0,0,280.862,0.445699,0.44549,-0.27292,1,1.12895,10,-0.000121583,-3.56396,-8.36266,-0.00705517,0.445978,
2,0,0,1,0,281.623,0.441898,0.441749,-0.275718,1,1.12873,10,-0.000121798,-3.55954,-1.33102,-0.0443269,0.442242,
2,0,0,0,0,282.383,0.438096,0.437797,-0.278774,1,1.12852,10,-0.000122047,-3.55475,-1.05024,-0.0561777,0.438296,
2,0,0,1,0,283.143,0.434295,0.434047,-0.281325,1,1.12829,10,-0.000122108,-3.55079,-0.83264,-0.070859,0.43455,
2,0,0,0,0,283.903,0.430494,0.430258,-0.283694,1,1.12807,10,-0.000122062,-3.54715,-2.20311,-0.0267804,0.430766,
2,0,0,1,0,284.663,0.426693,0.426469,-0.286147,1,1.12785,10,-0.000122033,-3.54341,-1.15428,-0.0511143,0.426981,
2,0,0,0,0,285.424,0.422892,0.422652,-0.28934,1,1.12762,10,-0.00012229,-3.53859,-1.12124,-0.0526203,0.42317,
2,0,0,1,0,286.184,0.419091,0.418872,-0.290379,1,1.12739,10,-0.000121632,-3.53704,-0.292609,-0.201634,0.419392,
2,0,0,0,0,286.944,0.41529,0.414979,-0.29633,1,1.12716,10,-0.000122971,-3.52822,-1.21369,-0.0486122,0.415509,
2,0,0,1,0,287.704,0.411489,0.41119,-0.299147,1,1.12692,10,-0.000123006,-3.52412,1.8299,0.0322423,0.411725,
2,0,0,0,0,288.464,0.407688,0.407515,-0.3016,1,1.12669,10,-0.000122907,-3.52057,-80.6809,-0.000731276,0.408055,
2,0,0,1,0,289.225,0.403887,0.403698,-0.305348,1,1.12645,10,-0.000123268,-3.51521,-0.756469,-0.0779939,0.404245,
2,0,0,1,0,289.985,0.400086,0.399852,-0.308447,1,1.1262,10,-0.000123333,-3.51082,-0.633463,-0.0931389,0.400404,
2,0,0,0,0,290.745,0.396285,0.396187,-0.313893,1,1.12596,10,-0.00012436,-3.50322,-1.21206,-0.0486775,0.396749,
2,0,0,1,0,291.505,0.392483,0.392293,-0.317118,1,1.12571,10,-0.000124403,-3.49878,-0.443685,-0.132977,0.392861,
2,0,0,0,0,292.266,0.388682,0.388495,-0.320006,1,1.12546,10,-0.000124321,-3.49484,-0.436585,-0.13514,0.389068,
2,0,0,1,0,293.026,0.384881,0.38463,-0.325224,1,1.12521,10,-0.000125091,-3.48782,-0.782263,-0.0754222,0.385212,
2,0,0,0,0,293.786,0.38108,0.380975,-0.326964,1,1.12495,10,-0.000124565,-3.4855,-0.467314,-0.126254,0.38156,
2,0,0,1,0,294.546,0.377279,0.377071,-0.332032,1,1.12469,10,-0.0001252,-3.47882,-1.23922,-0.0476105,0.377666,
2,0,0,0,0,295.306,0.373478,0.373235,-0.336485,1,1.12443,10,-0.000125588,-3.47303,-2.20451,-0.0267633,0.373837,
2,0,0,1,0,296.067,0.369677,0.369417,-0.341235,1,1.12417,10,-0.000126058,-3.46695,0.716837,0.0823061,0.370028,
2,0,0,0,0,296.827,0.365876,0.365714,-0.344824,1,1.1239,10,-0.000126107,-3.4624,-0.515148,-0.11453,0.366331,
2,0,0,1,0,297.587,0.362075,0.36183,-0.349179,1,1.12363,10,-0.000126344,-3.45695,-0.413668,-0.142626,0.362455,
2,0,0,1,0,298.347,0.358274,0.358118,-0.352314,1,1.12336,10,-0.00012617,-3.45307,-0.355455,-0.165985,0.358748,
2,0,0,0,0,299.108,0.354473,0.354205,-0.357065,1,1.12308,10,-0.000126474,-3.44725,-0.501882,-0.117557,0.354844,
2,0,0,1,0,299.868,0.350672,0.350378,-0.361368,1,1.1228,10,-0.000126615,-3.44205,-0.575839,-0.102459,0.351024,
2,0,0,0,0,300.628,0.34687,0.346579,-0.364347,1,1.12252,10,-0.000126275,-3.43849,-0.349861,-0.168638,0.347231,
2,0,0,1,0,301.388,0.343069,0.342857,-0.367722,1,1.12223,10,-0.000126076,-3.43448,-3.99495,-0.0147686,0.343515,
2,0,0,0,0,302.148,0.339268,0.339078,-0.372531,1,1.12194,10,-0.000126317,-3.42884,-0.787121,-0.0749567,0.339745,
2,0,0,1,0,302.909,0.335467,0.335194,-0.378132,1,1.12165,10,-0.000126747,-3.42236,-2.84014,-0.0207737,0.33587,
2,0,0,0,0,303.669,0.331666,0.331491,-0.381091,1,1.12136,10,-0.000126328,-3.41897,-0.923499,-0.0638875,0.332173,
2,0,0,1,0,304.429,0.327865,0.327759,-0.383785,1,1.12106,10,-0.000125789,-3.41591,-1.34854,-0.0437509,0.328446,
2,0,0,0,0,305.189,0.324064,0.323884,-0.389794,1,1.12076,10,-0.000126248,-3.40916,-2.59193,-0.0227629,0.324582,
2,0,0,1,0,305.949,0.320263,0.320153,-0.392241,1,1.12045,10,-0.000125577,-3.40645,-4.22261,-0.0139724,0.320855,
2,0,0,0,0,306.71,0.316462,0.316335,-0.394201,1,1.12015,10,-0.0001247,-3.40428,-0.48949,-0.120534,0.317041,
2,0,0,1,0,307.47,0.312661,0.312422,-0.400371,1,1.11984,10,-0.000125085,-3.39754,-1.50126,-0.0393004,0.313139,
2,0,0,1,0,308.23,0.30886,0.3087,-0.40284,1,1.11953,10,-0.000124357,-3.39487,-1.04915,-0.0562359,0.309421,
2,0,0,0,0,308.99,0.305059,0.304816,-0.40504,1,1.11921,10,-0.000123463,-3.3925,-3.35194,-0.0176018,0.305541,
2,0,0,1,0,309.751,0.301258,0.301027,-0.410712,1,1.11889,10,-0.000123636,-3.38646,-0.644372,-0.0915621,0.301762,
2,0,0,0,0,310.511,0.297456,0.297258,-0.415002,1,1.11857,10,-0.000123363,-3.38195,-2.22028,-0.0265732,0.298,
2,0,0,1,0,311.271,0.293655,0.293402,-0.420006,1,1.11825,10,-0.000123231,-3.37674,-0.559223,-0.105504,0.294154,
2,0,0,0,0,312.031,0.289854,0.289623,-0.422615,1,1.11792,10,-0.000122399,-3.37406,-0.60668,-0.0972506,0.290379,
2,0,0,1,0,312.791,0.286053,0.285805,-0.426678,1,1.11759,10,-0.000121947,-3.3699,-0.451647,-0.130633,0.286569,
2,0,0,0,0,313.552,0.282252,0.282083,-0.432921,1,1.11725,10,-0.00012212,-3.36359,-1.1051,-0.0533887,0.282858,
2,0,0,1,0,314.312,0.278451,0.278313,-0.434485,1,1.11691,10,-0.000120923,-3.36202,-0.350344,-0.168406,0.279091,
2,0,0,0,0,315.072,0.27465,0.274372,-0.440709,1,1.11657,10,-0.000120918,-3.35585,-0.610298,-0.096674,0.275161,
2,0,0,1,0,315.832,0.270849,0.270526,-0.446362,1,1.11623,10,-0.000120753,-3.35031,-0.568111,-0.103853,0.271325,
2,0,0,1,0,316.592,0.267048,0.266794,-0.450979,1,1.11588,10,-0.000120319,-3.34584,1.97841,0.029822,0.267601,
2,0,0,0,0,317.353,0.263247,0.263044,-0.456033,1,1.11552,10,-0.000119956,-3.341,-0.680076,-0.086755,0.26386,
2,0,0,1,0,318.113,0.259446,0.259245,-0.462445,1,1.11516,10,-0.000119887,-3.33494,-1.78706,-0.0330152,0.260073,
2,0,0,0,0,318.873,0.255644,0.255466,-0.466092,1,1.1148,10,-0.000119071,-3.33153,-0.580151,-0.101698,0.2563,
2,0,0,1,0,319.633,0.251843,0.251572,-0.474244,1,1.11444,10,-0.000119307,-3.324,-0.39038,-0.151135,0.252421,
2,0,0,0,0,320.394,0.248042,0.247745,-0.481545,1,1.11406,10,-0.0001193,-3.31736,-0.609858,-0.0967438,0.248607,
2,0,0,1,0,321.154,0.244241,0.244004,-0.49019,1,1.11369,10,-0.000119608,-3.30964,-0.698672,-0.0844459,0.244881,
2,0,0,0,0,321.914,0.24044,0.240167,-0.494214,1,1.1133,10,-0.000118694,-3.30608,-1.10571,-0.0533595,0.241052,
2,0,0,1,0,322.674,0.236639,0.236388,-0.504112,1,1.11291,10,-0.000119166,-3.29747,-0.375487,-0.157129,0.23729,
2,0,0,0,0,323.434,0.232838,0.23258,-0.516073,1,1.11252,10,-0.000120028,-3.28729,1.07444e+06,5.49123e-08,0.233504,
2,0,0,1,0,324.195,0.229037,0.228801,-0.522725,1,1.11211,10,-0.0001196,-3.28173,-0.588247,-0.100298,0.229737,
2,0,0,0,0,324.955,0.225236,0.225088,-0.533758,1,1.1117,10,-0.000120143,-3.27266,-0.290435,-0.203144,0.226044,
2,0,0,1,0,325.715,0.221435,0.221252,-0.548973,1,1.11128,10,-0.000121461,-3.26045,-0.463491,-0.127295,0.222235,
2,0,0,1,0,326.475,0.217634,0.217492,-0.562542,1,1.11085,10,-0.000122348,-3.24984,-0.29377,-0.200837,0.218499,
2,0,0,0,0,327.236,0.213833,0.213598,-0.578092,1,1.1104,10,-0.000123479,-3.238,-0.233393,-0.252793,0.214633,
2,0,0,1,0,327.996,0.210032,0.209819,-0.598705,1,1.10995,10,-0.000125619,-3.22279,-0.224221,-0.263134,0.21089,
2,0,0,0,0,328.756,0.20623,0.206001,-0.619843,1,1.10947,10,-0.000127688,-3.20772,-0.373078,-0.158144,0.207111,
2,0,0,1,0,329.516,0.202429,0.202174,-0.641488,1,1.10898,10,-0.000129692,-3.19281,-0.236109,-0.249885,0.203322,
2,0,0,0,0,330.276,0.198628,0.198404,-0.671641,1,1.10847,10,-0.000133256,-3.17286,-0.214209,-0.275432,0.199607,
2,0,0,1,0,331.037,0.194827,0.194568,-0.704144,1,1.10794,10,-0.000137004,-3.15234,-0.152139,-0.387804,0.195828,
2,0,0,0,0,331.797,0.191026,0.190684,-0.742987,1,1.10738,10,-0.000141675,-3.12902,-0.171037,-0.344955,0.192013,
2,0,0,1,0,332.557,0.187225,0.186981,-0.783492,1,1.10679,10,-0.000146498,-3.10597,-0.136217,-0.433131,0.188383,
2,0,0,0,0,333.317,0.183424,0.183249,-0.835082,1,1.10617,10,-0.000153028,-3.07827,-0.124408,-0.474247,0.184744,
2,0,0,1,0,334.077,0.179623,0.179355,-0.893921,1,1.1055,10,-0.000160329,-3.0487,-0.12147,-0.485716,0.180955,
2,0,0,1,0,334.838,0.175822,0.175595,-0.957065,1,1.10479,10,-0.000168056,-3.01906,-0.112485,-0.524512,0.177308,
2,0,0,0,0,335.598,0.172021,0.171825,-1.03879,1,1.10402,10,-0.00017849,-2.98347,-0.093812,-0.628918,0.173685,
2,0,0,1,0,336.358,0.16822,0.167893,-1.13049,1,1.10319,10,-0.000189802,-2.94673,-0.0929561,-0.634708,0.169917,
2,0,0,0,0,337.118,0.164419,0.1642,-1.23688,1,1.10228,10,-0.000203095,-2.90767,-0.0945753,-0.623842,0.166414,
2,0,0,1,0,337.879,0.160617,0.160392,-1.35625,1,1.10128,10,-0.000217532,-2.86766,-0.0860709,-0.685481,0.16282,
2,0,0,0,0,338.639,0.156816,0.156632,-1.48683,1,1.10019,10,-0.000232884,-2.82774,-0.094944,-0.621419,0.159293,
2,0,0,1,0,339.399,0.153015,0.152757,-1.62599,1,1.099,10,-0.000248381,-2.78888,-0.0885391,-0.666372,0.155668,
2,0,0,0,0,340.159,0.149214,0.14914,-1.75998,1,1.0977,10,-0.000262484,-2.75449,-0.112739,-0.523333,0.15229,
2,0,0,1,0,340.919,0.145413,0.145122,-1.8925,1,1.0963,10,-0.000274644,-2.72296,-0.137528,-0.429002,0.14851,
2,0,0,0,0,341.68,0.141612,0.14141,-2.01013,1,1.0948,10,-0.000284252,-2.69678,-0.16961,-0.347857,0.145008,
2,0,0,1,0,342.44,0.137811,0.137592,-2.10319,1,1.09323,10,-0.000289383,-2.67712,-0.221272,-0.26664,0.141357,
2,0,0,0,0,343.2,0.13401,0.133737,-2.1731,1,1.09159,10,-0.000290623,-2.66292,-0.355452,-0.165986,0.137626,
2,0,0,1,0,343.96,0.130209,0.129938,-2.20976,1,1.08991,10,-0.000287132,-2.65566,-2.24691,-0.0262583,0.133894,
2,0,0,1,0,344.721,0.126408,0.126187,-2.18972,1,1.08823,10,-0.000276315,-2.65961,0.313662,0.188101,0.130107,
2,0,0,0,0,345.481,0.122607,0.122456,-2.11554,1,1.08658,10,-0.000259061,-2.67458,0.189641,0.311114,0.126243,
2,0,0,1,0,346.241,0.118806,0.118543,-1.99051,1,1.08501,10,-0.000235961,-2.70104,0.131756,0.447798,0.122106,
2,0,0,0,0,347.001,0.115004,0.114888,-1.8265,1,1.08354,10,-0.000209842,-2.73838,0.093338,0.632111,0.118157,
2,0,0,1,0,347.761,0.111203,0.110984,-1.64044,1,1.08222,10,-0.000182063,-2.78504,0.0891339,0.661925,0.113921,
2,0,0,0,0,348.522,0.107402,0.107129,-1.46185,1,1.08103,10,-0.000156606,-2.8351,0.0883925,0.667478,0.109745,
2,0,0,1,0,349.282,0.103601,0.103464,-1.3079,1,1.07997,10,-0.000135321,-2.88343,0.0846491,0.696995,0.105805,
2,0,0,0,0,350.042,0.0998001,0.0995988,-1.18454,1,1.07902,10,-0.000117979,-2.92645,0.0944019,0.624987,0.101719,
2,0,0,1,0,350.802,0.0959991,0.0958386,-1.0968,1,1.07815,10,-0.000105115,-2.95987,0.123376,0.478211,0.0978019,
2,0,0,0,0,351.562,0.092198,0.0919544,-1.03195,1,1.07733,10,-9.48926e-05,-2.98634,0.158022,0.373365,0.0938016,
2,0,0,1,0,352.323,0.0883969,0.0881655,-0.984179,1,1.07656,10,-8.67707e-05,-3.00693,0.200706,0.293962,0.0899272,
2,0,0,1,0,353.083,0.0845958,0.0844721,-0.946755,1,1.07582,10,-7.99744e-05,-3.02376,0.284947,0.207056,0.0861668,
2,0,0,0,0,353.843,0.0807947,0.0806165,-0.923516,1,1.0751,10,-7.44506e-05,-3.03456,0.352751,0.167257,0.0822696,
2,0,0,1,0,354.603,0.0769937,0.076675,-0.899165,1,1.0744,10,-6.89435e-05,-3.04616,0.387903,0.1521,0.0782845,
2,0,0,0,0,355.364,0.0731926,0.0729243,-0.879727,1,1.07372,10,-6.41535e-05,-3.05565,0.726456,0.0812162,0.074499,
2,0,0,1,0,356.124,0.0693915,0.0691641,-0.866409,1,1.07305,10,-5.99244e-05,-3.06228,0.580735,0.101595,0.070715,
2,0,0,0,0,356.884,0.0655904,0.0653944,-0.85169,1,1.07239,10,-5.56957e-05,-3.06972,0.539461,0.109368,0.0669189,
2,0,0,1,0,357.644,0.0617893,0.0616246,-0.838171,1,1.07174,10,-5.1652e-05,-3.07667,0.511288,0.115395,0.0631249,
2,0,0,0,0,358.404,0.0579882,0.0576926,-0.830986,1,1.0711,10,-4.79418e-05,-3.08041,0.965903,0.0610827,0.0591801,
2,0,0,1,0,359.165,0.0541872,0.0540279,-0.822848,1,1.07046,10,-4.44567e-05,-3.08468,1.0471,0.056346,0.0555008,
2,0,0,0,0,359.925,0.0503861,0.0501436,-0.820096,1,1.06983,10,-4.11226e-05,-3.08614,2.82522,0.0208834,0.0516116,
2,0,0,1,0,360.685,0.046585,0.0463357,-0.814028,1,1.0692,10,-3.77185e-05,-3.08936,5.49363,0.0107397,0.0477928,
2,0,0,0,0,361.445,0.0427839,0.0426423,-0.813969,1,1.06857,10,-3.47095e-05,-3.08939,-26.2854,-0.00224459,0.0440993,
2,0,0,1,0,362.205,0.0389828,0.0387294,-0.814795,1,1.06795,10,-3.15565e-05,-3.08895,29.2759,0.00201531,0.0401879,
2,0,0,1,0,362.966,0.0351817,0.0349596,-0.813911,1,1.06732,10,-2.8454e-05,-3.08942,-0.823065,-0.0716833,0.0364165,
2,0,0,0,0,363.726,0.0313807,0.0311803,-0.818311,1,1.06669,10,-2.55152e-05,-3.08708,-1.19224,-0.0494866,0.0326451,
2,0,0,1,0,364.486,0.0275796,0.0272961,-0.823743,1,1.06606,10,-2.2485e-05,-3.08421,-1.05131,-0.0561206,0.0287706,
2,0,0,0,0,365.246,0.0237785,0.0235645,-0.82717,1,1.06542,10,-1.94919e-05,-3.08241,-2.68184,-0.0219998,0.0250451,
2,0,0,1,0,366.007,0.0199774,0.0197375,-0.833213,1,1.06478,10,-1.64455e-05,-3.07924,-1.48564,-0.0397134,0.021229,
2,0,0,0,0,366.767,0.0161763,0.0159582,-0.8371,1,1.06414,10,-1.33586e-05,-3.07722,-1.19243,-0.049479,0.0174566,
2,0,0,1,0,367.527,0.0123753,0.0121026,-0.844849,1,1.06349,10,-1.02248e-05,-3.07322,-0.817789,-0.0721458,0.0136149,
2,0,0,0,0,368.287,0.00857417,0.00833283,-0.853838,1,1.06283,10,-7.11489e-06,-3.06862,-0.689829,-0.0855285,0.0098612,
2,0,0,1,0,369.047,0.00477309,0.00453445,-0.864092,1,1.06217,10,-3.91818e-06,-3.06344,-0.114165,-0.516797,0.00608118,
2,0,0,0,0,369.808,0.000972007,0.000650181,-0.878864,1,1.0615,10,-5.71421e-07,-3.05608,-1.51103,-0.0390463,0.00222335,
2,0,0,1,0,369.968,0.000171779,-0.00016103,-0.879208,1,1.06135,10,1.41579e-07,-3.05591, , ,0.00141275,