File: Figure_codes/Fig_S3_S4/20221101_1-115_003_TrumpetPlot_ParaChange_from10_every3_12_CV_C01_16.csv
mode,ox/red,error,control changes,counter inc.,time/s,control/V,Ewe/V,<I>/mA,cycle number,(Q-Qo)/C,I Range,P/W,log(|I|),Tafel slope mV/dec,alpha_eff,dI/d(E-IR),E-IR/V,
2,1,0,1,0,32718.6,2.44065e-05,-0.000363498,17.3266,17,0.0000000E+000,10,-6.29819e-06,-1.76129, , , ,-0.000363498,
2,1,0,1,0,32718.6,0.00200257,0.00157599,18.3787,17,5.57881e-05,10,2.89646e-05,-1.73568, , , ,0.00157599,
2,1,0,1,0,32718.6,0.004408,0.00402234,19.2738,17,0.000131286,10,7.75259e-05,-1.71503, , , ,0.00402234,
2,1,0,1,0,32718.6,0.0068051,0.00646022,19.955,17,0.00020984,10,0.000128914,-1.69995,0.159392,0.370157,284.984,0.00646022,
2,1,0,1,0,32718.6,0.00920221,0.00878675,20.577,17,0.000290984,10,0.000180805,-1.68662,0.189002,0.312166,249.106,0.00878675,
2,1,0,1,0,32718.6,0.0115993,0.011267,21.1405,17,0.000374475,10,0.000238191,-1.67488,0.21181,0.278552,228.648,0.011267,
2,1,0,1,0,32718.6,0.0140075,0.0136307,21.6673,17,0.000460149,10,0.00029534,-1.6642,0.238497,0.247383,208.186,0.0136307,
2,1,0,1,0,32718.6,0.0164046,0.0160548,22.1488,17,0.000547836,10,0.000355594,-1.65465,0.258958,0.227836,196.203,0.0160548,
2,1,0,1,0,32718.6,0.0188017,0.0184121,22.5809,17,0.000637351,10,0.000415761,-1.64626,0.284921,0.207075,182.111,0.0184121,
2,1,0,1,0,32718.6,0.0212099,0.020834,23.0176,17,0.000728575,10,0.000479549,-1.63794,0.309064,0.190899,171.079,0.020834,
2,1,0,1,0,32718.6,0.023607,0.0232783,23.4242,17,0.000821502,10,0.000545276,-1.63033,0.32544,0.181293,165.32,0.0232783,
2,1,0,1,0,32718.7,0.0260041,0.0256886,23.797,17,0.000915974,10,0.00061131,-1.62348,0.351547,0.16783,155.613,0.0256886,
2,1,0,1,0,32718.7,0.0284012,0.0280162,24.1686,17,0.00101195,10,0.000677113,-1.61675,0.374381,0.157594,148.403,0.0280162,
2,1,0,1,0,32718.7,0.0308067,0.030453,24.5144,17,0.00110937,10,0.000746538,-1.61058,0.388996,0.151673,144.925,0.030453,
2,1,0,1,0,32718.7,0.0332038,0.0328707,24.8478,17,0.00120812,10,0.000816764,-1.60471,0.407996,0.144609,140.171,0.0328707,
2,1,0,1,0,32718.7,0.0356009,0.0352513,25.1828,17,0.00130822,10,0.000887728,-1.5989,0.423208,0.139411,136.924,0.0352513,
2,1,0,1,0,32718.7,0.0380091,0.0376383,25.5174,17,0.00140966,10,0.000960431,-1.59316,0.435359,0.13552,134.805,0.0376383,
2,1,0,1,0,32718.7,0.0404062,0.0400571,25.8295,17,0.00151239,10,0.00103465,-1.58788,0.454221,0.129893,130.811,0.0400571,
2,1,0,1,0,32718.7,0.0428033,0.0424515,26.1393,17,0.00161638,10,0.00110965,-1.58271,0.468312,0.125984,128.472,0.0424515,
2,1,0,1,0,32718.7,0.0452032,0.0448342,26.4364,17,0.00172155,10,0.00118525,-1.5778,0.476839,0.123732,127.661,0.0448342,
2,1,0,1,0,32718.7,0.0476058,0.0472413,26.7511,17,0.00182796,10,0.00126376,-1.57266,0.488458,0.120788,126.067,0.04724133,
2,1,0,1,0,32718.7,0.0500029,0.0496506,27.0542,17,0.00193562,10,0.00134326,-1.56777,0.485575,0.121505,128.269,0.0496506,
2,1,0,1,0,32718.7,0.0524,0.0521054,27.3564,17,0.00204447,10,0.00142541,-1.56294,0.502511,0.11741,125.328,0.0521054,
2,1,0,1,0,32718.7,0.0548082,0.0544712,27.6725,17,0.00215454,10,0.00150735,-1.55795,0.499809,0.118045,127.435,0.05447118,
2,1,0,1,0,32718.7,0.0572053,0.056891,27.9605,17,0.00226584,10,0.0015907,-1.55346,0.498097,0.118451,129.282,0.056891,
2,1,0,1,0,32718.7,0.0596024,0.0592536,28.2779,17,0.00237833,10,0.00167557,-1.54855,0.508327,0.116067,128.102,0.0592536,
2,1,0,1,0,32718.7,0.0620051,0.061612,28.5854,17,0.00249208,10,0.0017612,-1.54386,0.50269,0.117369,130.92,0.061612,
2,1,0,1,0,32718.7,0.0644077,0.0640286,28.8968,17,0.0026071,10,0.00185022,-1.53915,0.514001,0.114786,129.447,0.0640286,
2,1,0,1,0,32718.7,0.0668048,0.0664527,29.2123,17,0.00272334,10,0.00194124,-1.53443,0.51142,0.115365,131.531,0.0664527,
2,1,0,1,0,32718.7,0.0692019,0.0688736,29.5232,17,0.00284085,10,0.00203337,-1.52984,0.508616,0.116001,133.711,0.0688736,
2,1,0,1,0,32718.7,0.0716074,0.0712383,29.8516,17,0.00295963,10,0.00212658,-1.52503,0.515372,0.11448,133.359,0.0712383,
2,1,0,1,0,32718.7,0.0740045,0.0736486,30.1831,17,0.00307973,10,0.00222295,-1.52024,0.511185,0.115418,135.894,0.0736486,
2,1,0,1,0,32718.7,0.0764016,0.0760674,30.4945,17,0.00320111,10,0.00231964,-1.51578,0.51357,0.114882,136.756,0.0760674,
2,1,0,1,0,32718.7,0.0788042,0.0784491,30.8245,17,0.00332377,10,0.00241815,-1.5111,0.515998,0.114342,137.601,0.0784491,
2,1,0,1,0,32718.7,0.0812069,0.0808202,31.1619,17,0.00344779,10,0.00251851,-1.50638,0.510278,0.115623,140.618,0.0808202,
2,1,0,1,0,32718.7,0.083604,0.0832029,31.4978,17,0.00357312,10,0.00262071,-1.50172,0.507819,0.116183,142.835,0.0832029,
2,1,0,1,0,32718.8,0.0860011,0.0856376,31.8403,17,0.00369982,10,0.00272672,-1.49702,0.51388,0.114813,142.664,0.0856376,
2,1,0,1,0,32718.8,0.0884065,0.0879949,32.1879,17,0.00382793,10,0.00283237,-1.49231,0.511012,0.115457,145.045,0.0879949,
2,1,0,1,0,32718.8,0.0908036,0.0903818,32.526,17,0.00395739,10,0.00293976,-1.48777,0.510233,0.115633,146.845,0.0903818,
2,1,0,1,0,32718.8,0.0932007,0.0928123,32.8916,17,0.00408827,10,0.00305275,-1.48291,0.515414,0.114471,146.939,0.0928123,
2,1,0,1,0,32718.8,0.0956034,0.0952321,33.2492,17,0.00422059,10,0.00316639,-1.47822,0.515845,0.114375,148.352,0.0952321,
2,1,0,1,0,32718.8,0.098006,0.0976329,33.6041,17,0.00435434,10,0.00328087,-1.47361,0.534098,0.110467,144.784,0.0976329,
2,1,0,1,0,32718.8,0.100403,0.100009,33.9543,17,0.00448949,10,0.00339574,-1.46911,0.538322,0.1096,145.185,0.100009,
2,1,0,1,0,32718.8,0.1028,0.102437,34.2851,17,0.00462599,10,0.00351204,-1.4649,0.550843,0.107109,143.309,0.102437,
2,1,0,1,0,32718.8,0.105208,0.104853,34.646,17,0.0047639,10,0.00363274,-1.46035,0.554733,0.106358,143.774,0.104853,
2,1,0,1,0,32718.8,0.107606,0.107179,34.9721,17,0.00490316,10,0.00374827,-1.45628,0.532001,0.110902,151.507,0.107179,
2,1,0,1,0,32718.8,0.110003,0.109577,35.3299,17,0.00504376,10,0.00387136,-1.45186,0.535965,0.110082,151.944,0.109577,
2,1,0,1,0,32718.8,0.112408,0.112005,35.7347,17,0.00518593,10,0.00400245,-1.44691,0.521748,0.113081,157.665,0.1120046,
2,1,0,1,0,32718.8,0.114805,0.114415,36.0988,17,0.00532965,10,0.00413024,-1.44251,0.520024,0.113456,159.841,0.114415,
2,1,0,1,0,32718.8,0.117202,0.116804,36.4897,17,0.00547487,10,0.00426214,-1.43783,0.524897,0.112403,160.121,0.116804,
2,1,0,1,0,32718.8,0.119599,0.119269,36.8791,17,0.00562164,10,0.00439855,-1.43322,0.518054,0.113888,163.935,0.119269,
2,1,0,1,0,32718.8,0.122008,0.121647,37.2786,17,0.00577001,10,0.00453483,-1.42854,0.524008,0.112594,163.796,0.121647,
2,1,0,1,0,32718.8,0.124405,0.124056,37.6794,17,0.00591995,10,0.00467436,-1.4239,0.515157,0.114528,168.423,0.124056,
2,1,0,1,0,32718.8,0.126802,0.126469,38.0727,17,0.00607148,10,0.004815,-1.41939,0.513842,0.114821,170.706,0.126469,
2,1,0,1,0,32718.8,0.129207,0.128864,38.4951,17,0.00622462,10,0.00496063,-1.4146,0.507674,0.116216,174.683,0.128864,
2,1,0,1,0,32718.8,0.131604,0.131276,38.9224,17,0.0063795,10,0.0051096,-1.4098,0.494797,0.119241,181.181,0.131276,
2,1,0,1,0,32718.8,0.134001,0.133682,39.3609,17,0.00653614,10,0.00526187,-1.40493,0.489489,0.120534,185.23,0.133682,
2,1,0,1,0,32718.8,0.136399,0.136043,39.8074,17,0.00669453,10,0.00541552,-1.40004,0.489053,0.120641,187.445,0.136043,
2,1,0,1,0,32718.8,0.138807,0.138455,40.2717,17,0.00685475,10,0.00557583,-1.395,0.484568,0.121758,191.348,0.138455,
2,1,0,1,0,32718.8,0.141204,0.14084,40.7151,17,0.00701676,10,0.00573433,-1.39024,0.487146,0.121114,192.503,0.14084,
2,1,0,1,0,32718.8,0.143601,0.143239,41.1895,17,0.00718059,10,0.00589994,-1.38521,0.496064,0.118936,191.158,0.143239,
2,1,0,1,0,32718.9,0.146009,0.145668,41.6603,17,0.00734634,10,0.00606859,-1.38028,0.503696,0.117134,190.275,0.145668,
2,1,0,1,0,32718.9,0.148406,0.148058,42.1074,17,0.00751392,10,0.00623435,-1.37564,0.518147,0.113867,186.992,0.148058,
2,1,0,1,0,32718.9,0.150803,0.150455,42.5446,17,0.00768327,10,0.00640104,-1.37116,0.529384,0.11145,185.026,0.150455,
2,1,0,1,0,32718.9,0.153206,0.152814,42.9801,17,0.00785438,10,0.00656797,-1.36673,0.541722,0.108912,182.662,0.152814,
2,1,0,1,0,32718.9,0.155606,0.155232,43.4299,17,0.00802726,10,0.00674171,-1.36221,0.562956,0.104804,177.474,0.155232,
2,1,0,1,0,32718.9,0.158003,0.157615,43.853,17,0.00820186,10,0.00691187,-1.358,0.583042,0.101193,173.002,0.1576148,
2,1,0,1,0,32718.9,0.1604,0.160051,44.2475,17,0.0083781,10,0.00708184,-1.35411,0.620388,0.0951018,164.099,0.160051,
2,1,0,1,0,32718.9,0.162808,0.162425,44.6427,17,0.00855592,10,0.00725108,-1.35025,0.661772,0.0891546,155.174,0.162425,
2,1,0,1,0,32718.9,0.165205,0.164838,45.0063,17,0.00873525,10,0.00741875,-1.34673,0.68883,0.0856525,150.306,0.164838,
2,1,0,1,0,32718.9,0.167602,0.167267,45.3507,17,0.00891597,10,0.00758565,-1.34342,0.758282,0.0778075,137.568,0.167267,
2,1,0,1,0,32718.9,0.170008,0.169644,45.6895,17,0.00909809,10,0.00775095,-1.34018,0.829402,0.0711356,126.625,0.169644,
2,1,0,1,0,32718.9,0.172405,0.172078,45.9706,17,0.00928146,10,0.00791052,-1.33752,0.927434,0.0636164,113.943,0.172078,
2,1,0,1,0,32718.9,0.174802,0.174431,46.2209,17,0.00946589,10,0.00806234,-1.33516,1.08696,0.0542799,97.78,0.174431,
2,1,0,1,0,32718.9,0.177199,0.176843,46.4418,17,0.00965127,10,0.00821292,-1.33309,1.30019,0.0453778,82.1083,0.176843,
2,1,0,1,0,32718.9,0.179607,0.17926,46.6297,17,0.00983742,10,0.00835883,-1.33134,1.71023,0.0344983,62.6356,0.17926,
2,1,0,1,0,32718.9,0.182005,0.181684,46.7594,17,0.0100242,10,0.00849542,-1.33013,2.63074,0.0224271,40.8209,0.1816839,
2,1,0,1,0,32718.9,0.184402,0.184073,46.8248,17,0.0102114,10,0.00861919,-1.32952,6.89808,0.0085531,15.5899,0.184073,
2,1,0,1,0,32718.9,0.18681,0.186498,46.836,17,0.0103987,10,0.00873482,-1.32942,-9.80731,-0.00601592,-10.966,0.186498,
2,1,0,1,0,32718.9,0.189207,0.188825,46.7788,17,0.0105859,10,0.008833,-1.32995,-2.9991,-0.0196726,-35.8178,0.188825,
2,1,0,1,0,32718.9,0.191604,0.191254,46.6544,17,0.0107728,10,0.00892285,-1.33111,-1.74797,-0.0337534,-61.3085,0.191254,
2,1,0,1,0,32718.9,0.194001,0.193688,46.4805,17,0.0109591,10,0.00900269,-1.33273,-1.19044,-0.0495613,-89.6395,0.193688,
2,1,0,1,0,32718.9,0.196407,0.196087,46.2481,17,0.0111445,10,0.00906866,-1.33491,-0.907577,-0.0650083,-116.937,0.196087,
2,1,0,1,0,32718.9,0.198804,0.198498,45.9118,17,0.0113288,10,0.00911338,-1.33808,-0.731735,-0.0806303,-144.08,0.1984977,
2,1,0,1,0,32718.9,0.201201,0.200847,45.5327,17,0.0115117,10,0.00914509,-1.34168,-0.61075,-0.0966025,-171.235,0.200847,
2,1,0,1,0,32718.9,0.203609,0.203265,45.1005,17,0.0116929,10,0.00916737,-1.34582,-0.531759,-0.110952,-194.749,0.203265,
2,1,0,1,0,32719,0.206006,0.205708,44.6006,17,0.0118723,10,0.00917472,-1.35066,-0.467946,-0.126083,-218.818,0.205708,
2,1,0,1,0,32719,0.208403,0.208048,44.0519,17,0.0120495,10,0.0091649,-1.35604,-0.418125,-0.141106,-241.9,0.208048,
2,1,0,1,0,32719,0.210803,0.210487,43.4233,17,0.0122244,10,0.00914002,-1.36228,-0.37646,-0.156723,-264.989,0.210487,
2,1,0,1,0,32719,0.213206,0.212887,42.7729,17,0.0123968,10,0.00910582,-1.36883,-0.347839,-0.169619,-282.531,0.212887,
2,1,0,1,0,32719,0.215603,0.215249,42.0725,17,0.0125664,10,0.00905606,-1.376,-0.328158,-0.179791,-294.68,0.215249,
2,1,0,1,0,32719,0.218,0.217654,41.3378,17,0.0127332,10,0.00899734,-1.38365,-0.307676,-0.19176,-308.845,0.217654,
2,1,0,1,0,32719,0.220408,0.22006,40.6022,17,0.012897,10,0.00893492,-1.39145,-0.294335,-0.200452,-316.982,0.22006,
2,1,0,1,0,32719,0.222805,0.222514,39.7999,17,0.0130577,10,0.00885602,-1.40012,-0.28258,-0.20879,-323.932,0.222514,
2,1,0,1,0,32719,0.225202,0.224927,39.0046,17,0.0132152,10,0.0087732,-1.40888,-0.270632,-0.218008,-331.674,0.224927,
2,1,0,1,0,32719,0.227605,0.227307,38.211,17,0.0133695,10,0.00868561,-1.41781,-0.264118,-0.223385,-332.92,0.227307,
2,1,0,1,0,32719,0.230008,0.229692,37.4076,17,0.0135207,10,0.00859222,-1.42704,-0.259588,-0.227283,-331.688,0.2296917,
2,1,0,1,0,32719,0.232405,0.232067,36.6194,17,0.0136687,10,0.00849816,-1.43629,-0.25632,-0.230181,-328.9,0.232067,
2,1,0,1,0,32719,0.234802,0.234505,35.8279,17,0.0138135,10,0.00840181,-1.44578,-0.255872,-0.230584,-322.52,0.234505,
2,1,0,1,0,32719,0.237207,0.236889,35.0595,17,0.0139552,10,0.0083052,-1.45519,-0.256276,-0.230221,-315.237,0.236889,
2,1,0,1,0,32719,0.239604,0.239277,34.3163,17,0.0140938,10,0.00821108,-1.4645,-0.259087,-0.227723,-305.232,0.239277,
2,1,0,1,0,32719,0.242002,0.24166,33.5952,17,0.0142296,10,0.00811863,-1.47372,-0.262906,-0.224415,-294.49,0.24166,
2,1,0,1,0,32719,0.244404,0.244087,32.9032,17,0.0143625,10,0.00803123,-1.48276,-0.265689,-0.222064,-285.382,0.244087,
2,1,0,1,0,32719,0.246807,0.2465,32.229,17,0.0144927,10,0.00794446,-1.49175,-0.272309,-0.216665,-272.817,0.2465,
2,1,0,1,0,32719,0.249204,0.248863,31.5806,17,0.0146202,10,0.00785923,-1.50058,-0.278884,-0.211558,-261.163,0.248863,
2,1,0,1,0,32719,0.251601,0.251289,30.9684,17,0.0147452,10,0.00778202,-1.50908,-0.283984,-0.207758,-251.425,0.251289,
2,1,0,1,0,32719,0.254006,0.253698,30.393,17,0.0148679,10,0.00771065,-1.51723,-0.29541,-0.199723,-237.124,0.2536982,
2,1,0,1,0,32719,0.256404,0.256081,29.8201,17,0.0149883,10,0.00763637,-1.52549,-0.304015,-0.194069,-226.214,0.256081,
2,1,0,1,0,32719,0.258801,0.258516,29.2916,17,0.0151065,10,0.00757235,-1.53326,-0.312459,-0.188825,-216.231,0.258516,
2,1,0,1,0,32719,0.261203,0.260905,28.7932,17,0.0152226,10,0.00751227,-1.54071,-0.325913,-0.18103,-203.674,0.260905,
2,1,0,1,0,32719,0.263606,0.263302,28.3163,17,0.0153367,10,0.00745574,-1.54796,-0.334043,-0.176624,-195.414,0.263302,
2,1,0,1,0,32719.1,0.266003,0.265711,27.8589,17,0.015449,10,0.00740239,-1.55504,-0.345152,-0.170939,-186.086,0.2657105,
2,1,0,1,0,32719.1,0.2684,0.268055,27.4275,17,0.0155595,10,0.00735208,-1.56181,-0.359698,-0.164027,-175.816,0.268055,
2,1,0,1,0,32719.1,0.270808,0.270469,27.0135,17,0.0156684,10,0.0073063,-1.56842,-0.372595,-0.158349,-167.184,0.270469,
2,1,0,1,0,32719.1,0.273205,0.272888,26.6309,17,0.0157756,10,0.00726726,-1.57461,-0.395158,-0.149308,-155.405,0.272888,
2,1,0,1,0,32719.1,0.275603,0.275256,26.263,17,0.0158813,10,0.00722905,-1.58066,-0.407059,-0.144942,-148.725,0.275256,
2,1,0,1,0,32719.1,0.278008,0.277716,25.9261,17,0.0159857,10,0.0072001,-1.58626,-0.41896,-0.140825,-142.581,0.277716,
2,1,0,1,0,32719.1,0.280405,0.280083,25.5835,17,0.0160887,10,0.00716552,-1.59204,-0.439536,-0.134232,-134.17,0.280083,
2,1,0,1,0,32719.1,0.282802,0.282456,25.2667,17,0.0161903,10,0.00713674,-1.59745,-0.448299,-0.131609,-129.953,0.282456,
2,1,0,1,0,32719.1,0.285199,0.284888,24.9707,17,0.0162908,10,0.00711385,-1.60257,-0.475237,-0.124149,-121.127,0.284888,
2,1,0,1,0,32719.1,0.287608,0.287259,24.686,17,0.0163901,10,0.00709127,-1.60755,-0.497845,-0.118511,-114.296,0.287259,
2,1,0,1,0,32719.1,0.290005,0.289648,24.425,17,0.0164883,10,0.00707465,-1.61217,-0.509293,-0.115847,-110.484,0.289648,
2,1,0,1,0,32719.1,0.292402,0.292088,24.1658,17,0.0165854,10,0.00705855,-1.6168,-0.534945,-0.110292,-104.086,0.292088,
2,1,0,1,0,32719.1,0.294807,0.294477,23.9112,17,0.0166815,10,0.00704131,-1.6214,-0.552447,-0.106798,-99.8191,0.294477,
2,1,0,1,0,32719.1,0.297204,0.296883,23.6842,17,0.0167767,10,0.00703146,-1.62554,-0.562899,-0.104815,-97.3237,0.296883,
2,1,0,1,0,32719.1,0.299421,0.299121,23.4794,17,0.0168639,10,0.00702318,-1.62931,-0.101238,-0.582786,-516.447,0.299121,
2,1,0,0,0,32719.1,0.300012,0.299727,23.4223,17,0.0168874,10,0.00702032,-1.63037,0.00200677,29.4005,23269.3,0.299727,
2,1,0,1,0,32719.1,0.299243,0.299062,21.5432,17,0.0169159,10,0.00644277,-1.66669,0.0220162,2.67984,1917.36,0.2990624,
2,1,0,1,0,32719.1,0.296846,0.296605,17.2184,17,0.0169925,10,0.00510707,-1.76401,0.0251987,2.34139,1521.55,0.296605,
2,1,0,1,0,32719.1,0.294449,0.294177,13.9997,17,0.0170544,10,0.00411838,-1.85388,0.0257568,2.29066,1287.75,0.294177,
2,1,0,1,0,32719.1,0.292041,0.291781,11.3309,17,0.0171047,10,0.00330614,-1.94574,0.0248811,2.37128,1054.29,0.291781,
2,1,0,1,0,32719.1,0.289644,0.289361,9.04996,17,0.0171451,10,0.0026187,-2.04335,0.022735,2.59512,905.726,0.289361,
2,1,0,1,0,32719.1,0.287247,0.286967,7.05717,17,0.0171771,10,0.00202518,-2.15137,0.0198263,2.97585,792.123,0.286967,
2,1,0,1,0,32719.1,0.284841,0.284551,5.28083,17,0.0172015,10,0.00150267,-2.2773,0.0161129,3.66167,703.982,0.284551,
2,1,0,1,0,32719.1,0.282444,0.282151,3.70312,17,0.0172193,10,0.00104484,-2.43143,0.0114332,5.16043,628.04,0.282151,
2,1,0,1,0,32719.1,0.280047,0.27977,2.29852,17,0.0172311,10,0.000643057,-2.63855,0.00612144,9.63826,564.071,0.2797704,
2,1,0,1,0,32719.1,0.27765,0.277351,1.01741,17,0.0172376,10,0.000282178,-2.99251,0.0194074,3.04008,510.323,0.2773506,
2,1,0,1,0,32719.1,0.275242,0.274937,-0.141973,17,0.0172391,10,-3.90336e-05,-3.84779,0.367258,0.16065,462.358,0.274937,
2,0,0,1,0,32719.2,0.272845,0.272567,-1.18779,17,0.0172364,10,-0.000323751,-2.92526,-0.0201131,-2.93341,424.036,0.272567,
2,0,0,1,0,32719.2,0.270448,0.27012,-2.16356,17,0.0172296,10,-0.000584421,-2.66483,-0.00670126,-8.80431,386.429,0.2701197,
2,0,0,1,0,32719.2,0.268039,0.267749,-3.05419,17,0.017219,10,-0.000817754,-2.5151,-0.0163689,-3.6044,354.316,0.267749,
2,0,0,1,0,32719.2,0.265642,0.265329,-3.85491,17,0.0172051,10,-0.00102282,-2.41399,-0.0247216,-2.38658,325.588,0.265329,
2,0,0,1,0,32719.2,0.263245,0.262948,-4.59593,17,0.0171881,10,-0.00120849,-2.33763,-0.0331679,-1.77883,301.024,0.262948,
2,0,0,1,0,32719.2,0.260843,0.260527,-5.28676,17,0.0171683,10,-0.00137735,-2.27681,-0.0418737,-1.409,279.301,0.260527,
2,0,0,1,0,32719.2,0.258443,0.25818,-5.9347,17,0.0171458,10,-0.00153222,-2.2266,-0.051089,-1.15485,259.183,0.25818,
2,0,0,1,0,32719.2,0.256046,0.255719,-6.53883,17,0.0171207,10,-0.0016721,-2.1845,-0.0606122,-0.973402,242.271,0.255719,
2,0,0,1,0,32719.2,0.253649,0.253347,-7.08433,17,0.0170934,10,-0.0017948,-2.1497,-0.0717185,-0.822661,223.398,0.253347,
2,0,0,1,0,32719.2,0.25124,0.250943,-7.60867,17,0.0170639,10,-0.00190934,-2.11869,-0.0820833,-0.718782,210.348,0.2509433,
2,0,0,1,0,32719.2,0.248843,0.248518,-8.09304,17,0.0170325,10,-0.00201127,-2.09189,-0.0931082,-0.633671,197.852,0.248518,
2,0,0,1,0,32719.2,0.246446,0.246168,-8.54788,17,0.0169992,10,-0.00210422,-2.06814,-0.105377,-0.559896,185.032,0.246168,
2,0,0,1,0,32719.2,0.244041,0.243704,-8.99229,17,0.0169641,10,-0.00219145,-2.04613,-0.117042,-0.504095,175.155,0.243704,
2,0,0,1,0,32719.2,0.241644,0.241319,-9.38945,17,0.0169272,10,-0.00226585,-2.02736,-0.130067,-0.453612,164.931,0.241319,
2,0,0,1,0,32719.2,0.239247,0.238968,-9.76577,17,0.0168889,10,-0.00233371,-2.01029,-0.143621,-0.410804,155.871,0.238968,
2,0,0,1,0,32719.2,0.236849,0.236576,-10.13,17,0.016849,10,-0.00239651,-1.99439,-0.155708,-0.378913,149.199,0.236576,
2,0,0,1,0,32719.2,0.234441,0.23409,-10.4908,17,0.0168078,10,-0.00245579,-1.97919,-0.16973,-0.34761,141.558,0.23409,
2,0,0,1,0,32719.2,0.232044,0.23171,-10.8232,17,0.0167651,10,-0.00250783,-1.96565,-0.183409,-0.321685,135.188,0.23171,
2,0,0,1,0,32719.2,0.229647,0.229307,-11.1334,17,0.0167211,10,-0.00255297,-1.95337,-0.199329,-0.295994,128.149,0.229307,
2,0,0,1,0,32719.2,0.227239,0.226939,-11.4328,17,0.016676,10,-0.00259454,-1.94185,-0.215578,-0.273683,121.707,0.226939,
2,0,0,1,0,32719.2,0.224842,0.224506,-11.719,17,0.0166297,10,-0.00263098,-1.93111,-0.22918,-0.257439,117.433,0.224506,
2,0,0,1,0,32719.2,0.222445,0.222154,-11.9861,17,0.0165822,10,-0.00266277,-1.92132,-0.241609,-0.244196,114.122,0.222154,
2,0,0,1,0,32719.2,0.220047,0.219702,-12.2614,17,0.0165337,10,-0.00269385,-1.91146,-0.258909,-0.227879,108.794,0.2197016,
2,0,0,1,0,32719.2,0.217642,0.217293,-12.5335,17,0.016484,10,-0.00272345,-1.90193,-0.271777,-0.21709,105.811,0.217293,
2,0,0,1,0,32719.2,0.215245,0.214919,-12.762,17,0.0164334,10,-0.00274279,-1.89408,-0.283758,-0.207923,103.462,0.214919,
2,0,0,1,0,32719.3,0.212848,0.212517,-13.0058,17,0.0163819,10,-0.00276396,-1.88586,-0.303319,-0.194515,98.6847,0.212517,
2,0,0,1,0,32719.3,0.21044,0.210129,-13.2518,17,0.0163293,10,-0.00278458,-1.87773,-0.310989,-0.189717,97.9421,0.210129,
2,0,0,1,0,32719.3,0.208042,0.20773,-13.4773,17,0.0162759,10,-0.00279964,-1.8704,-0.327694,-0.180046,94.5487,0.20773,
2,0,0,1,0,32719.3,0.205645,0.205285,-13.7055,17,0.0162215,10,-0.00281354,-1.8631,-0.346414,-0.170316,90.9446,0.205285,
2,0,0,1,0,32719.3,0.203246,0.202891,-13.916,17,0.0161662,10,-0.00282343,-1.85649,-0.357018,-0.165258,89.667,0.202891,
2,0,0,1,0,32719.3,0.200843,0.200561,-14.1219,17,0.0161101,10,-0.00283231,-1.85011,-0.375082,-0.157299,86.6504,0.200561,
2,0,0,1,0,32719.3,0.198446,0.198137,-14.3375,17,0.0160532,10,-0.00284078,-1.84353,-0.372821,-0.158253,88.5381,0.198137,
2,0,0,1,0,32719.3,0.196049,0.195741,-14.5326,17,0.0159954,10,-0.00284462,-1.83766,-0.387607,-0.152216,86.3454,0.195741,
2,0,0,1,0,32719.3,0.19364,0.193319,-14.7635,17,0.0159368,10,-0.00285406,-1.83081,-0.405495,-0.145501,83.6786,0.193319,
2,0,0,1,0,32719.3,0.191243,0.190901,-14.956,17,0.0158773,10,-0.00285512,-1.82518,-0.40217,-0.146704,85.5425,0.190901,
2,0,0,1,0,32719.3,0.188846,0.18852,-15.1422,17,0.0158171,10,-0.00285461,-1.81981,-0.425589,-0.138631,81.9948,0.18852,
2,0,0,1,0,32719.3,0.186444,0.186106,-15.3568,17,0.0157561,10,-0.00285798,-1.8137,-0.423418,-0.139342,83.4844,0.186106,
2,0,0,1,0,32719.3,0.184041,0.183681,-15.5538,17,0.0156943,10,-0.00285693,-1.80816,-0.423167,-0.139425,84.5807,0.183681,
2,0,0,1,0,32719.3,0.181644,0.181337,-15.7545,17,0.0156316,10,-0.00285687,-1.8026,-0.429689,-0.137309,84.4344,0.181337,
2,0,0,1,0,32719.3,0.179247,0.178932,-15.9532,17,0.0155682,10,-0.00285453,-1.79715,-0.425688,-0.138599,86.3469,0.178932,
2,0,0,1,0,32719.3,0.176841,0.176558,-16.1629,17,0.0155039,10,-0.0028537,-1.79148,-0.429377,-0.137408,86.6999,0.176558,
2,0,0,1,0,32719.3,0.174444,0.174113,-16.3799,17,0.0154389,10,-0.00285195,-1.78569,-0.421518,-0.13997,89.4675,0.1741126,
2,0,0,1,0,32719.3,0.172047,0.171728,-16.5876,17,0.0153729,10,-0.00284855,-1.78022,-0.41902,-0.140805,91.2053,0.171728,
2,0,0,1,0,32719.3,0.169644,0.169347,-16.8107,17,0.0153061,10,-0.00284685,-1.77441,-0.418446,-0.140998,92.5572,0.169347,
2,0,0,1,0,32719.3,0.167242,0.166947,-17.0395,17,0.0152384,10,-0.0028447,-1.76854,-0.406197,-0.14525,96.6314,0.166947,
2,0,0,1,0,32719.3,0.164845,0.164513,-17.2685,17,0.0151697,10,-0.00284088,-1.76275,-0.388891,-0.151714,102.42,0.164513,
2,0,0,1,0,32719.3,0.162448,0.16214,-17.5141,17,0.0151001,10,-0.00283973,-1.75661,-0.381798,-0.154532,105.804,0.16214,
2,0,0,1,0,32719.3,0.160042,0.15974,-17.7947,17,0.0150295,10,-0.00284252,-1.74971,-0.365987,-0.161208,112.006,0.15974,
2,0,0,1,0,32719.3,0.157645,0.157323,-18.0578,17,0.0149577,10,-0.0028409,-1.74334,-0.348213,-0.169437,119.582,0.157323,
2,0,0,1,0,32719.3,0.155248,0.154872,-18.3483,17,0.0148849,10,-0.00284164,-1.7364,-0.338557,-0.174269,125.075,0.154872,
2,0,0,1,0,32719.4,0.152845,0.152506,-18.6662,17,0.0148108,10,-0.0028467,-1.72895,-0.315595,-0.186948,136.46,0.152506,
2,0,0,1,0,32719.4,0.150443,0.150112,-18.9988,17,0.0147355,10,-0.00285196,-1.72127,-0.300006,-0.196663,146.127,0.150112,
2,0,0,1,0,32719.4,0.148046,0.14775,-19.3641,17,0.0146587,10,-0.00286105,-1.713,-0.285356,-0.206759,156.603,0.14775,
2,0,0,1,0,32719.4,0.145648,0.145301,-19.7468,17,0.0145805,10,-0.00286924,-1.7045,-0.269502,-0.218923,169.163,0.145301,
2,0,0,1,0,32719.4,0.14324,0.142913,-20.1684,17,0.0145006,10,-0.00288233,-1.69533,-0.257345,-0.229264,180.926,0.142913,
2,0,0,1,0,32719.4,0.140843,0.140517,-20.6221,17,0.014419,10,-0.00289775,-1.68567,-0.238181,-0.247711,200.01,0.1405168,
2,0,0,1,0,32719.4,0.138446,0.13814,-21.1027,17,0.0143355,10,-0.00291514,-1.67566,-0.228344,-0.258383,213.556,0.13814,
2,0,0,1,0,32719.4,0.136041,0.13573,-21.6612,17,0.01425,10,-0.00294007,-1.66432,-0.218784,-0.269673,228.404,0.13573,
2,0,0,1,0,32719.4,0.133644,0.133303,-22.2207,17,0.0141621,10,-0.00296209,-1.65324,-0.205704,-0.28682,249.357,0.133303,
2,0,0,1,0,32719.4,0.131246,0.130897,-22.8193,17,0.014072,10,-0.00298697,-1.6417,-0.198574,-0.297118,265.687,0.130897,
2,0,0,1,0,32719.4,0.128849,0.128554,-23.4931,17,0.0139794,10,-0.00302014,-1.62906,-0.189217,-0.311812,286.737,0.128554,
2,0,0,1,0,32719.4,0.126441,0.12613,-24.2117,17,0.0138839,10,-0.00305383,-1.61597,-0.183232,-0.321996,304.714,0.12613,
2,0,0,1,0,32719.4,0.124044,0.123757,-24.9579,17,0.0137855,10,-0.00308871,-1.60279,-0.182762,-0.322824,314.675,0.123757,
2,0,0,1,0,32719.4,0.121647,0.121327,-25.7355,17,0.013684,10,-0.0031224,-1.58947,-0.180608,-0.326675,328.291,0.121327,
2,0,0,1,0,32719.4,0.119241,0.118931,-26.5213,17,0.0135794,10,-0.0031542,-1.57641,-0.183376,-0.321743,333.2,0.118931,
2,0,0,1,0,32719.4,0.116844,0.116563,-27.3525,17,0.0134716,10,-0.00318829,-1.563,-0.184989,-0.318937,340.259,0.116563,
2,0,0,1,0,32719.4,0.114447,0.11409,-28.1788,17,0.0133605,10,-0.00321493,-1.55008,-0.185282,-0.318433,349.98,0.11409,
2,0,0,1,0,32719.4,0.11205,0.111726,-29.0023,17,0.0132461,10,-0.0032403,-1.53757,-0.1934,-0.305067,345.105,0.111726,
2,0,0,1,0,32719.4,0.109642,0.109366,-29.8688,17,0.0131282,10,-0.00326664,-1.52478,-0.19681,-0.299782,348.771,0.109366,
2,0,0,1,0,32719.4,0.107245,0.10691,-30.6837,17,0.013007,10,-0.00328041,-1.51309,-0.204947,-0.287879,343.878,0.1069104,
2,0,0,1,0,32719.4,0.104848,0.104555,-31.5044,17,0.0128826,10,-0.00329395,-1.50163,-0.216086,-0.273039,335.031,0.104555,
2,0,0,1,0,32719.4,0.10244,0.102219,-32.2714,17,0.0127549,10,-0.00329875,-1.49118,-0.221012,-0.266954,336.072,0.102219,
2,0,0,1,0,32719.4,0.100042,0.0998184,-33.0676,17,0.0126242,10,-0.00330076,-1.4806,-0.230814,-0.255617,329.773,0.0998184,
2,0,0,1,0,32719.4,0.0976454,0.0973869,-33.8843,17,0.0124902,10,-0.00329989,-1.47,-0.240872,-0.244944,323.116,0.0973869,
2,0,0,1,0,32719.4,0.0952427,0.0949872,-34.6597,17,0.012353,10,-0.00329222,-1.46018,-0.252618,-0.233554,315.071,0.0949872,
2,0,0,1,0,32719.5,0.0928428,0.0926045,-35.378,17,0.0122129,10,-0.00327616,-1.45127,-0.269782,-0.218695,301.455,0.0926045,
2,0,0,1,0,32719.5,0.0904457,0.0901613,-36.1103,17,0.0120698,10,-0.00325575,-1.44237,-0.283079,-0.208422,293.196,0.0901613,
2,0,0,1,0,32719.5,0.0880486,0.0877298,-36.7955,17,0.0119239,10,-0.00322806,-1.43421,-0.301237,-0.195859,280.6,0.0877298,
2,0,0,1,0,32719.5,0.0856404,0.0854096,-37.4678,17,0.0117753,10,-0.00320011,-1.42634,-0.325893,-0.181041,264.006,0.0854096,
2,0,0,1,0,32719.5,0.0832433,0.0829961,-38.0741,17,0.0116242,10,-0.00316001,-1.41937,-0.345574,-0.17073,253.168,0.0829961,
2,0,0,1,0,32719.5,0.0808462,0.0805423,-38.6497,17,0.0114707,10,-0.00311294,-1.41285,-0.376101,-0.156873,236.291,0.0805423,
2,0,0,1,0,32719.5,0.0784408,0.0781458,-39.2219,17,0.0113149,10,-0.00306502,-1.40647,-0.402729,-0.146501,223.797,0.0781458,
2,0,0,1,0,32719.5,0.0760437,0.0757705,-39.7454,17,0.0111569,10,-0.00301153,-1.40071,-0.430559,-0.137031,212.062,0.0757705,
2,0,0,1,0,32719.5,0.0736466,0.0733581,-40.2311,17,0.0109969,10,-0.00295128,-1.39544,-0.470093,-0.125507,196.686,0.0733581,
2,0,0,1,0,32719.5,0.0712495,0.0709955,-40.6743,17,0.010835,10,-0.00288769,-1.39068,-0.513781,-0.114835,182.017,0.0709955,
2,0,0,1,0,32719.5,0.0688413,0.0685809,-41.1031,17,0.0106714,10,-0.00281889,-1.38613,-0.562174,-0.10495,168.062,0.0685809,
2,0,0,1,0,32719.5,0.0664442,0.06616,-41.4947,17,0.0105062,10,-0.00274529,-1.38201,-0.619782,-0.0951947,153.844,0.06616,
2,0,0,1,0,32719.5,0.0640471,0.0637614,-41.8439,17,0.0103394,10,-0.00266803,-1.37837,-0.710194,-0.0830758,135.372,0.0637614,
2,0,0,1,0,32719.5,0.0616389,0.0613755,-42.1542,17,0.0101714,10,-0.00258724,-1.37516,-0.823312,-0.0716618,117.634,0.0613755,
2,0,0,1,0,32719.5,0.0592417,0.058927,-42.41,17,0.0100023,10,-0.00249909,-1.37253,-0.948452,-0.0622066,102.779,0.058927,
2,0,0,1,0,32719.5,0.0568446,0.0564838,-42.6329,17,0.00983217,10,-0.00240807,-1.37025,-1.09647,-0.0538091,89.4255,0.0564838,
2,0,0,1,0,32719.5,0.0544475,0.0541615,-42.8306,17,0.00966124,10,-0.00231977,-1.36825,-1.28849,-0.04579,76.4428,0.0541615,
2,0,0,1,0,32719.5,0.0520421,0.0517417,-43.0158,17,0.0094895,10,-0.00222571,-1.36637,-1.51531,-0.0389358,65.2559,0.0517417,
2,0,0,1,0,32719.5,0.049645,0.0493197,-43.1444,17,0.00931714,10,-0.00212787,-1.36508,-1.79022,-0.0329569,55.4333,0.0493197,
2,0,0,1,0,32719.5,0.0472479,0.0469137,-43.2574,17,0.00914431,10,-0.00202937,-1.36394,-2.31506,-0.0254853,42.9887,0.0469137,
2,0,0,1,0,32719.5,0.0448397,0.0444821,-43.3672,17,0.00897106,10,-0.00192906,-1.36284,-2.77821,-0.0212367,35.9009,0.0444821,
2,0,0,1,0,32719.5,0.0424426,0.0421461,-43.4283,17,0.00879747,10,-0.00183033,-1.36223,-3.60394,-0.016371,27.7223,0.0421461,
2,0,0,1,0,32719.5,0.0400455,0.0397135,-43.4893,17,0.00862364,10,-0.00172711,-1.36162,-5.81588,-0.0101446,17.2022,0.0397135,
2,0,0,1,0,32719.5,0.0376456,0.0373286,-43.5232,17,0.00844961,10,-0.00162466,-1.36128,-9.25635,-0.006374,10.816,0.0373286,
2,0,0,1,0,32719.5,0.035243,0.0349162,-43.5317,17,0.00827549,10,-0.00151996,-1.36119,-43.6864,-0.00135054,2.29278,0.0349162,
2,0,0,1,0,32719.6,0.0328459,0.0325186,-43.5324,17,0.00810136,10,-0.00141561,-1.36119,87.1669,0.000676862,-1.14955,0.0325186,
2,0,0,1,0,32719.6,0.0304488,0.0301433,-43.5112,17,0.00792725,10,-0.00131157,-1.3614,17.4525,0.00338061,-5.73971,0.0301433,
2,0,0,1,0,32719.6,0.0280406,0.0277086,-43.5121,17,0.00775322,10,-0.00120566,-1.36139,8.07249,0.00730877,-12.4002,0.0277086,
2,0,0,1,0,32719.6,0.0256435,0.0253492,-43.4768,17,0.00757925,10,-0.0011021,-1.36174,6.22771,0.00947379,-16.0589,0.0253492,
2,0,0,1,0,32719.6,0.0232464,0.0229612,-43.4139,17,0.0074055,10,-0.000996835,-1.36237,4.38103,0.0134672,-22.8114,0.0229612,
2,0,0,1,0,32719.6,0.0208437,0.0205254,-43.3568,17,0.00723197,10,-0.000889917,-1.36294,3.53615,0.0166848,-28.2215,0.0205254,
2,0,0,1,0,32719.6,0.018441,0.0180939,-43.2928,17,0.00705868,10,-0.000783337,-1.36358,3.36861,0.0175147,-29.5775,0.0180939,
2,0,0,1,0,32719.6,0.0160439,0.0157059,-43.2047,17,0.00688569,10,-0.000678568,-1.36447,2.80635,0.0210237,-35.4335,0.0157059,
2,0,0,1,0,32719.6,0.0136468,0.0133073,-43.1283,17,0.00671304,10,-0.00057392,-1.36524,2.43588,0.0242212,-40.7388,0.0133073,
2,0,0,1,0,32719.6,0.0112414,0.0108864,-43.0152,17,0.00654075,10,-0.000468279,-1.36638,2.24014,0.0263376,-44.1904,0.0108864,
2,0,0,1,0,32719.6,0.00884431,0.00850786,-42.9023,17,0.00636893,10,-0.000365006,-1.36752,1.96306,0.0300552,-50.3048,0.00850786,
2,0,0,1,0,32719.6,0.0064472,0.00609862,-42.7801,17,0.00619759,10,-0.0002609,-1.36876,2.07642,0.0284143,-47.4468,0.00609862,
2,0,0,1,0,32719.6,0.00404455,0.00373391,-42.6467,17,0.00602676,10,-0.000159239,-1.37011,1.75728,0.0335746,-55.8615,0.00373391,
2,0,0,1,0,32719.6,0.0016419,0.00125998,-42.5585,17,0.00585642,10,-5.3623e-05,-1.37101,1.55213,0.0380122,-63.0132,0.00125998,
2,0,0,1,0,32719.6,-0.000755208,-0.00113653,-42.3635,17,0.00568661,10,4.81476e-05,-1.37301,1.44513,0.0408268,-67.4295,-0.001136535,
2,0,0,1,0,32719.6,-0.00315231,-0.00352457,-42.1737,17,0.00551756,10,0.000148644,-1.37496,1.18658,0.0497227,-81.8221,-0.00352457,
2,0,0,1,0,32719.6,-0.00555774,-0.00594548,-41.9941,17,0.00534925,10,0.000249675,-1.37681,1.15126,0.0512484,-83.9236,-0.00594548,
2,0,0,1,0,32719.6,-0.00795485,-0.00832715,-41.774,17,0.00518171,10,0.000347859,-1.37909,1.08933,0.0541617,-88.244,-0.00832715,
2,0,0,1,0,32719.6,-0.010352,-0.010711,-41.56,17,0.00501506,10,0.000445147,-1.38132,0.997131,0.0591698,-95.907,-0.010711,
2,0,0,1,0,32719.6,-0.0127546,-0.0131552,-41.3239,17,0.00484932,10,0.000543623,-1.3838,0.96033,0.0614372,-99.0235,-0.0131552,
2,0,0,1,0,32719.6,-0.0151573,-0.0155379,-41.0741,17,0.00468453,10,0.000638206,-1.38643,0.915765,0.064427,-103.244,-0.0155379,
2,0,0,1,0,32719.6,-0.0175544,-0.0178782,-40.8283,17,0.00452077,10,0.000729938,-1.38904,0.894061,0.065991,-105.118,-0.0178782,
2,0,0,1,0,32719.6,-0.0199515,-0.0203278,-40.5671,17,0.00435799,10,0.000824639,-1.39183,0.862629,0.0683956,-108.24,-0.02032778,
2,0,0,1,0,32719.6,-0.0223597,-0.0227784,-40.3123,17,0.00419626,10,0.000918249,-1.39456,0.826054,0.0714239,-112.294,-0.0227784,
2,0,0,1,0,32719.6,-0.0247568,-0.0251685,-40.0317,17,0.0040356,10,0.00100754,-1.3976,0.8302,0.0710672,-111.028,-0.0251685,
2,0,0,1,0,32719.7,-0.0271539,-0.0275004,-39.7478,17,0.00387606,10,0.00109308,-1.40069,0.809421,0.0728916,-113.131,-0.0275004,
2,0,0,1,0,32719.7,-0.0295593,-0.0299404,-39.4998,17,0.0037176,10,0.00118264,-1.4034,0.817773,0.0721472,-111.211,-0.0299404,
2,0,0,1,0,32719.7,-0.0319564,-0.0323475,-39.2297,17,0.00356015,10,0.00126898,-1.40638,0.833305,0.0708024,-108.389,-0.0323475,
2,0,0,1,0,32719.7,-0.0343535,-0.0347408,-38.9671,17,0.00340379,10,0.00135375,-1.4093,0.826707,0.0713675,-108.563,-0.0347408,
2,0,0,1,0,32719.7,-0.0367506,-0.0370875,-38.7086,17,0.00324849,10,0.00143561,-1.41219,0.853428,0.0691329,-104.482,-0.0370875,
2,0,0,1,0,32719.7,-0.0391588,-0.0395137,-38.4605,17,0.00309415,10,0.00151972,-1.41498,0.888591,0.0663972,-99.7214,-0.0395137,
2,0,0,1,0,32719.7,-0.0415559,-0.0419643,-38.2249,17,0.00294083,10,0.00160408,-1.41765,0.924896,0.0637909,-95.2187,-0.0419643,
2,0,0,1,0,32719.7,-0.043953,-0.0444001,-38.0039,17,0.0027884,10,0.00168738,-1.42017,0.960894,0.0614011,-91.1068,-0.0444001,
2,0,0,1,0,32719.7,-0.0463585,-0.0467404,-37.7895,17,0.00263684,10,0.0017663,-1.42263,0.998318,0.0590994,-87.1996,-0.0467404,
2,0,0,1,0,32719.7,-0.0487556,-0.0491496,-37.5826,17,0.00248611,10,0.00184717,-1.42501,1.04748,0.0563257,-82.6716,-0.04914964,
2,0,0,1,0,32719.7,-0.0511527,-0.0515239,-37.3914,17,0.00233618,10,0.00192655,-1.42723,1.14938,0.0513321,-74.9835,-0.0515239,
2,0,0,1,0,32719.7,-0.0535498,-0.053931,-37.216,17,0.00218699,10,0.00200709,-1.42927,1.26841,0.0465149,-67.6327,-0.053931,
2,0,0,1,0,32719.7,-0.055958,-0.0563127,-37.0717,17,0.00203841,10,0.00208761,-1.43096,1.35104,0.0436702,-63.2073,-0.0563127,
2,0,0,1,0,32719.7,-0.0583551,-0.0587675,-36.9321,17,0.00189041,10,0.00217041,-1.4326,1.54963,0.0380735,-54.9054,-0.0587675,
2,0,0,1,0,32719.7,-0.0607522,-0.0611365,-36.7838,17,0.00174302,10,0.00224883,-1.43434,1.65546,0.0356397,-51.2207,-0.0611365,
2,0,0,1,0,32719.7,-0.0631604,-0.063551,-36.6878,17,0.00159608,10,0.00233155,-1.43548,1.82556,0.0323188,-46.3046,-0.063551,
2,0,0,1,0,32719.7,-0.0655575,-0.0659073,-36.5803,17,0.00144957,10,0.00241091,-1.43675,2.31513,0.0254845,-36.411,-0.0659073,
2,0,0,1,0,32719.7,-0.0679546,-0.0682667,-36.4923,17,0.00130345,10,0.00249121,-1.4378,2.4065,0.0245169,-34.9433,-0.06826666,
2,0,0,1,0,32719.7,-0.0703573,-0.0707003,-36.4355,17,0.00115763,10,0.002576,-1.43847,3.02101,0.0195299,-27.7793,-0.0707003,
2,0,0,1,0,32719.7,-0.0727571,-0.073117,-36.3535,17,0.00101206,10,0.00265806,-1.43945,3.79132,0.0155619,-22.0983,-0.073117,
2,0,0,1,0,32719.7,-0.0751542,-0.0755082,-36.3136,17,0.000866739,10,0.00274197,-1.43993,4.97875,0.0118504,-16.8132,-0.0755082,
2,0,0,1,0,32719.7,-0.0775514,-0.0778846,-36.2797,17,0.000721566,10,0.00282563,-1.44034,9.02281,0.00653899,-9.2659,-0.0778846,
2,0,0,1,0,32719.7,-0.0799595,-0.0803617,-36.2731,17,0.000576478,10,0.00291497,-1.44042,12.7291,0.00463504,-6.56308,-0.0803617,
2,0,0,1,0,32719.7,-0.0823567,-0.0827349,-36.2644,17,0.000431414,10,0.00300033,-1.44052,-394.598,-0.000149519,0.211708,-0.0827349,
2,0,0,1,0,32719.7,-0.0847538,-0.0851293,-36.2504,17,0.00028639,10,0.00308597,-1.44069,-18.7777,-0.00314202,4.45053,-0.0851293,
2,0,0,1,0,32719.8,-0.0871592,-0.0875576,-36.2818,17,0.000141339,10,0.00317675,-1.44031,-10.0645,-0.00586217,8.30576,-0.0875576,
2,0,0,1,0,32719.8,-0.0895563,-0.0899212,-36.3157,17,-3.85477e-06,10,0.00326555,-1.43991,-5.39583,-0.0109344,15.501,-0.0899212,
2,0,0,1,0,32719.8,-0.0919534,-0.0923326,-36.3441,17,-0.000149164,10,0.00335574,-1.43957,-4.58942,-0.0128556,18.2471,-0.0923326,
2,0,0,1,0,32719.8,-0.0943505,-0.0947397,-36.3994,17,-0.000294646,10,0.00344847,-1.43891,-3.84715,-0.015336,21.7984,-0.0947397,
2,0,0,1,0,32719.8,-0.0967587,-0.0971606,-36.457,17,-0.000440367,10,0.00354219,-1.43822,-3.33304,-0.0177016,25.1773,-0.0971606,
2,0,0,1,0,32719.8,-0.0991558,-0.0995614,-36.5258,17,-0.000586324,10,0.00363656,-1.4374,6.78223,0.0086992,-12.3457,-0.0995614,
2,0,0,1,0,32719.8,-0.0999548,-0.100324,-36.5453,17,-0.000633815,10,0.00366636,-1.43717,0.0195931,3.01127,-3982.14,-0.1003238,
2,0,0,1,1,32719.8,-0.0999548,-0.100438,-36.329,17,-0.000655643,10,0.00364883,-1.43975,-0.0275152,-2.14427,2644.05,-0.100438,
2,0,0,1,1,32719.8,-0.0979573,-0.0984215,-31.4362,17,-0.000758682,10,0.003094,-1.50257,-0.0354629,-1.66371,1920.31,-0.0984215,
2,0,0,1,1,32719.8,-0.0955546,-0.096008,-27.1304,17,-0.000875126,10,0.00260473,-1.56654,-0.0370758,-1.59134,1715.88,-0.096008,
2,0,0,1,1,32719.8,-0.093152,-0.0935584,-23.5537,17,-0.000975981,10,0.00220364,-1.62794,-0.038498,-1.53255,1429.27,-0.0935584,
2,0,0,1,1,32719.8,-0.0907548,-0.0911799,-20.4427,17,-0.00106356,10,0.00186396,-1.68946,-0.0381096,-1.54817,1241.37,-0.0911799,
2,0,0,1,1,32719.8,-0.0883578,-0.0887908,-17.6714,17,-0.00113944,10,0.00156906,-1.75273,-0.0363318,-1.62392,1117.64,-0.0887908,
2,0,0,1,1,32719.8,-0.0859523,-0.086336,-15.1238,17,-0.00120472,10,0.00130573,-1.82034,-0.0339118,-1.73981,1019.56,-0.086336,
2,0,0,1,1,32719.8,-0.0835552,-0.0839384,-12.8019,17,-0.0012603,10,0.00107457,-1.89272,-0.0308178,-1.91448,942.034,-0.0839384,
2,0,0,1,1,32719.8,-0.0811581,-0.0815716,-10.6465,17,-0.00130694,10,0.000868449,-1.97279,-0.0272505,-2.1651,876.791,-0.0815716,
2,0,0,1,1,32719.8,-0.0787554,-0.0791814,-8.61901,17,-0.00134523,10,0.000682465,-2.06454,-0.0233219,-2.52981,817.365,-0.0791814,
2,0,0,1,1,32719.8,-0.0763528,-0.0767796,-6.7449,17,-0.00137573,10,0.000517871,-2.17102,-0.01892,-3.11839,764.477,-0.0767796,
2,0,0,1,1,32719.8,-0.0739557,-0.0743587,-4.97182,17,-0.00139896,10,0.000369698,-2.30348,-0.0138155,-4.27055,715.565,-0.0743587,
2,0,0,1,1,32719.8,-0.0715586,-0.0719781,-3.31245,17,-0.00141534,10,0.000238424,-2.47985,-0.00668663,-8.82357,675.533,-0.0719781,
2,0,0,1,1,32719.8,-0.0691532,-0.0695593,-1.73375,17,-0.00142527,10,0.000120598,-2.76101,-0.0150334,-3.92459,640.639,-0.0695593,
2,0,0,1,1,32719.8,-0.0667561,-0.0671585,-0.24554,17,-0.00142906,10,1.64901e-05,-3.60988,-0.0774076,-0.762199,602.299,-0.0671585,
2,1,0,1,1,32719.8,-0.0643589,-0.0648023,1.15037,17,-0.00142708,10,-7.45468e-05,-2.93916,0.0284357,2.07486,574.637,-0.0648023,
2,1,0,1,1,32719.8,-0.0619563,-0.0623485,2.48742,17,-0.00141967,10,-0.000155087,-2.60425,0.0073273,8.05208,543.917,-0.0623485,
2,1,0,1,1,32719.8,-0.0595536,-0.0599987,3.76015,17,-0.00140702,10,-0.000225604,-2.42479,0.0131888,4.4735,518.381,-0.0599987,
2,1,0,1,1,32719.8,-0.0571565,-0.0575968,4.95522,17,-0.00138947,10,-0.000285405,-2.30494,0.020498,2.87833,498.442,-0.0575968,
2,1,0,1,1,32719.9,-0.0547594,-0.0552406,6.10697,17,-0.00136722,10,-0.000337353,-2.21417,0.0280575,2.10282,468.607,-0.05524062,
2,1,0,1,1,32719.9,-0.0523512,-0.0528759,7.20897,17,-0.00134044,10,-0.000381181,-2.14213,0.0353249,1.67021,448.583,-0.05287591,
2,1,0,1,1,32719.9,-0.0499541,-0.0504391,8.23983,17,-0.00130944,10,-0.00041561,-2.08408,0.0430422,1.37075,426.92,-0.0504391,
2,1,0,1,1,32719.9,-0.047557,-0.0480161,9.25299,17,-0.00127434,10,-0.000444292,-2.03372,0.0511775,1.15285,406.051,-0.0480161,
2,1,0,1,1,32719.9,-0.0451544,-0.0456471,10.2026,17,-0.00123533,10,-0.00046572,-1.99129,0.0593214,0.994582,388.126,-0.0456471,
2,1,0,1,1,32719.9,-0.0427545,-0.0432368,11.1229,17,-0.00119254,10,-0.00048092,-1.95378,0.0680929,0.866463,369.721,-0.0432368,
2,1,0,1,1,32719.9,-0.0403574,-0.0407692,11.9929,17,-0.00114621,10,-0.000488943,-1.92107,0.0772343,0.76391,352.603,-0.0407692,
2,1,0,1,1,32719.9,-0.0379603,-0.0384056,12.8062,17,-0.00109652,10,-0.000491829,-1.89258,0.0869795,0.67832,335.516,-0.0384056,
2,1,0,1,1,32719.9,-0.0355521,-0.0359677,13.6156,17,-0.00104358,10,-0.000489722,-1.86596,0.0965532,0.611062,321.477,-0.0359677,
2,1,0,1,1,32719.9,-0.033155,-0.0335797,14.3631,17,-0.000987536,10,-0.000482307,-1.84275,0.106198,0.555566,308.84,-0.0335797,
2,1,0,1,1,32719.9,-0.0307579,-0.0311482,15.0859,17,-0.000928556,10,-0.000469898,-1.82143,0.118688,0.497102,290.417,-0.0311482,
2,1,0,1,1,32719.9,-0.0283524,-0.028758,15.7857,17,-0.000866745,10,-0.000453967,-1.80173,0.129769,0.454655,277.86,-0.028758,
2,1,0,1,1,32719.9,-0.0259553,-0.0263435,16.4106,17,-0.000802253,10,-0.000432313,-1.78487,0.141586,0.416706,265.486,-0.02634347,
2,1,0,1,1,32719.9,-0.0235582,-0.0239745,17.0319,17,-0.000735294,10,-0.000408333,-1.76874,0.155694,0.378948,250.863,-0.0239745,
2,1,0,1,1,32719.9,-0.0211611,-0.0215663,17.6297,17,-0.000665906,10,-0.000380209,-1.75375,0.167138,0.353001,241.733,-0.0215663,
2,1,0,1,1,32719.9,-0.0187529,-0.0191475,18.1967,17,-0.000594172,10,-0.000348421,-1.74001,0.182379,0.323503,228.656,-0.0191475,
2,1,0,1,1,32719.9,-0.0163558,-0.0167319,18.7341,17,-0.000520253,10,-0.000313457,-1.72737,0.196193,0.300724,218.962,-0.01673194,
2,1,0,1,1,32719.9,-0.0139587,-0.0143418,19.2345,17,-0.000444258,10,-0.000275857,-1.71592,0.212291,0.27792,207.992,-0.0143418,
2,1,0,1,1,32719.9,-0.0115505,-0.0120068,19.7229,17,-0.000366299,10,-0.000236809,-1.70503,0.230211,0.256287,196.673,-0.0120068,
2,1,0,1,1,32719.9,-0.0091534,-0.00956253,20.1903,17,-0.000286419,10,-0.00019307,-1.69486,0.243984,0.241819,189.97,-0.00956253,
2,1,0,1,1,32719.9,-0.00675629,-0.00712995,20.6225,17,-0.000204731,10,-0.000147038,-1.68566,0.265098,0.222559,178.712,-0.00712995,
2,1,0,1,1,32719.9,-0.00435919,-0.00477691,21.0516,17,-0.000121346,10,-0.000100561,-1.67672,0.298592,0.197594,161.316,-0.00477691,
2,1,0,1,1,32719.9,-0.00195376,-0.00233267,21.4518,17,-3.62772e-05,10,-5.00401e-05,-1.66854, , , ,-0.00233267,
2,1,0,0,1,32719.9,-7.54729e-05,-0.00042076,21.665,17,3.06259e-05,10,-9.11576e-06,-1.66424, , , ,-0.00042076,