File: Figure_codes/Fig_S3_S4/20221101_1-115_002_TrumpetPlot_ParaChange_15_CV_C01_1.csv
mode,ox/red,error,control changes,counter inc.,time/s,control/V,Ewe/V,<I>/mA,cycle number,(Q-Qo)/C,I Range,P/W,log(|I|),Tafel slope mV/dec,alpha_eff,E-IR/V,
2,1,0,0,0,2449.36,2.44065e-05,-0.00112699,33.2134,2,0.0000000E+000,10,-3.74312e-05,-1.47869, , ,-0.0276977,
2,1,0,1,0,2449.36,0.00250197,0.00210831,34.2631,2,0.000106051,10,7.22372e-05,-1.46517, , ,-0.0253021,
2,1,0,1,0,2449.36,0.00570921,0.00537436,35.1059,2,0.000244832,10,0.000188671,-1.45462, , ,-0.0227103,
2,1,0,1,0,2449.37,0.00890534,0.00855982,36.036,2,0.000387189,10,0.000308462,-1.44326,0.240156,0.245673,-0.020269,
2,1,0,1,0,2449.37,0.0121015,0.0117633,36.9252,2,0.00053322,10,0.000434363,-1.43268,0.258832,0.227947,-0.0177769,
2,1,0,1,0,2449.37,0.0153059,0.0149721,37.7404,2,0.000682649,10,0.000565054,-1.42319,0.303107,0.194651,-0.0152202,
2,1,0,1,0,2449.38,0.0185021,0.0181257,38.4092,2,0.000835041,10,0.000696195,-1.41557,0.368029,0.160313,-0.0126016,
2,1,0,1,0,2449.38,0.0217065,0.0213844,39.0116,2,0.000989961,10,0.000834238,-1.40881,0.458771,0.128604,-0.00982489,
2,1,0,1,0,2449.39,0.0249027,0.0246091,39.5025,2,0.00114705,10,0.000972121,-1.40338,0.560803,0.105206,-0.00699295,
2,1,0,1,0,2449.39,0.0280988,0.027786,39.8999,2,0.00130592,10,0.00110866,-1.39903,0.714957,0.0825225,-0.0041339,
2,1,0,1,0,2449.39,0.0313061,0.0309842,40.2477,2,0.00146631,10,0.00124704,-1.39526,0.901374,0.0654556,-0.0012139,
2,1,0,1,0,2449.4,0.0345022,0.0341888,40.4985,2,0.00162782,10,0.0013846,-1.39256,1.15177,0.0512255,0.00178997,
2,1,0,1,0,2449.4,0.0377094,0.03737,40.7108,2,0.00179028,10,0.00152136,-1.39029,1.48586,0.0397076,0.00480136,
2,1,0,1,0,2449.41,0.0409056,0.0405989,40.8716,2,0.00195345,10,0.00165934,-1.38858,1.81849,0.0324445,0.00790165,
2,1,0,1,0,2449.41,0.0441017,0.0437939,41.0155,2,0.00211727,10,0.00179623,-1.38705,2.3947,0.0246377,0.0109815,
2,1,0,1,0,2449.41,0.0473089,0.046972,41.1329,2,0.00228157,10,0.00193209,-1.38581,2.75881,0.021386,0.0140656,
2,1,0,1,0,2449.42,0.0505051,0.0501744,41.1996,2,0.00244624,10,0.00206717,-1.38511,3.06284,0.0192631,0.0172147,
2,1,0,1,0,2449.42,0.0537012,0.05338,41.2982,2,0.00261123,10,0.0022045,-1.38407,3.07606,0.0191804,0.0203415,
2,1,0,1,0,2449.43,0.0569057,0.0565591,41.4014,2,0.00277665,10,0.00234163,-1.38298,2.57351,0.0229259,0.023438,
2,1,0,1,0,2449.43,0.0601018,0.0597647,41.5191,2,0.00294249,10,0.00248138,-1.38175,2.22731,0.0264894,0.0265494,
2,1,0,1,0,2449.43,0.0633063,0.0629725,41.6604,2,0.00310886,10,0.00262346,-1.38028,1.86375,0.0316566,0.0296442,
2,1,0,1,0,2449.44,0.0665024,0.0661388,41.8282,2,0.00327584,10,0.00276647,-1.37853,1.47464,0.0400097,0.0326763,
2,1,0,1,0,2449.44,0.0696986,0.0693763,42.0359,2,0.00344359,10,0.00291629,-1.37638,1.19012,0.0495749,0.0357476,
2,1,0,1,0,2449.45,0.0729058,0.0725437,42.3139,2,0.00361231,10,0.0030696,-1.37352,0.95088,0.0620478,0.0386926,
2,1,0,1,0,2449.45,0.0761019,0.0757652,42.6397,2,0.00378225,10,0.0032306,-1.37019,0.814973,0.072395,0.0416535,
2,1,0,1,0,2449.45,0.0793092,0.078957,43.0453,2,0.00395362,10,0.00339873,-1.36607,0.711716,0.0828983,0.0445208,
2,1,0,1,0,2449.46,0.0825053,0.0821722,43.4448,2,0.00412664,10,0.00356996,-1.36206,0.616264,0.0957381,0.0474163,
2,1,0,1,0,2449.46,0.0857014,0.0853449,43.9201,2,0.0043014,10,0.00374836,-1.35734,0.562329,0.104921,0.0502088,
2,1,0,1,0,2449.47,0.0889087,0.088577,44.4845,2,0.00447827,10,0.0039403,-1.35179,0.492934,0.119691,0.0529894,
2,1,0,1,0,2449.47,0.0921048,0.0917424,45.0604,2,0.00465739,10,0.00413395,-1.34621,0.428598,0.137658,0.055694,
2,1,0,1,0,2449.47,0.0953065,0.0949278,45.7215,2,0.00483896,10,0.00434024,-1.33988,0.384977,0.153256,0.0583506,
2,1,0,1,0,2449.48,0.0985054,0.0981398,46.5221,2,0.00502353,10,0.00456567,-1.33234,0.341175,0.172932,0.0609221,
2,1,0,1,0,2449.48,0.101702,0.101333,47.356,2,0.00521136,10,0.00479871,-1.32462,0.313775,0.188033,0.0634479,
2,1,0,1,0,2449.49,0.104906,0.104575,48.2881,2,0.0054027,10,0.00504975,-1.31616,0.299854,0.196763,0.0659449,
2,1,0,1,0,2449.49,0.108102,0.10777,49.2189,2,0.00559783,10,0.00530434,-1.30787,0.28685,0.205682,0.0683952,
2,1,0,1,0,2449.49,0.111304,0.111,50.2029,2,0.00579676,10,0.00557254,-1.29927,0.275756,0.213957,0.0708381,
2,1,0,1,0,2449.5,0.114506,0.11417,51.2122,2,0.0059997,10,0.00584689,-1.29063,0.263956,0.223522,0.0732002,
2,1,0,1,0,2449.5,0.117702,0.11733,52.2958,2,0.00620682,10,0.00613587,-1.28153,0.251901,0.234219,0.0754933,
2,1,0,1,0,2449.51,0.120909,0.12058,53.4402,2,0.0064184,10,0.00644383,-1.27213,0.241404,0.244403,0.0778279,
2,1,0,1,0,2449.51,0.124105,0.123759,54.6199,2,0.00663464,10,0.00675972,-1.26265,0.234055,0.252078,0.0800632,
2,1,0,1,0,2449.51,0.127301,0.126931,55.8357,2,0.00685568,10,0.00708728,-1.25309,0.224709,0.262562,0.0822623,
2,1,0,1,0,2449.52,0.130508,0.130155,57.1184,2,0.00708169,10,0.00743422,-1.24322,0.216936,0.271969,0.0844598,
2,1,0,1,0,2449.52,0.133705,0.133321,58.4452,2,0.00731295,10,0.00779196,-1.23325,0.209659,0.281409,0.0865647,
2,1,0,1,0,2449.53,0.136906,0.136528,59.837,2,0.0075496,10,0.0081694,-1.22303,0.200714,0.293951,0.0886579,
2,1,0,1,0,2449.53,0.140105,0.139758,61.2798,2,0.007792,10,0.00856432,-1.21268,0.194044,0.304055,0.0907337,
2,1,0,1,0,2449.53,0.143301,0.142957,62.7959,2,0.00804027,10,0.00897709,-1.20207,0.185437,0.318167,0.0927201,
2,1,0,1,0,2449.54,0.146506,0.146178,64.3607,2,0.00829473,10,0.00940814,-1.19138,0.175604,0.335983,0.0946897,
2,1,0,1,0,2449.54,0.149702,0.14938,66.0133,2,0.00855562,10,0.00986105,-1.18037,0.166519,0.354314,0.096569,
2,1,0,1,0,2449.55,0.152904,0.152549,67.7296,2,0.00882325,10,0.0103321,-1.16922,0.158428,0.37241,0.0983656,
2,1,0,1,0,2449.55,0.156105,0.155744,69.548,2,0.00909799,10,0.0108317,-1.15772,0.150604,0.391756,0.100106,
2,1,0,1,0,2449.55,0.159301,0.158969,71.41,2,0.0093801,10,0.011352,-1.14624,0.1461,0.403834,0.101841,
2,1,0,1,0,2449.56,0.162509,0.16211,73.331,2,0.00966972,10,0.0118877,-1.13471,0.142764,0.413269,0.103445,
2,1,0,1,0,2449.56,0.165705,0.165338,75.3056,2,0.00996719,10,0.0124509,-1.12317,0.13868,0.425441,0.105093,
2,1,0,1,0,2449.57,0.168901,0.168542,77.3277,2,0.0102726,10,0.013033,-1.11167,0.139928,0.421645,0.10668,
2,1,0,1,0,2449.57,0.172108,0.171735,79.3913,2,0.0105863,10,0.0136343,-1.10023,0.140204,0.420815,0.108222,
2,1,0,1,0,2449.57,0.175304,0.174986,81.4501,2,0.0109082,10,0.0142527,-1.08911,0.143612,0.410829,0.109826,
2,1,0,1,0,2449.58,0.178506,0.178156,83.4825,2,0.0112382,10,0.0148729,-1.0784,0.150207,0.392791,0.11137,
2,1,0,1,0,2449.58,0.181705,0.181354,85.5052,2,0.0115764,10,0.0155067,-1.06801,0.159846,0.369105,0.11295,
2,1,0,1,0,2449.59,0.184901,0.184516,87.4677,2,0.0119226,10,0.0161392,-1.05815,0.174716,0.33769,0.114542,
2,1,0,1,0,2449.59,0.188105,0.187772,89.3748,2,0.0122765,10,0.0167821,-1.04878,0.198661,0.296988,0.116272,
2,1,0,1,0,2449.59,0.191302,0.19094,91.1395,2,0.0126377,10,0.0174022,-1.04029,0.232424,0.253846,0.118029,
2,1,0,1,0,2449.6,0.194503,0.19418,92.7574,2,0.0130057,10,0.0180116,-1.03265,0.285958,0.206324,0.119974,
2,1,0,1,0,2449.6,0.197705,0.197354,94.1822,2,0.0133798,10,0.0185872,-1.02603,0.370218,0.159366,0.122008,
2,1,0,1,0,2449.61,0.200901,0.200596,95.3535,2,0.0137591,10,0.0191276,-1.02066,0.521235,0.113193,0.124313,
2,1,0,1,0,2449.61,0.204108,0.203814,96.2552,2,0.0141425,10,0.0196181,-1.01658,0.890965,0.0662204,0.126809,
2,1,0,1,0,2449.61,0.207305,0.206975,96.7694,2,0.0145286,10,0.0200288,-1.01426,2.40199,0.0245629,0.129559,
2,1,0,1,0,2449.62,0.210501,0.210211,96.8323,2,0.014916,10,0.0203552,-1.01398,-3.84182,-0.0153573,0.132745,
2,1,0,1,0,2449.62,0.213708,0.213411,96.4509,2,0.0153027,10,0.0205837,-1.01569,-1.18152,-0.0499355,0.136251,
2,1,0,1,0,2449.63,0.216904,0.216669,95.481,2,0.0156866,10,0.0206878,-1.02008,-0.730088,-0.0808122,0.140284,
2,1,0,1,0,2449.63,0.220106,0.219846,93.9598,2,0.0160655,10,0.0206567,-1.02706,-0.543452,-0.108565,0.144678,
2,1,0,1,0,2449.63,0.223305,0.223067,91.8149,2,0.016437,10,0.0204809,-1.03709,-0.442149,-0.133439,0.149615,
2,1,0,1,0,2449.64,0.226501,0.226322,89.0563,2,0.0167986,10,0.0201554,-1.05034,-0.378136,-0.156028,0.155077,
2,1,0,1,0,2449.64,0.229705,0.229546,85.735,2,0.017148,10,0.0196802,-1.06684,-0.332087,-0.177664,0.160958,
2,1,0,1,0,2449.65,0.232901,0.232754,81.9023,2,0.017483,10,0.0190631,-1.0867,-0.298367,-0.197743,0.167232,
2,1,0,1,0,2449.65,0.236103,0.235898,77.6535,2,0.0178018,10,0.0183183,-1.10984,-0.270191,-0.218364,0.173775,
2,1,0,1,0,2449.65,0.239305,0.239158,73.0824,2,0.0181029,10,0.0174782,-1.13619,-0.248346,-0.237571,0.180692,
2,1,0,1,0,2449.66,0.242501,0.242313,68.2605,2,0.0183852,10,0.0165404,-1.16583,-0.229349,-0.25725,0.187704,
2,1,0,1,0,2449.66,0.245708,0.245562,63.4093,2,0.0186481,10,0.0155709,-1.19785,-0.212202,-0.278037,0.194834,
2,1,0,1,0,2449.67,0.248904,0.248746,58.5449,2,0.0188915,10,0.0145628,-1.23251,-0.198404,-0.297373,0.20191,
2,1,0,1,0,2449.67,0.2521,0.251917,53.8489,2,0.0191157,10,0.0135654,-1.26882,-0.18647,-0.316404,0.208838,
2,1,0,1,0,2449.67,0.255308,0.255093,49.3956,2,0.0193217,10,0.0126005,-1.30631,-0.177017,-0.333301,0.215576,
2,1,0,1,0,2449.68,0.258504,0.258347,45.2617,2,0.0195105,10,0.0116932,-1.34427,-0.170145,-0.346764,0.222138,
2,1,0,1,0,2449.68,0.261708,0.261522,41.5398,2,0.0196836,10,0.0108636,-1.38154,-0.165893,-0.355652,0.22829,
2,1,0,1,0,2449.69,0.264904,0.264724,38.2389,2,0.0198427,10,0.0101228,-1.41749,-0.164849,-0.357903,0.234133,
2,1,0,1,0,2449.69,0.268101,0.267893,35.4045,2,0.0199896,10,0.00948461,-1.45094,-0.16688,-0.353548,0.239569,
2,1,0,1,0,2449.69,0.271305,0.271104,33.0395,2,0.0201261,10,0.00895712,-1.48097,-0.175127,-0.336899,0.244672,
2,1,0,1,0,2449.7,0.274501,0.274228,31.0477,2,0.020254,10,0.00851414,-1.50797,-0.188044,-0.313756,0.24939,
2,1,0,1,0,2449.7,0.277708,0.277484,29.4904,2,0.0203748,10,0.00818312,-1.53032,-0.209027,-0.28226,0.253892,
2,1,0,1,0,2449.71,0.280905,0.280616,28.245,2,0.0204901,10,0.00792598,-1.54906,-0.24328,-0.242519,0.25802,
2,1,0,1,0,2449.71,0.284101,0.283857,27.2909,2,0.020601,10,0.00774673,-1.56398,-0.286902,-0.205645,0.262025,
2,1,0,1,0,2449.71,0.287308,0.287051,26.5855,2,0.0207087,10,0.00763141,-1.57535,-0.351779,-0.167719,0.265783,
2,1,0,1,0,2449.72,0.290504,0.290274,26.0285,2,0.0208138,10,0.00755539,-1.58455,-0.454625,-0.129777,0.269451,
2,1,0,1,0,2449.72,0.2937,0.293417,25.6202,2,0.020917,10,0.00751739,-1.59142,-0.580678,-0.101605,0.272921,
2,1,0,1,0,2449.73,0.296907,0.296625,25.3853,2,0.021019,10,0.00752989,-1.59542,-0.702385,-0.0839995,0.276316,
2,1,0,1,0,2449.73,0.29955,0.299284,25.2171,2,0.0211025,10,0.00754705,-1.59831,-0.117045,-0.504081,0.27911,
2,1,0,1,0,2449.73,0.300012,0.299708,25.1797,2,0.0211176,10,0.00754656,-1.59895,-0.0291918,-2.02111,0.279565,
2,1,0,1,0,2449.73,0.298983,0.299001,21.5205,2,0.0211465,10,0.00643464,-1.66715,-0.0117447,-5.02352,0.281785,
2,1,0,1,0,2449.74,0.295787,0.295783,10.8229,2,0.0212093,10,0.00320122,-1.96566,-0.0131766,-4.47763,0.287124,
2,1,0,1,0,2449.74,0.292579,0.292473,2.88819,2,0.0212353,10,0.000844717,-2.53937,-0.0220597,-2.67456,0.290163,
2,0,0,1,0,2449.74,0.289383,0.289223,-3.04302,2,0.0212339,10,-0.000880111,-2.5167,-2.52037,-0.0234093,0.291657,
2,0,0,1,0,2449.75,0.286187,0.286012,-7.43818,2,0.0212122,10,-0.00212741,-2.12853,5.54808e-05,1063.43,0.291963,
2,0,0,1,0,2449.75,0.282983,0.282812,-10.7803,2,0.0211751,10,-0.00304881,-1.96737,-0.00444897,-13.2615,0.291436,
2,0,0,1,0,2449.76,0.279786,0.279589,-13.2627,2,0.0211266,10,-0.00370811,-1.87737,-0.0157302,-3.75074,0.290199,
2,0,0,1,0,2449.76,0.276582,0.276399,-15.1894,2,0.0210694,10,-0.00419835,-1.81846,-0.033712,-1.75012,0.288551,
2,0,0,1,0,2449.76,0.273386,0.273167,-16.6256,2,0.0210055,10,-0.00454158,-1.77922,-0.0583932,-1.01039,0.286468,
2,0,0,1,0,2449.77,0.27019,0.269964,-17.7324,2,0.0209366,10,-0.00478709,-1.75123,-0.0924891,-0.637913,0.28415,
2,0,0,1,0,2449.77,0.266982,0.266743,-18.5996,2,0.0208637,10,-0.00496131,-1.7305,-0.13369,-0.441321,0.281623,
2,0,0,1,0,2449.78,0.263786,0.263556,-19.2774,2,0.0207879,10,-0.00508066,-1.71495,-0.184711,-0.319417,0.278978,
2,0,0,1,0,2449.78,0.260585,0.260369,-19.8303,2,0.0207096,10,-0.00516321,-1.70267,-0.246487,-0.239364,0.276234,
2,0,0,1,0,2449.78,0.257383,0.257131,-20.2855,2,0.0206293,10,-0.00521602,-1.69282,-0.311235,-0.189567,0.273359,
2,0,0,1,0,2449.79,0.254187,0.253943,-20.6442,2,0.0205473,10,-0.00524245,-1.6852,-0.387157,-0.152393,0.270459,
2,0,0,1,0,2449.79,0.25098,0.250738,-20.9822,2,0.0204641,10,-0.00526102,-1.67815,-0.445812,-0.132343,0.267523,
2,0,0,1,0,2449.8,0.247783,0.247522,-21.2598,2,0.0203795,10,-0.00526227,-1.67244,-0.490992,-0.120165,0.26453,
2,0,0,1,0,2449.8,0.244587,0.244358,-21.5554,2,0.0202939,10,-0.00526724,-1.66644,-0.546955,-0.10787,0.261602,
2,0,0,1,0,2449.8,0.241383,0.241131,-21.8256,2,0.0202071,10,-0.00526284,-1.66103,-0.566781,-0.104097,0.258592,
2,0,0,1,0,2449.81,0.238187,0.23794,-22.0632,2,0.0201193,10,-0.00524971,-1.65633,-0.592997,-0.0994946,0.25559,
2,0,0,1,0,2449.81,0.234982,0.234771,-22.3136,2,0.0200305,10,-0.00523858,-1.65143,-0.607483,-0.097122,0.252622,
2,0,0,1,0,2449.82,0.231786,0.231561,-22.5815,2,0.0199407,10,-0.00522899,-1.64625,-0.582711,-0.101251,0.249626,
2,0,0,1,0,2449.82,0.22859,0.228346,-22.8391,2,0.0198498,10,-0.00521521,-1.64132,-0.576996,-0.102254,0.246617,
2,0,0,1,0,2449.82,0.225383,0.225143,-23.1295,2,0.0197579,10,-0.00520743,-1.63583,-0.55279,-0.106731,0.243646,
2,0,0,1,0,2449.83,0.222187,0.221937,-23.4045,2,0.0196647,10,-0.00519433,-1.6307,-0.533562,-0.110578,0.240661,
2,0,0,1,0,2449.83,0.218979,0.218756,-23.7278,2,0.0195705,10,-0.0051906,-1.62474,-0.504988,-0.116834,0.237738,
2,0,0,1,0,2449.84,0.215783,0.21555,-24.0362,2,0.0194749,10,-0.005181,-1.61913,-0.466305,-0.126527,0.234779,
2,0,0,1,0,2449.84,0.212587,0.212359,-24.404,2,0.019378,10,-0.00518241,-1.61254,-0.442919,-0.133207,0.231883,
2,0,0,1,0,2449.84,0.20938,0.209145,-24.7941,2,0.0192796,10,-0.00518556,-1.60565,-0.414384,-0.14238,0.22898,
2,0,0,1,0,2449.85,0.206184,0.205944,-25.2065,2,0.0191796,10,-0.00519113,-1.59849,-0.387773,-0.152151,0.226109,
2,0,0,1,0,2449.85,0.202988,0.20275,-25.6263,2,0.0190779,10,-0.00519572,-1.59131,-0.363564,-0.162282,0.223251,
2,0,0,1,0,2449.86,0.199783,0.199503,-26.1254,2,0.0189743,10,-0.0052121,-1.58294,-0.336464,-0.175353,0.220403,
2,0,0,1,0,2449.86,0.196587,0.196382,-26.6323,2,0.0188688,10,-0.0052301,-1.57459,-0.310491,-0.190022,0.217688,
2,0,0,1,0,2449.86,0.193382,0.193166,-27.2099,2,0.0187611,10,-0.00525603,-1.56527,-0.288672,-0.204384,0.214934,
2,0,0,1,0,2449.87,0.190186,0.189918,-27.8202,2,0.0186509,10,-0.00528356,-1.55564,-0.264606,-0.222973,0.212174,
2,0,0,1,0,2449.87,0.18699,0.186748,-28.4901,2,0.0185382,10,-0.00532048,-1.54531,-0.243044,-0.242755,0.20954,
2,0,0,1,0,2449.88,0.183783,0.183567,-29.2387,2,0.0184227,10,-0.00536727,-1.53404,-0.220251,-0.267876,0.206958,
2,0,0,1,0,2449.88,0.180587,0.180356,-30.0635,2,0.018304,10,-0.00542214,-1.52196,-0.202136,-0.291883,0.204407,
2,0,0,1,0,2449.88,0.17738,0.177154,-30.9661,2,0.0181819,10,-0.00548576,-1.50911,-0.18679,-0.315864,0.201927,
2,0,0,1,0,2449.89,0.174183,0.173948,-31.9417,2,0.018056,10,-0.0055562,-1.49564,-0.170447,-0.346149,0.199502,
2,0,0,1,0,2449.89,0.170987,0.170798,-32.9827,2,0.0179261,10,-0.00563337,-1.48171,-0.157713,-0.374096,0.197184,
2,0,0,1,0,2449.9,0.16778,0.167565,-34.1797,2,0.0177917,10,-0.0057273,-1.46623,-0.144082,-0.409489,0.194908,
2,0,0,1,0,2449.9,0.164584,0.164324,-35.4428,2,0.0176524,10,-0.0058241,-1.45047,-0.131698,-0.447996,0.192678,
2,0,0,1,0,2449.9,0.161382,0.161119,-36.833,2,0.0175077,10,-0.00593452,-1.43376,-0.121779,-0.484483,0.190586,
2,0,0,1,0,2449.91,0.158183,0.15797,-38.3109,2,0.0173573,10,-0.00605198,-1.41668,-0.111243,-0.53037,0.188619,
2,0,0,1,0,2449.91,0.154987,0.154749,-39.9262,2,0.0172007,10,-0.00617852,-1.39874,-0.101509,-0.581228,0.186689,
2,0,0,1,0,2449.92,0.151783,0.151585,-41.6378,2,0.0170374,10,-0.00631168,-1.38051,-0.0932151,-0.632945,0.184896,
2,0,0,1,0,2449.92,0.148587,0.148408,-43.5239,2,0.016867,10,-0.00645931,-1.36127,-0.0860291,-0.685815,0.183227,
2,0,0,1,0,2449.92,0.145385,0.145191,-45.5388,2,0.0166886,10,-0.00661183,-1.34162,-0.0788247,-0.748496,0.181622,
2,0,0,1,0,2449.93,0.142183,0.141949,-47.6579,2,0.0165021,10,-0.00676502,-1.32186,-0.0740037,-0.797257,0.180076,
2,0,0,1,0,2449.93,0.138987,0.138812,-49.878,2,0.0163068,10,-0.00692365,-1.30209,-0.0704823,-0.83709,0.178714,
2,0,0,1,0,2449.94,0.13578,0.135619,-52.2046,2,0.0161024,10,-0.00707993,-1.28229,-0.0671965,-0.878022,0.177383,
2,0,0,1,0,2449.94,0.132584,0.132369,-54.6138,2,0.0158886,10,-0.00722915,-1.2627,-0.0671219,-0.878998,0.17606,
2,0,0,1,0,2449.94,0.129388,0.129239,-57.0096,2,0.0156651,10,-0.00736788,-1.24405,-0.0648295,-0.910079,0.174847,
2,0,0,1,0,2449.95,0.12618,0.126069,-59.425,2,0.015432,10,-0.00749164,-1.22603,-0.0636293,-0.927246,0.173609,
2,0,0,1,0,2449.95,0.122984,0.122843,-62.0781,2,0.0151887,10,-0.00762585,-1.20706,-0.0643831,-0.91639,0.172505,
2,0,0,1,0,2449.96,0.119782,0.119679,-64.6492,2,0.014935,10,-0.00773713,-1.18944,-0.0648708,-0.9095,0.171398,
2,0,0,1,0,2449.96,0.116584,0.116415,-67.2608,2,0.0146709,10,-0.00783015,-1.17224,-0.0700843,-0.841844,0.170223,
2,0,0,1,0,2449.96,0.113387,0.113274,-69.7679,2,0.0143966,10,-0.00790288,-1.15634,-0.0749505,-0.787187,0.169088,
2,0,0,1,0,2449.97,0.110183,0.110075,-72.26,2,0.0141123,10,-0.007954,-1.1411,-0.0806365,-0.731679,0.167883,
2,0,0,1,0,2449.97,0.106987,0.106932,-74.7023,2,0.0138181,10,-0.00798803,-1.12667,-0.0881911,-0.669002,0.166693,
2,0,0,1,0,2449.98,0.103785,0.103691,-77.1568,2,0.0135141,10,-0.00800047,-1.11263,-0.0983575,-0.599853,0.165416,
2,0,0,1,0,2449.98,0.100583,0.100445,-79.5325,2,0.0132004,10,-0.00798865,-1.09946,-0.112282,-0.525462,0.164071,
2,0,0,1,0,2449.98,0.0973873,0.0971791,-81.7747,2,0.0128776,10,-0.00794679,-1.08738,-0.131188,-0.449737,0.162599,
2,0,0,1,0,2449.99,0.0941801,0.0939946,-83.8396,2,0.0125461,10,-0.00788047,-1.07655,-0.156212,-0.377691,0.161066,
2,0,0,1,0,2449.99,0.0909839,0.090771,-85.77,2,0.0122067,10,-0.00778543,-1.06666,-0.187029,-0.31546,0.159387,
2,0,0,1,0,2450,0.0877878,0.0876025,-87.4946,2,0.0118599,10,-0.00766474,-1.05802,-0.233415,-0.252769,0.157598,
2,0,0,1,0,2450,0.0845806,0.0843884,-89.0778,2,0.0115065,10,-0.00751713,-1.05023,-0.295027,-0.199982,0.155651,
2,0,0,1,0,2450,0.0813844,0.0811224,-90.3931,2,0.0111474,10,-0.0073329,-1.04386,-0.385396,-0.153089,0.153437,
2,0,0,1,0,2450.01,0.0781828,0.0779093,-91.4962,2,0.0107834,10,-0.00712841,-1.0386,-0.546449,-0.10797,0.151106,
2,0,0,1,0,2450.01,0.0749839,0.0747833,-92.3098,2,0.0104156,10,-0.00690323,-1.03475,-0.821569,-0.0718138,0.148631,
2,0,0,1,0,2450.02,0.0717877,0.0714928,-92.8604,2,0.0100452,10,-0.00663885,-1.03217,-1.56322,-0.0377425,0.145781,
2,0,0,1,0,2450.02,0.0685832,0.0683413,-93.119,2,0.0096731,10,-0.00636387,-1.03096,-7.61449,-0.00774839,0.142836,
2,0,0,1,0,2450.02,0.0653871,0.0651654,-93.0584,2,0.00930068,10,-0.00606419,-1.03124,3.27641,0.0180075,0.139612,
2,0,0,1,0,2450.03,0.0621854,0.0619396,-92.6612,2,0.00892918,10,-0.0057394,-1.0331,1.45475,0.0405567,0.136069,
2,0,0,1,0,2450.03,0.0589837,0.0587033,-91.9842,2,0.00855987,10,-0.00539977,-1.03629,1.00158,0.058907,0.132291,
2,0,0,1,0,2450.04,0.0557876,0.0555125,-91.0031,2,0.0081939,10,-0.00505181,-1.04094,0.783479,0.0753051,0.128315,
2,0,0,1,0,2450.04,0.0525804,0.0522814,-89.8032,2,0.00783235,10,-0.00469504,-1.04671,0.660148,0.0893739,0.124124,
2,0,0,1,0,2450.04,0.0493842,0.0491002,-88.3247,2,0.00747617,10,-0.00433676,-1.05392,0.5846,0.100924,0.11976,
2,0,0,1,0,2450.05,0.0461881,0.045884,-86.6662,2,0.0071263,10,-0.00397659,-1.06215,0.530914,0.111129,0.115217,
2,0,0,1,0,2450.05,0.0429808,0.0426901,-84.8634,2,0.00678334,10,-0.00362282,-1.07128,0.496364,0.118864,0.110581,
2,0,0,1,0,2450.06,0.0397847,0.0395205,-82.9804,2,0.00644784,10,-0.00327943,-1.08102,0.470356,0.125437,0.105905,
2,0,0,1,0,2450.06,0.036583,0.0363011,-81.0016,2,0.00612006,10,-0.00294045,-1.09151,0.449382,0.131291,0.101102,
2,0,0,1,0,2450.06,0.0333841,0.0330817,-78.9909,2,0.00580026,10,-0.00261315,-1.10242,0.433436,0.136122,0.0962744,
2,0,0,1,0,2450.07,0.030188,0.0299026,-76.9419,2,0.00548859,10,-0.00230076,-1.11384,0.421054,0.140125,0.0914561,
2,0,0,1,0,2450.07,0.0269835,0.0267288,-74.917,2,0.00518509,10,-0.00200244,-1.12542,0.410625,0.143683,0.0866624,
2,0,0,1,0,2450.08,0.0237874,0.023484,-72.8834,2,0.0048897,10,-0.00171159,-1.13737,0.399672,0.147621,0.0817907,
2,0,0,1,0,2450.08,0.0205857,0.0202423,-70.876,2,0.00460239,10,-0.00143469,-1.1495,0.39099,0.150899,0.0769431,
2,0,0,1,0,2450.08,0.017384,0.0171078,-68.8612,2,0.00432307,10,-0.00117806,-1.16203,0.38035,0.15512,0.0721967,
2,0,0,1,0,2450.09,0.0141879,0.0138756,-66.8724,2,0.00405181,10,-0.000927898,-1.17475,0.369822,0.159536,0.0673736,
2,0,0,1,0,2450.09,0.0109806,0.0106987,-64.8951,2,0.00378847,10,-0.000694291,-1.18779,0.363883,0.16214,0.0626147,
2,0,0,1,0,2450.1,0.00778448,0.0075132,-62.937,2,0.00353303,10,-0.000472858,-1.20109,0.361243,0.163325,0.0578628,
2,0,0,1,0,2450.1,0.00458834,0.00428744,-61.0264,2,0.00328527,10,-0.000261647,-1.21448,0.356041,0.165711,0.0531086,
2,0,0,1,0,2450.1,0.0013811,0.00103942,-59.2783,2,0.00304495,10,-6.1615e-05,-1.2271,0.354619,0.166376,0.0484621,
2,0,0,1,0,2450.11,-0.00181504,-0.00217679,-57.4557,2,0.00281168,10,0.000125069,-1.24067,0.354132,0.166604,0.0437878,
2,0,0,1,0,2450.11,-0.0050195,-0.0053665,-55.7731,2,0.00258544,10,0.000299306,-1.25358,0.356829,0.165345,0.039252,
2,0,0,1,0,2450.12,-0.00821564,-0.00852651,-54.1849,2,0.00236572,10,0.000462008,-1.26612,0.36962,0.159623,0.0348214,
2,0,0,1,0,2450.12,-0.0114118,-0.0117533,-52.781,2,0.00215198,10,0.000620353,-1.27752,0.390032,0.15127,0.0304715,
2,0,0,1,0,2450.12,-0.0146162,-0.0149091,-51.5301,2,0.0019435,10,0.000768267,-1.28794,0.423131,0.139437,0.026315,
2,0,0,1,0,2450.13,-0.0178124,-0.0181211,-50.4415,2,0.00173969,10,0.000914053,-1.29721,0.468175,0.126021,0.0222321,
2,0,0,1,0,2450.13,-0.0210196,-0.0213076,-49.5305,2,0.00153989,10,0.00105538,-1.30513,0.53275,0.110746,0.0183168,
2,0,0,1,0,2450.14,-0.0242158,-0.0245302,-48.7951,2,0.00134336,10,0.00119695,-1.31162,0.627671,0.0939982,0.0145059,
2,0,0,1,0,2450.14,-0.0274119,-0.0277294,-48.1932,2,0.00114947,10,0.00133637,-1.31701,0.756784,0.0779614,0.0108251,
2,0,0,1,0,2450.14,-0.0306191,-0.0309212,-47.7488,2,0.000957669,10,0.00147645,-1.32104,0.962775,0.0612812,0.00727781,
2,0,0,1,0,2450.15,-0.0338153,-0.0341216,-47.3889,2,0.000767427,10,0.00161698,-1.32432,1.2991,0.0454162,0.00378956,
2,0,0,1,0,2450.15,-0.037017,-0.0373409,-47.1764,2,0.000578395,10,0.00176161,-1.32627,1.94887,0.030274,0.00040019,
2,0,0,1,0,2450.16,-0.0402187,-0.0405243,-47.0353,2,0.000389993,10,0.00190607,-1.32758,4.05774,0.0145401,-0.00289608,
2,0,0,1,0,2450.16,-0.0434148,-0.0437543,-46.9969,2,0.000201944,10,0.00205632,-1.32793,22.7867,0.00258923,-0.00615679,
2,0,0,1,0,2450.16,-0.0466193,-0.0469207,-47.0385,2,1.39057e-05,10,0.00220708,-1.32755,-6.63433,-0.00889313,-0.00928989,
2,0,0,1,0,2450.17,-0.0498154,-0.0501454,-47.1152,2,-0.000174382,10,0.00236261,-1.32684,-3.007,-0.0196209,-0.0124532,
2,0,0,1,0,2450.17,-0.0530115,-0.0532873,-47.2414,2,-0.000363102,10,0.00251737,-1.32568,-2.11013,-0.0279604,-0.0154942,
2,0,0,1,0,2450.18,-0.056216,-0.056511,-47.4452,2,-0.000552481,10,0.00268117,-1.32381,-1.55512,-0.0379393,-0.0185548,
2,0,0,1,0,2450.18,-0.0594121,-0.0597293,-47.6741,2,-0.000742765,10,0.00284754,-1.32172,-1.32769,-0.0444382,-0.02159,
2,0,0,1,0,2450.18,-0.0626194,-0.062901,-47.9652,2,-0.000934051,10,0.00301706,-1.31907,-1.17834,-0.0500704,-0.0245289,
2,0,0,1,0,2450.19,-0.0658155,-0.0661013,-48.2363,2,-0.0011265,10,0.00318849,-1.31663,-1.05413,-0.0559702,-0.0275122,
2,0,0,1,0,2450.19,-0.0690117,-0.0692783,-48.5591,2,-0.00132013,10,0.00336409,-1.31373,-0.988026,-0.059715,-0.030431,
2,0,0,1,0,2450.2,-0.0722189,-0.0725316,-48.9195,2,-0.00151512,10,0.00354821,-1.31052,-0.906471,-0.0650876,-0.033396,
2,0,0,1,0,2450.2,-0.075415,-0.0757436,-49.2996,2,-0.00171159,10,0.00373413,-1.30716,-0.860562,-0.0685598,-0.0363039,
2,0,0,1,0,2450.2,-0.0786167,-0.0789386,-49.6884,2,-0.00190959,10,0.00392233,-1.30375,-0.839804,-0.0702545,-0.0391879,
2,0,0,1,0,2450.21,-0.0818184,-0.0821124,-50.0911,2,-0.00210918,10,0.0041131,-1.30024,-0.796357,-0.0740874,-0.0420395,
2,0,0,1,0,2450.21,-0.0850146,-0.0852925,-50.4875,2,-0.00231037,10,0.0043062,-1.29682,-0.77426,-0.0762018,-0.0449026,
2,0,0,1,0,2450.22,-0.088219,-0.0885183,-50.9587,2,-0.00251327,10,0.00451078,-1.29278,-0.755621,-0.0780814,-0.0477513,
2,0,0,1,0,2450.22,-0.0914152,-0.0917292,-51.4045,2,-0.00271805,10,0.0047153,-1.289,-0.723402,-0.081559,-0.0506056,
2,0,0,1,0,2450.22,-0.0946141,-0.0949168,-51.8601,2,-0.00292462,10,0.00492239,-1.28517,-0.715172,-0.0824976,-0.0534288,
2,0,0,1,0,2450.23,-0.0978158,-0.0981203,-52.3436,2,-0.00313312,10,0.00513597,-1.28114,-0.6906,-0.0854329,-0.0562454,
2,0,0,1,0,2450.23,-0.101012,-0.101315,-52.8448,2,-0.00334354,10,0.00535399,-1.277,-0.6605,-0.0893263,-0.0590395,
2,0,0,1,0,2450.24,-0.104219,-0.104519,-53.3643,2,-0.00355599,10,0.00557757,-1.27275,-0.648157,-0.0910274,-0.0618274,
2,0,0,1,0,2450.24,-0.107415,-0.10768,-53.9104,2,-0.00377058,10,0.00580507,-1.26833,-0.620692,-0.0950552,-0.0645515,
2,0,0,1,0,2450.24,-0.110611,-0.110907,-54.4492,2,-0.00398737,10,0.00603878,-1.26401,-0.611997,-0.0964058,-0.0673473,
2,0,0,1,0,2450.25,-0.113819,-0.114089,-55.0481,2,-0.00420644,10,0.00628038,-1.25926,-0.595756,-0.0990339,-0.0700505,
2,0,0,1,0,2450.25,-0.117015,-0.117317,-55.6181,2,-0.00442782,10,0.00652494,-1.25478,-0.572592,-0.10304,-0.0728224,
2,0,0,1,0,2450.26,-0.120216,-0.120496,-56.2413,2,-0.00465159,10,0.00677685,-1.24994,-0.556553,-0.10601,-0.0755029,
2,0,0,1,0,2450.26,-0.123418,-0.123712,-56.88,2,-0.00487792,10,0.00703675,-1.24504,-0.539049,-0.109452,-0.0782081,
2,0,0,1,0,2450.26,-0.126614,-0.126842,-57.5518,2,-0.00510684,10,0.00730001,-1.23994,-0.530884,-0.111135,-0.0808011,
2,0,0,1,0,2450.27,-0.129819,-0.13009,-58.2177,2,-0.00533846,10,0.00757357,-1.23495,-0.522947,-0.112822,-0.0835163,
2,0,0,1,0,2450.27,-0.133015,-0.133282,-58.9021,2,-0.00557273,10,0.00785061,-1.22987,-0.508363,-0.116059,-0.0861607,
2,0,0,1,0,2450.28,-0.136214,-0.136526,-59.6063,2,-0.00580981,10,0.00813782,-1.22471,-0.502626,-0.117384,-0.0888411,
2,0,0,1,0,2450.28,-0.139416,-0.139719,-60.385,2,-0.00604988,10,0.00843694,-1.21907,-0.488617,-0.120749,-0.091411,
2,0,0,1,0,2450.28,-0.142612,-0.142928,-61.0962,2,-0.00629292,10,0.00873234,-1.21399,-0.484213,-0.121847,-0.0940509,
2,0,0,1,0,2450.29,-0.145819,-0.146104,-61.8736,2,-0.00653892,10,0.00903997,-1.20849,-0.48922,-0.1206,-0.0966048,
2,0,0,1,0,2450.29,-0.149015,-0.14929,-62.6154,2,-0.00678798,10,0.00934787,-1.20332,-0.476454,-0.123832,-0.0991979,
2,0,0,1,0,2450.3,-0.152211,-0.152501,-63.4044,2,-0.00704009,10,0.00966925,-1.19788,-0.480104,-0.12289,-0.101778,
2,0,0,1,0,2450.3,-0.155418,-0.155713,-64.212,2,-0.00729545,10,0.00999866,-1.19238,-0.47684,-0.123731,-0.104343,
2,0,0,1,0,2450.3,-0.158615,-0.158933,-65.0124,2,-0.00755398,10,0.0103326,-1.187,-0.469613,-0.125635,-0.106923,
2,0,0,1,0,2450.31,-0.161816,-0.162138,-65.8068,2,-0.00781573,10,0.0106698,-1.18173,-0.473746,-0.124539,-0.109493,
2,0,0,1,0,2450.31,-0.165018,-0.165264,-66.6461,2,-0.0080807,10,0.0110142,-1.17623,-0.465801,-0.126664,-0.111947,
2,0,0,1,0,2450.32,-0.168214,-0.168465,-67.4602,2,-0.008349,10,0.0113646,-1.17095,-0.460727,-0.128058,-0.114496,
2,0,0,1,0,2450.32,-0.171419,-0.171708,-68.3442,2,-0.00862068,10,0.0117353,-1.1653,-0.466493,-0.126476,-0.117033,
2,0,0,1,0,2450.32,-0.174615,-0.17486,-69.1857,2,-0.00889583,10,0.0120978,-1.15998,-0.462677,-0.127519,-0.119511,
2,0,0,1,0,2450.33,-0.177814,-0.178108,-70.0578,2,-0.00917438,10,0.0124778,-1.15454,-0.460226,-0.128198,-0.122062,
2,0,0,1,0,2450.33,-0.181015,-0.181305,-70.9262,2,-0.00945647,10,0.0128593,-1.14919,-0.450615,-0.130932,-0.124564,
2,0,0,1,0,2450.34,-0.184211,-0.18447,-71.8385,2,-0.00974208,10,0.0132521,-1.14364,-0.441241,-0.133714,-0.126999,
2,0,0,1,0,2450.34,-0.187419,-0.187683,-72.7904,2,-0.0100314,10,0.0136615,-1.13793,-0.43369,-0.136042,-0.129451,
2,0,0,1,0,2450.34,-0.190615,-0.1909,-73.7488,2,-0.0103246,10,0.0140786,-1.13225,-0.42705,-0.138157,-0.131901,
2,0,0,1,0,2450.35,-0.193811,-0.194039,-74.6854,2,-0.0106216,10,0.0144919,-1.12676,-0.428699,-0.137626,-0.134291,
2,0,0,1,0,2450.35,-0.197018,-0.197228,-75.6871,2,-0.0109225,10,0.0149276,-1.12098,-0.452309,-0.130442,-0.136678,
2,0,0,1,0,2450.36,-0.199647,-0.199902,-76.4991,2,-0.0111736,10,0.0152923,-1.11634,0.586698,0.100563,-0.138703,
2,0,0,1,0,2450.36,-0.200134,-0.200628,-76.5988,2,-0.0112195,10,0.0153678,-1.11578,0.114866,0.513641,-0.139349,
2,0,0,1,1,2450.36,-0.198935,-0.19948,-72.6394,2,-0.0113303,10,0.0144901,-1.13883,0.0751989,0.784586,-0.141369,
2,0,0,1,1,2450.36,-0.195739,-0.19623,-61.8304,2,-0.0115977,10,0.012133,-1.2088,0.0634472,0.929908,-0.146766,
2,0,0,1,1,2450.37,-0.192535,-0.192973,-52.3573,2,-0.0118248,10,0.0101035,-1.28102,0.053681,1.09909,-0.151087,
2,0,0,1,1,2450.37,-0.189339,-0.189795,-43.825,2,-0.0120161,10,0.00831775,-1.35828,0.040604,1.45306,-0.154735,
2,0,0,1,1,2450.37,-0.186137,-0.186546,-36.0716,2,-0.0121749,10,0.00672899,-1.44283,0.0301606,1.9562,-0.157688,
2,0,0,1,1,2450.38,-0.182935,-0.183311,-28.972,2,-0.0123041,10,0.00531089,-1.53802,0.0212862,2.77175,-0.160134,
2,0,0,1,1,2450.38,-0.179739,-0.180139,-22.4494,2,-0.0124061,10,0.00404401,-1.64879,0.0142414,4.14284,-0.162179,
2,0,0,1,1,2450.39,-0.176532,-0.176941,-16.4009,2,-0.0124831,10,0.002902,-1.78513,0.00833774,7.07626,-0.163821,
2,0,0,1,1,2450.39,-0.173336,-0.173786,-10.7937,2,-0.0125368,10,0.00187579,-1.96683,0.00308301,19.1371,-0.165151,
2,0,0,1,1,2450.39,-0.17014,-0.170564,-5.59376,2,-0.0125689,10,0.000954094,-2.2523,0.00510876,11.5488,-0.166089,
2,0,0,1,1,2450.4,-0.166932,-0.167309,-0.772174,2,-0.0125811,10,0.000129191,-3.11228,0.0156733,3.76437,-0.166691,
2,1,0,1,1,2450.4,-0.163736,-0.164188,3.68316,2,-0.0125747,10,-0.00060473,-2.43378,-0.00360325,-16.3741,-0.167134,
2,1,0,1,1,2450.41,-0.160532,-0.160952,7.90213,2,-0.0125511,10,-0.00127186,-2.10226,-0.000230695,-255.749,-0.167273,
2,1,0,1,1,2450.41,-0.157336,-0.157805,11.8179,2,-0.0125112,10,-0.00186492,-1.92746,0.000796797,74.0464,-0.16726,
2,1,0,1,1,2450.41,-0.154139,-0.15465,15.4268,2,-0.0124562,10,-0.00238574,-1.81172,0.0030536,19.3214,-0.166991,
2,1,0,1,1,2450.42,-0.150935,-0.151467,18.8771,2,-0.0123873,10,-0.00285926,-1.72406,0.00661515,8.91892,-0.166569,
2,1,0,1,1,2450.42,-0.147739,-0.14821,22.1229,2,-0.0123049,10,-0.00327883,-1.65516,0.0110134,5.35712,-0.165908,
2,1,0,1,1,2450.43,-0.144532,-0.144981,25.138,2,-0.01221,10,-0.00364453,-1.59967,0.0170459,3.46125,-0.165091,
2,1,0,1,1,2450.43,-0.141335,-0.141775,27.9636,2,-0.0121034,10,-0.00396454,-1.55341,0.0241528,2.44278,-0.164146,
2,1,0,1,1,2450.43,-0.138139,-0.138531,30.5824,2,-0.011986,10,-0.00423662,-1.51453,0.033291,1.77225,-0.162997,
2,1,0,1,1,2450.44,-0.134932,-0.135338,32.9775,2,-0.0118586,10,-0.00446313,-1.48178,0.0442971,1.33192,-0.16172,
2,1,0,1,1,2450.44,-0.131736,-0.132094,35.1753,2,-0.011722,10,-0.00464643,-1.45376,0.056126,1.05121,-0.160234,
2,1,0,1,1,2450.45,-0.12854,-0.128891,37.2032,2,-0.011577,10,-0.00479516,-1.42942,0.0701969,0.840493,-0.158654,
2,1,0,1,1,2450.45,-0.125333,-0.125699,39.1203,2,-0.0114241,10,-0.0049174,-1.4076,0.0855223,0.689879,-0.156996,
2,1,0,1,1,2450.45,-0.122136,-0.122515,40.8494,2,-0.011264,10,-0.00500466,-1.38881,0.103489,0.570107,-0.155194,
2,1,0,1,1,2450.46,-0.118932,-0.119283,42.4553,2,-0.0110972,10,-0.00506419,-1.37207,0.125795,0.469017,-0.153247,
2,1,0,1,1,2450.46,-0.115736,-0.11608,43.9077,2,-0.0109243,10,-0.00509683,-1.35746,0.148192,0.398133,-0.151207,
2,1,0,1,1,2450.47,-0.11254,-0.112871,45.2364,2,-0.0107458,10,-0.00510586,-1.34451,0.175553,0.336081,-0.14906,
2,1,0,1,1,2450.47,-0.109335,-0.109712,46.4746,2,-0.0105622,10,-0.0050988,-1.33278,0.206697,0.285442,-0.146891,
2,1,0,1,1,2450.47,-0.106139,-0.106495,47.5797,2,-0.010374,10,-0.00506702,-1.32258,0.240672,0.245147,-0.144559,
2,1,0,1,1,2450.48,-0.102932,-0.103238,48.5903,2,-0.0101815,10,-0.00501636,-1.31345,0.284751,0.207198,-0.14211,
2,1,0,1,1,2450.48,-0.0997357,-0.10008,49.4881,2,-0.00998525,10,-0.00495277,-1.3055,0.32982,0.178885,-0.13967,
2,1,0,1,1,2450.49,-0.0965395,-0.0969199,50.2845,2,-0.00978557,10,-0.00487357,-1.29857,0.384697,0.153367,-0.137147,
2,1,0,1,1,2450.49,-0.0933323,-0.0936369,51.0495,2,-0.00958281,10,-0.00478012,-1.29201,0.443702,0.132972,-0.134476,
2,1,0,1,1,2450.49,-0.0901362,-0.090462,51.6812,2,-0.00937725,10,-0.00467518,-1.28667,0.517908,0.11392,-0.131807,
2,1,0,1,1,2450.5,-0.0869345,-0.0872999,52.2736,2,-0.00916928,10,-0.00456348,-1.28172,0.608007,0.0970383,-0.129119,
2,1,0,1,1,2450.5,-0.0837328,-0.084037,52.7784,2,-0.00895909,10,-0.00443534,-1.27754,0.689617,0.0855547,-0.12626,
2,1,0,1,1,2450.51,-0.0805366,-0.0808866,53.2233,2,-0.00874702,10,-0.00430505,-1.2739,0.822976,0.071691,-0.123465,
2,1,0,1,1,2450.51,-0.0773322,-0.0777085,53.647,2,-0.00853324,10,-0.00416883,-1.27045,0.950593,0.0620665,-0.120626,
2,1,0,1,1,2450.51,-0.074136,-0.0744509,53.9803,2,-0.00831796,10,-0.00401889,-1.26776,1.10809,0.0532446,-0.117635,
2,1,0,1,1,2450.52,-0.0709371,-0.0712369,54.2821,2,-0.00810138,10,-0.00386688,-1.26534,1.35471,0.0435516,-0.114663,
2,1,0,1,1,2450.52,-0.0677354,-0.0680758,54.5397,2,-0.0078837,10,-0.00371283,-1.26329,1.53081,0.0385417,-0.111708,
2,1,0,1,1,2450.53,-0.0645393,-0.0648956,54.7462,2,-0.00766506,10,-0.00355279,-1.26165,1.88715,0.0312641,-0.108693,
2,1,0,1,1,2450.53,-0.0613321,-0.0616561,54.9642,2,-0.00744564,10,-0.00338888,-1.25992,2.30931,0.0255488,-0.105627,
2,1,0,1,1,2450.53,-0.0581359,-0.0584324,55.0932,2,-0.00722546,10,-0.00321923,-1.2589,2.80237,0.0210536,-0.102507,
2,1,0,1,1,2450.54,-0.0549398,-0.0552724,55.2109,2,-0.0070048,10,-0.00305164,-1.25798,3.99199,0.0147796,-0.0994411,
2,1,0,1,1,2450.54,-0.0517325,-0.0520997,55.3046,2,-0.00678372,10,-0.00288135,-1.25724,5.07456,0.0116266,-0.0963433,
2,1,0,1,1,2450.55,-0.0485364,-0.0488252,55.3623,2,-0.00656239,10,-0.00270307,-1.25679,7.53309,0.00783211,-0.093115,
2,1,0,1,1,2450.55,-0.0453347,-0.0456609,55.407,2,-0.00634083,10,-0.00252994,-1.25644,16.5798,0.00355854,-0.0899865,
2,1,0,1,1,2450.55,-0.042133,-0.0424182,55.4253,2,-0.00611915,10,-0.00235104,-1.25629,84.8586,0.000695274,-0.0867584,
2,1,0,1,1,2450.56,-0.0389369,-0.0392942,55.4024,2,-0.00589747,10,-0.00217699,-1.25647,-15.2404,-0.00387129,-0.0836161,
2,1,0,1,1,2450.56,-0.0357324,-0.0360409,55.3815,2,-0.00567595,10,-0.001996,-1.25664,-8.35748,-0.00705955,-0.0803461,
2,1,0,1,1,2450.57,-0.0325363,-0.0328766,55.2994,2,-0.00545458,10,-0.00181806,-1.25728,-6.28715,-0.00938423,-0.0771162,
2,1,0,1,1,2450.57,-0.0293374,-0.0296848,55.2288,2,-0.00523352,10,-0.00163946,-1.25783,-4.44058,-0.0132865,-0.0738679,
2,1,0,1,1,2450.57,-0.0261357,-0.0265036,55.1392,2,-0.00501275,10,-0.00146139,-1.25854,-3.86471,-0.0152663,-0.070615,
2,1,0,1,1,2450.58,-0.0229395,-0.0232874,55.0079,2,-0.00479246,10,-0.00128099,-1.25957,-3.13441,-0.0188233,-0.0672937,
2,1,0,1,1,2450.58,-0.0197323,-0.0201019,54.8688,2,-0.0045727,10,-0.00110297,-1.26067,-2.71757,-0.0217106,-0.063997,
2,1,0,1,1,2450.59,-0.0165361,-0.0168899,54.695,2,-0.00435357,10,-0.000923795,-1.26205,-2.49158,-0.0236798,-0.0606459,
2,1,0,1,1,2450.59,-0.01334,-0.0136737,54.5202,2,-0.00413514,10,-0.000745494,-1.26344,-2.23214,-0.026432,-0.0572899,
2,1,0,1,1,2450.59,-0.0101328,-0.0104649,54.3328,2,-0.00391742,10,-0.000568589,-1.26494,-2.07355,-0.0284536,-0.0539312,
2,1,0,1,1,2450.6,-0.00693663,-0.00728371,54.1144,2,-0.00370053,10,-0.000394154,-1.26669,-1.87936,-0.0313937,-0.0505752,
2,1,0,1,1,2450.6,-0.00373494,-0.00410037,53.8849,2,-0.00348458,10,-0.000220948,-1.26853, , ,-0.0472083,
2,1,0,1,1,2450.61,-0.000774628,-0.00112858,53.6424,2,-0.00328561,10,-6.05399e-05,-1.27049, , ,-0.0440425,
2,1,0,0,1,2450.61,-0.000125413,-0.000478022,53.6218,2,-0.00324271,10,-2.56324e-05,-1.27066, , ,-0.0433754,