File: Figure_codes/Fig_S3_S4/20221101_1-115_002_TrumpetPlot_ParaChange_13_CV_C01_1.csv
mode,ox/red,error,control changes,counter inc.,time/s,control/V,Ewe/V,<I>/mA,cycle number,(Q-Qo)/C,I Range,P/W,log(|I|),Tafel slope mV/dec,alpha_eff,E-IR/V,
2,1,0,0,0,2445.82,2.44065e-05,-0.000535284,11.6348,2,0.0000000E+000,10,-6.2279e-06,-1.93424, , ,-0.00984309,
2,1,0,1,0,2445.83,0.00206084,0.00164491,13.2329,2,6.42183e-05,10,2.17669e-05,-1.87835, , ,-0.00894138,
2,1,0,1,0,2445.83,0.00446904,0.00417504,14.8759,2,0.000148954,10,6.21077e-05,-1.82752,0.028964,2.03701,-0.00772571,
2,1,0,1,0,2445.84,0.00686614,0.00653551,16.1419,2,0.000242266,10,0.000105495,-1.79205,0.0453209,1.30183,-0.00637801,
2,1,0,1,0,2445.84,0.00926324,0.00890657,17.2036,2,0.00034253,10,0.000153225,-1.76438,0.0672467,0.877366,-0.00485628,
2,1,0,1,0,2445.85,0.0116603,0.0113254,18.0645,2,0.000448528,10,0.000204587,-1.74317,0.0952229,0.619599,-0.00312624,
2,1,0,1,0,2445.86,0.0140685,0.0137261,18.7566,2,0.000559127,10,0.000257455,-1.72685,0.13331,0.442578,-0.00127914,
2,1,0,1,0,2445.86,0.0164657,0.0161237,19.2823,2,0.000673324,10,0.000310903,-1.71484,0.187493,0.314678,0.000697835,
2,1,0,1,0,2445.87,0.0188628,0.0185489,19.696,2,0.000790348,10,0.000365338,-1.70562,0.253692,0.232566,0.00279205,
2,1,0,1,0,2445.87,0.0212682,0.020974,20.0404,2,0.000909624,10,0.000420327,-1.69809,0.352217,0.167511,0.0049417,
2,1,0,1,0,2445.88,0.0236653,0.0233345,20.2734,2,0.0010306,10,0.000473068,-1.69307,0.480822,0.122706,0.00711576,
2,1,0,1,0,2445.89,0.0260624,0.0257554,20.4509,2,0.0011528,10,0.00052672,-1.68929,0.606144,0.0973366,0.00939468,
2,1,0,1,0,2445.89,0.0284595,0.0281498,20.6088,2,0.00127603,10,0.000580133,-1.68595,0.842234,0.0700518,0.0116627,
2,1,0,1,0,2445.9,0.0308677,0.0306322,20.7177,2,0.00140008,10,0.000634628,-1.68366,1.24097,0.0475434,0.014058,
2,1,0,1,0,2445.9,0.0332648,0.032946,20.7809,2,0.00152454,10,0.000684648,-1.68234,1.64659,0.0358316,0.0163212,
2,1,0,1,0,2445.91,0.0356619,0.035351,20.8435,2,0.00164944,10,0.000736839,-1.68103,1.99482,0.0295767,0.0186762,
2,1,0,1,0,2445.92,0.0380673,0.0377443,20.8942,2,0.00177472,10,0.000788639,-1.67997,2.65263,0.0222421,0.0210289,
2,1,0,1,0,2445.92,0.0404644,0.0401589,20.9285,2,0.00190019,10,0.000840463,-1.67926,3.23261,0.0182515,0.0234161,
2,1,0,1,0,2445.93,0.0428615,0.0425321,20.973,2,0.00202592,10,0.000892027,-1.67834,2.4959,0.0236388,0.0257536,
2,1,0,1,0,2445.93,0.0452586,0.0449593,21.0055,2,0.00215188,10,0.000944393,-1.67767,2.78082,0.0212167,0.0281549,
2,1,0,1,0,2445.94,0.0476668,0.0473622,21.0653,2,0.00227814,10,0.000997698,-1.67643,2.15048,0.0274358,0.03051,
2,1,0,1,0,2445.95,0.0500639,0.0497863,21.1209,2,0.00240469,10,0.00105153,-1.67529,1.8363,0.0321297,0.0328896,
2,1,0,1,0,2445.95,0.0524611,0.0521234,21.1867,2,0.00253159,10,0.00110432,-1.67394,1.34312,0.0439277,0.0351741,
2,1,0,1,0,2445.96,0.0548692,0.0545443,21.2862,2,0.00265902,10,0.00116104,-1.6719,1.10533,0.0533779,0.0375154,
2,1,0,1,0,2445.96,0.0572664,0.0569144,21.3771,2,0.00278705,10,0.00121666,-1.67005,0.93102,0.0633714,0.0398127,
2,1,0,1,0,2445.97,0.0596635,0.0593384,21.5256,2,0.00291579,10,0.0012773,-1.66704,0.797221,0.0740071,0.042118,
2,1,0,1,0,2445.98,0.0620633,0.0617381,21.6776,2,0.0030454,10,0.00133833,-1.66399,0.679527,0.0868251,0.0443961,
2,1,0,1,0,2445.98,0.064466,0.0641675,21.8606,2,0.00317605,10,0.00140274,-1.66034,0.552111,0.106863,0.046679,
2,1,0,1,0,2445.99,0.0668631,0.0665322,22.0866,2,0.00330788,10,0.00146947,-1.65587,0.52715,0.111923,0.048863,
2,1,0,1,0,2445.99,0.0692602,0.0689341,22.3069,2,0.0034411,10,0.00153771,-1.65156,0.459344,0.128444,0.0510885,
2,1,0,1,0,2446,0.0716684,0.0713242,22.5537,2,0.0035757,10,0.00160862,-1.64678,0.429853,0.137256,0.0532813,
2,1,0,1,0,2446.01,0.0740655,0.0737282,22.844,2,0.00371192,10,0.00168424,-1.64123,0.406449,0.14516,0.055453,
2,1,0,1,0,2446.01,0.0764626,0.076147,23.1206,2,0.00384988,10,0.00176056,-1.636,0.369306,0.159759,0.0576505,
2,1,0,1,0,2446.02,0.0788653,0.0785403,23.4459,2,0.0039896,10,0.00184145,-1.62993,0.341314,0.172861,0.0597836,
2,1,0,1,0,2446.02,0.0812651,0.0809485,23.8041,2,0.00413137,10,0.00192691,-1.62335,0.300433,0.196383,0.0619052,
2,1,0,1,0,2446.03,0.0836622,0.0833026,24.2108,2,0.00427544,10,0.00201682,-1.61599,0.277921,0.21229,0.063934,
2,1,0,1,0,2446.04,0.0860593,0.0857489,24.6342,2,0.00442204,10,0.00211235,-1.60846,0.269898,0.218601,0.0660416,
2,1,0,1,0,2446.04,0.0884675,0.0881147,25.0924,2,0.00457127,10,0.00221101,-1.60046,0.262719,0.224575,0.0680407,
2,1,0,1,0,2446.05,0.0908647,0.0905239,25.5382,2,0.00472317,10,0.00231182,-1.59281,0.259714,0.227173,0.0700934,
2,1,0,1,0,2446.05,0.0932618,0.092947,26.0246,2,0.00487792,10,0.00241891,-1.58462,0.250368,0.235653,0.0721273,
2,1,0,1,0,2446.06,0.09567,0.0953562,26.5003,2,0.00503551,10,0.00252697,-1.57675,0.249263,0.236697,0.074156,
2,1,0,1,0,2446.07,0.0980671,0.0977368,27.0055,2,0.00519606,10,0.00263943,-1.56855,0.239749,0.246091,0.0761325,
2,1,0,1,0,2446.07,0.100464,0.100166,27.5341,2,0.00535973,10,0.00275799,-1.56013,0.238308,0.247579,0.0781389,
2,1,0,1,0,2446.08,0.102861,0.102557,28.0347,2,0.00552649,10,0.00287517,-1.5523,0.236652,0.249311,0.0801296,
2,1,0,1,0,2446.08,0.105267,0.10496,28.5983,2,0.0056965,10,0.00300169,-1.54366,0.228968,0.257678,0.0820817,
2,1,0,1,0,2446.09,0.107664,0.107352,29.1722,2,0.0058699,10,0.00313168,-1.53503,0.231062,0.255343,0.0840138,
2,1,0,1,0,2446.1,0.110061,0.109758,29.7346,2,0.00604665,10,0.00326359,-1.52674,0.226478,0.26051,0.0859699,
2,1,0,1,0,2446.1,0.112469,0.11215,30.339,2,0.00622689,10,0.00340252,-1.518,0.224958,0.262272,0.0878787,
2,1,0,1,0,2446.11,0.114866,0.114594,30.9302,2,0.00641077,10,0.00354442,-1.50962,0.219595,0.268677,0.0898499,
2,1,0,1,0,2446.11,0.117263,0.116966,31.5585,2,0.00659829,10,0.00369128,-1.50088,0.218079,0.270544,0.0917194,
2,1,0,1,0,2446.12,0.11966,0.119366,32.1937,2,0.00678961,10,0.00384284,-1.49223,0.21153,0.27892,0.0936109,
2,1,0,1,0,2446.13,0.122066,0.121722,32.8695,2,0.00698486,10,0.00400094,-1.48321,0.202942,0.290723,0.0954266,
2,1,0,1,0,2446.13,0.124463,0.124165,33.5663,2,0.00718422,10,0.00416777,-1.4741,0.199719,0.295414,0.0973123,
2,1,0,1,0,2446.14,0.12686,0.12657,34.2766,2,0.00738783,10,0.0043384,-1.465,0.190989,0.308918,0.0991491,
2,1,0,1,0,2446.14,0.129268,0.128946,35.0449,2,0.00759587,10,0.00451888,-1.45538,0.180455,0.326951,0.10091,
2,1,0,1,0,2446.15,0.131665,0.131327,35.8746,2,0.00780872,10,0.00471131,-1.44521,0.172636,0.341759,0.102628,
2,1,0,1,0,2446.16,0.134062,0.133767,36.6943,2,0.00802654,10,0.0049085,-1.4354,0.164634,0.35837,0.104412,
2,1,0,1,0,2446.16,0.13646,0.136108,37.5886,2,0.00824946,10,0.00511609,-1.42494,0.152965,0.385708,0.106037,
2,1,0,1,0,2446.17,0.138868,0.138566,38.5678,2,0.00847803,10,0.00534417,-1.41378,0.151157,0.390322,0.107711,
2,1,0,1,0,2446.17,0.141265,0.140953,39.5381,2,0.00871242,10,0.005573,-1.40298,0.144627,0.407945,0.109322,
2,1,0,1,0,2446.18,0.143662,0.143313,40.5663,2,0.00895278,10,0.00581368,-1.39183,0.137723,0.428397,0.11086,
2,1,0,1,0,2446.19,0.146067,0.145753,41.6484,2,0.00919949,10,0.00607038,-1.3804,0.133671,0.441381,0.112434,
2,1,0,1,0,2446.19,0.148465,0.148197,42.754,2,0.00945279,10,0.00633603,-1.36902,0.132628,0.444854,0.113994,
2,1,0,1,0,2446.2,0.150862,0.150507,43.8718,2,0.0097128,10,0.00660302,-1.35781,0.131548,0.448504,0.115409,
2,1,0,1,0,2446.2,0.153264,0.152897,45.0227,2,0.0099796,10,0.00688384,-1.34657,0.132826,0.444192,0.116879,
2,1,0,1,0,2446.21,0.155667,0.155324,46.2082,2,0.0102534,10,0.00717725,-1.33528,0.134629,0.438241,0.118358,
2,1,0,1,0,2446.22,0.158064,0.157762,47.3779,2,0.0105343,10,0.00747444,-1.32442,0.139281,0.423605,0.11986,
2,1,0,1,0,2446.22,0.160461,0.160137,48.5089,2,0.0108221,10,0.00776809,-1.31418,0.145462,0.405603,0.12133,
2,1,0,1,0,2446.23,0.162867,0.162543,49.6759,2,0.0111167,10,0.00807444,-1.30385,0.152999,0.385624,0.122802,
2,1,0,1,0,2446.23,0.165264,0.164954,50.7871,2,0.0114183,10,0.00837753,-1.29425,0.165652,0.356168,0.124324,
2,1,0,1,0,2446.24,0.167661,0.167368,51.828,2,0.0117262,10,0.00867438,-1.28544,0.18237,0.323518,0.125906,
2,1,0,1,0,2446.25,0.170069,0.169731,52.8538,2,0.0120403,10,0.00897093,-1.27692,0.201761,0.292425,0.127448,
2,1,0,1,0,2446.25,0.172466,0.172172,53.7759,2,0.0123604,10,0.0092587,-1.26941,0.239712,0.246129,0.129151,
2,1,0,1,0,2446.26,0.174863,0.174517,54.5884,2,0.0126856,10,0.00952658,-1.2629,0.299675,0.19688,0.130846,
2,1,0,1,0,2446.26,0.17726,0.176929,55.2776,2,0.0130154,10,0.00978021,-1.25745,0.390242,0.151188,0.132707,
2,1,0,1,0,2446.27,0.179668,0.179373,55.8461,2,0.0133489,10,0.0100173,-1.25301,0.583283,0.101152,0.134696,
2,1,0,1,0,2446.28,0.182066,0.181755,56.204,2,0.0136852,10,0.0102154,-1.25023,1.27489,0.0462785,0.136792,
2,1,0,1,0,2446.28,0.184463,0.184145,56.3171,2,0.0140229,10,0.0103705,-1.24936,-32.28,-0.00182776,0.139091,
2,1,0,1,0,2446.29,0.186868,0.186564,56.1867,2,0.0143605,10,0.0104824,-1.25037,-1.12556,-0.0524185,0.141615,
2,1,0,1,0,2446.29,0.189265,0.188969,55.7446,2,0.0146964,10,0.010534,-1.2538,-0.595555,-0.0990673,0.144373,
2,1,0,1,0,2446.3,0.191662,0.191353,54.9283,2,0.0150285,10,0.0105107,-1.2602,-0.412237,-0.143121,0.14741,
2,1,0,1,0,2446.31,0.194059,0.193753,53.7848,2,0.0153547,10,0.010421,-1.26934,-0.320949,-0.18383,0.150726,
2,1,0,1,0,2446.31,0.196468,0.196197,52.2814,2,0.0156729,10,0.0102574,-1.28165,-0.263467,-0.223937,0.154371,
2,1,0,1,0,2446.32,0.198865,0.198575,50.3473,2,0.0159808,10,0.00999771,-1.29802,-0.225368,-0.261794,0.158297,
2,1,0,1,0,2446.32,0.201262,0.200949,48.0919,2,0.016276,10,0.00966404,-1.31793,-0.198549,-0.297156,0.162476,
2,1,0,1,0,2446.33,0.203667,0.203421,45.568,2,0.0165569,10,0.00926949,-1.34134,-0.178321,-0.330864,0.166967,
2,1,0,1,0,2446.34,0.206064,0.205825,42.7675,2,0.0168217,10,0.00880262,-1.36889,-0.16107,-0.366299,0.171611,
2,1,0,1,0,2446.34,0.208461,0.208229,39.8421,2,0.0170693,10,0.00829628,-1.39966,-0.147732,-0.399371,0.176355,
2,1,0,1,0,2446.35,0.210859,0.210631,36.8332,2,0.017299,10,0.00775822,-1.43376,-0.135731,-0.434683,0.181164,
2,1,0,1,0,2446.35,0.213267,0.212984,33.8458,2,0.0175108,10,0.00720861,-1.4705,-0.126122,-0.467802,0.185907,
2,1,0,1,0,2446.36,0.215664,0.215418,30.9337,2,0.0177048,10,0.00666367,-1.50957,-0.11777,-0.500976,0.190671,
2,1,0,1,0,2446.37,0.218061,0.217838,28.2121,2,0.0178818,10,0.00614569,-1.54956,-0.112676,-0.523626,0.195269,
2,1,0,1,0,2446.37,0.220469,0.220212,25.7543,2,0.0180433,10,0.00567141,-1.58915,-0.108353,-0.544517,0.199608,
2,1,0,1,0,2446.38,0.222866,0.222619,23.5124,2,0.0181908,10,0.0052343,-1.6287,-0.107362,-0.549544,0.203809,
2,1,0,1,0,2446.38,0.225263,0.225005,21.5924,2,0.0183257,10,0.00485838,-1.6657,-0.108729,-0.542633,0.207731,
2,1,0,1,0,2446.39,0.227663,0.227393,19.9975,2,0.0184502,10,0.0045473,-1.69902,-0.113571,-0.519501,0.211395,
2,1,0,1,0,2446.4,0.230066,0.22974,18.6621,2,0.018566,10,0.00428743,-1.72904,-0.122583,-0.481305,0.214811,
2,1,0,1,0,2446.4,0.232463,0.232183,17.6209,2,0.0186746,10,0.00409126,-1.75397,-0.139695,-0.422349,0.218086,
2,1,0,1,0,2446.41,0.23486,0.234581,16.8328,2,0.0187778,10,0.00394866,-1.77384,-0.165309,-0.356907,0.221115,
2,1,0,1,0,2446.41,0.237268,0.236962,16.2288,2,0.0188769,10,0.00384562,-1.78971,-0.200467,-0.294313,0.223979,
2,1,0,1,0,2446.42,0.239665,0.239368,15.7717,2,0.0189727,10,0.00377524,-1.80212,-0.259281,-0.227553,0.226751,
2,1,0,1,0,2446.43,0.242063,0.24173,15.4665,2,0.0190664,10,0.00373872,-1.81061,-0.368975,-0.159903,0.229357,
2,1,0,1,0,2446.43,0.244465,0.244147,15.2709,2,0.0191585,10,0.00372835,-1.81613,-0.511823,-0.115274,0.23193,
2,1,0,1,0,2446.44,0.246865,0.246587,15.1242,2,0.0192497,10,0.00372943,-1.82033,-0.738017,-0.079944,0.234488,
2,1,0,1,0,2446.44,0.249262,0.24894,15.0119,2,0.0193401,10,0.00373706,-1.82357,-1.12828,-0.052292,0.236931,
2,1,0,1,0,2446.45,0.251659,0.251361,14.9885,2,0.0194301,10,0.00376753,-1.82424,-1.84357,-0.0320031,0.23937,
2,1,0,1,0,2446.46,0.254067,0.253789,14.9581,2,0.0195199,10,0.0037962,-1.82512,-2.23097,-0.0264459,0.241823,
2,1,0,1,0,2446.46,0.256465,0.256162,14.9007,2,0.0196095,10,0.00381698,-1.82679,-3.35266,-0.017598,0.244241,
2,1,0,1,0,2446.47,0.258862,0.258556,14.9111,2,0.0196989,10,0.00385534,-1.82649,-13.52,-0.00436389,0.246627,
2,1,0,1,0,2446.47,0.26127,0.261008,14.9193,2,0.0197883,10,0.00389405,-1.82625,-5.53781,-0.010654,0.249072,
2,1,0,1,0,2446.48,0.263667,0.263425,14.8773,2,0.0198777,10,0.00391905,-1.82748,-5.29008,-0.0111529,0.251523,
2,1,0,1,0,2446.49,0.266064,0.26582,14.8647,2,0.0199669,10,0.00395134,-1.82784,-9.96314,-0.00592183,0.253928,
2,1,0,1,0,2446.49,0.268461,0.268164,14.8427,2,0.020056,10,0.00398029,-1.82849,-5.72939,-0.0102978,0.25629,
2,1,0,1,0,2446.5,0.270867,0.270581,14.8336,2,0.0201451,10,0.00401369,-1.82875,-3.52749,-0.0167258,0.258714,
2,1,0,1,0,2446.5,0.273264,0.272967,14.7956,2,0.020234,10,0.00403871,-1.82987,-3.02046,-0.0195334,0.26113,
2,1,0,1,0,2446.51,0.275661,0.275364,14.7754,2,0.0203227,10,0.00406862,-1.83046,-3.36713,-0.0175224,0.263544,
2,1,0,1,0,2446.52,0.278069,0.277793,14.7598,2,0.0204113,10,0.00410015,-1.83092,-2.294,-0.0257192,0.265985,
2,1,0,1,0,2446.52,0.280466,0.280149,14.7016,2,0.0204997,10,0.00411865,-1.83263,-2.01452,-0.0292874,0.268388,
2,1,0,1,0,2446.53,0.282863,0.282571,14.6676,2,0.0205878,10,0.00414463,-1.83364,-2.43218,-0.024258,0.270837,
2,1,0,1,0,2446.53,0.28526,0.284977,14.6416,2,0.0206757,10,0.00417253,-1.83441,-2.06885,-0.0285183,0.273264,
2,1,0,1,0,2446.54,0.287666,0.287401,14.5937,2,0.0207634,10,0.00419424,-1.83584,-1.93507,-0.0304898,0.275726,
2,1,0,1,0,2446.55,0.290063,0.289792,14.5492,2,0.0208508,10,0.00421626,-1.83716,-1.85156,-0.031865,0.278153,
2,1,0,1,0,2446.55,0.29246,0.292189,14.5094,2,0.020938,10,0.00423949,-1.83835,-1.70948,-0.0345135,0.280581,
2,1,0,1,0,2446.56,0.294868,0.294585,14.4572,2,0.0210249,10,0.00425888,-1.83992,-1.70922,-0.0345187,0.28302,
2,1,0,1,0,2446.56,0.297265,0.296963,14.4061,2,0.0211115,10,0.00427806,-1.84145,-2.29605,-0.0256963,0.285438,
2,1,0,1,0,2446.57,0.29958,0.299288,14.3676,2,0.0211949,10,0.00430006,-1.84262,-0.0765123,-0.771118,0.287794,
2,1,0,1,0,2446.57,0.299962,0.299842,14.2368,2,0.0212136,10,0.00426878,-1.84659,-0.0128573,-4.58884,0.288452,
2,1,0,1,0,2446.58,0.297903,0.297746,7.22257,2,0.0212661,10,0.00215049,-2.14131,-0.00369087,-15.9854,0.291968,
2,1,0,1,0,2446.58,0.295506,0.295283,1.70404,2,0.0212913,10,0.000503174,-2.76852,-0.00627423,-9.40355,0.29392,
2,0,0,1,0,2446.59,0.293101,0.292863,-1.86562,2,0.0212897,10,-0.000546371,-2.72918,0.000128287,459.906,0.294356,
2,0,0,1,0,2446.59,0.290704,0.290419,-4.19466,2,0.0212708,10,-0.00121821,-2.3773,-0.00251355,-23.4728,0.293775,
2,0,0,1,0,2446.6,0.288307,0.288062,-5.75411,2,0.0212405,10,-0.00165754,-2.24002,-0.0117564,-5.01856,0.292665,
2,0,0,1,0,2446.61,0.28591,0.285613,-6.78282,2,0.0212026,10,-0.00193726,-2.16859,-0.0279657,-2.10973,0.29104,
2,0,0,1,0,2446.61,0.283501,0.283211,-7.50602,2,0.0211595,10,-0.00212579,-2.12459,-0.0519602,-1.13548,0.289216,
2,0,0,1,0,2446.62,0.281104,0.28083,-8.0011,2,0.0211129,10,-0.00224695,-2.09685,-0.0851537,-0.692864,0.287231,
2,0,0,1,0,2446.62,0.278707,0.278431,-8.35438,2,0.0210637,10,-0.00232612,-2.07809,-0.130853,-0.450887,0.285115,
2,0,0,1,0,2446.63,0.276302,0.276004,-8.63353,2,0.0210127,10,-0.00238289,-2.06381,-0.180943,-0.326069,0.282911,
2,0,0,1,0,2446.64,0.273905,0.273637,-8.83656,2,0.0209603,10,-0.00241801,-2.05372,-0.231247,-0.255138,0.280706,
2,0,0,1,0,2446.64,0.271508,0.271205,-9.01147,2,0.0209067,10,-0.00244395,-2.0452,-0.273147,-0.216001,0.278414,
2,0,0,1,0,2446.65,0.269105,0.268791,-9.1738,2,0.0208521,10,-0.00246584,-2.03745,-0.32667,-0.18061,0.27613,
2,0,0,1,0,2446.65,0.266702,0.266406,-9.30334,2,0.0207967,10,-0.00247847,-2.03136,-0.353174,-0.167056,0.273849,
2,0,0,1,0,2446.66,0.264305,0.263988,-9.44539,2,0.0207404,10,-0.00249347,-2.02478,-0.387539,-0.152243,0.271545,
2,0,0,1,0,2446.67,0.261908,0.261584,-9.57072,2,0.0206833,10,-0.00250355,-2.01906,-0.400678,-0.14725,0.269241,
2,0,0,1,0,2446.67,0.2595,0.259256,-9.69242,2,0.0206255,10,-0.00251282,-2.01357,-0.399414,-0.147716,0.26701,
2,0,0,1,0,2446.68,0.257103,0.256807,-9.84255,2,0.0205669,10,-0.00252764,-2.00689,-0.433677,-0.136046,0.264681,
2,0,0,1,0,2446.68,0.254706,0.254397,-9.96163,2,0.0205075,10,-0.00253421,-2.00167,-0.428297,-0.137755,0.262366,
2,0,0,1,0,2446.69,0.2523,0.251977,-10.082,2,0.0204475,10,-0.00254044,-1.99645,-0.414832,-0.142226,0.260043,
2,0,0,1,0,2446.7,0.249903,0.249631,-10.2176,2,0.0203865,10,-0.00255062,-1.99065,-0.410379,-0.14377,0.257805,
2,0,0,1,0,2446.7,0.247506,0.247242,-10.332,2,0.0203249,10,-0.00255451,-1.98581,-0.412638,-0.142982,0.255508,
2,0,0,1,0,2446.71,0.245109,0.24484,-10.4678,2,0.0202625,10,-0.00256293,-1.98014,-0.403052,-0.146383,0.253214,
2,0,0,1,0,2446.71,0.242701,0.242379,-10.6125,2,0.0201992,10,-0.00257226,-1.97418,-0.40112,-0.147088,0.250869,
2,0,0,1,0,2446.72,0.240304,0.240043,-10.7393,2,0.0201351,10,-0.0025779,-1.96902,-0.441478,-0.133642,0.248635,
2,0,0,1,0,2446.73,0.237906,0.237626,-10.8772,2,0.0200703,10,-0.00258469,-1.96348,-0.429736,-0.137294,0.246327,
2,0,0,1,0,2446.73,0.235501,0.235157,-11.0249,2,0.0200046,10,-0.00259258,-1.95763,-0.417154,-0.141435,0.243977,
2,0,0,1,0,2446.74,0.233104,0.232833,-11.1591,2,0.0199381,10,-0.0025982,-1.95237,-0.39371,-0.149856,0.24176,
2,0,0,1,0,2446.74,0.230707,0.23042,-11.3196,2,0.0198706,10,-0.00260827,-1.94617,-0.395918,-0.149021,0.239476,
2,0,0,1,0,2446.75,0.22831,0.228046,-11.4327,2,0.0198023,10,-0.00260718,-1.94185,-0.401581,-0.146919,0.237192,
2,0,0,1,0,2446.76,0.225902,0.225623,-11.6159,2,0.0197331,10,-0.00262081,-1.93495,-0.380778,-0.154946,0.234916,
2,0,0,1,0,2446.76,0.223504,0.223222,-11.779,2,0.0196629,10,-0.00262934,-1.92889,-0.39213,-0.15046,0.232645,
2,0,0,1,0,2446.77,0.221107,0.220906,-11.9287,2,0.0195918,10,-0.00263512,-1.92341,-0.356715,-0.165398,0.230449,
2,0,0,1,0,2446.77,0.218699,0.218397,-12.128,2,0.0195197,10,-0.00264871,-1.91621,-0.343599,-0.171712,0.2281,
2,0,0,1,0,2446.78,0.216302,0.216047,-12.3023,2,0.0194463,10,-0.00265788,-1.91001,-0.351079,-0.168053,0.225889,
2,0,0,1,0,2446.79,0.213905,0.213629,-12.4868,2,0.0193719,10,-0.00266754,-1.90355,-0.340423,-0.173314,0.223618,
2,0,0,1,0,2446.79,0.211505,0.211207,-12.6948,2,0.0192964,10,-0.00268122,-1.89638,-0.316293,-0.186536,0.221362,
2,0,0,1,0,2446.8,0.209102,0.208839,-12.894,2,0.0192196,10,-0.00269277,-1.88961,-0.287339,-0.205332,0.219154,
2,0,0,1,0,2446.8,0.206705,0.206382,-13.1498,2,0.0191415,10,-0.00271388,-1.88108,-0.297317,-0.198441,0.216902,
2,0,0,1,0,2446.81,0.204308,0.203988,-13.3662,2,0.0190619,10,-0.00272656,-1.87399,-0.273232,-0.215934,0.214681,
2,0,0,1,0,2446.82,0.2019,0.201594,-13.6341,2,0.018981,10,-0.00274855,-1.86537,-0.262433,-0.22482,0.212501,
2,0,0,1,0,2446.82,0.199503,0.199181,-13.9013,2,0.0188984,10,-0.00276886,-1.85695,-0.250517,-0.235513,0.210302,
2,0,0,1,0,2446.83,0.197106,0.196799,-14.1642,2,0.0188141,10,-0.00278751,-1.84881,-0.234183,-0.251939,0.20813,
2,0,0,1,0,2446.83,0.194709,0.19442,-14.4688,2,0.0187282,10,-0.00281304,-1.83957,-0.221083,-0.266868,0.205996,
2,0,0,1,0,2446.84,0.192303,0.191956,-14.8445,2,0.0186402,10,-0.00284949,-1.82843,-0.207935,-0.283743,0.203832,
2,0,0,1,0,2446.85,0.189906,0.189587,-15.1718,2,0.0185501,10,-0.00287638,-1.81896,-0.206171,-0.28617,0.201725,
2,0,0,1,0,2446.85,0.187509,0.187195,-15.5554,2,0.0184579,10,-0.00291189,-1.80812,-0.188652,-0.312745,0.199639,
2,0,0,1,0,2446.86,0.185101,0.184828,-16.001,2,0.0183632,10,-0.00295743,-1.79585,-0.175739,-0.335726,0.197629,
2,0,0,1,0,2446.86,0.182704,0.18242,-16.4293,2,0.0182659,10,-0.00299704,-1.78438,-0.165393,-0.356726,0.195563,
2,0,0,1,0,2446.87,0.180307,0.180008,-16.9125,2,0.0181659,10,-0.0030444,-1.77179,-0.153603,-0.384108,0.193538,
2,0,0,1,0,2446.88,0.177904,0.177612,-17.4436,2,0.0180628,10,-0.00309819,-1.75836,-0.139538,-0.422825,0.191567,
2,0,0,1,0,2446.88,0.175501,0.175189,-18.032,2,0.0179563,10,-0.00315901,-1.74396,-0.133755,-0.441105,0.189615,
2,0,0,1,0,2446.89,0.173104,0.172836,-18.6297,2,0.0178463,10,-0.00321988,-1.72979,-0.128767,-0.458192,0.18774,
2,0,0,1,0,2446.89,0.170707,0.170443,-19.2751,2,0.0177326,10,-0.0032853,-1.715,-0.117477,-0.502227,0.185863,
2,0,0,1,0,2446.9,0.168302,0.16804,-20.0389,2,0.0176146,10,-0.00336733,-1.69813,-0.111427,-0.529496,0.184071,
2,0,0,1,0,2446.91,0.165905,0.165618,-20.8085,2,0.0174919,10,-0.00344625,-1.68176,-0.10574,-0.557972,0.182264,
2,0,0,1,0,2446.91,0.163507,0.163184,-21.6192,2,0.0173646,10,-0.00352791,-1.66516,-0.0987411,-0.597522,0.180479,
2,0,0,1,0,2446.92,0.161099,0.160867,-22.5446,2,0.0172321,10,-0.00362668,-1.64696,-0.0911547,-0.647251,0.178903,
2,0,0,1,0,2446.92,0.158702,0.158433,-23.5032,2,0.0170939,10,-0.00372369,-1.62887,-0.084208,-0.700646,0.177236,
2,0,0,1,0,2446.93,0.156305,0.156001,-24.5539,2,0.0169497,10,-0.00383042,-1.60988,-0.0808177,-0.730038,0.175644,
2,0,0,1,0,2446.94,0.153908,0.153672,-25.6858,2,0.0167988,10,-0.0039472,-1.59031,-0.0748959,-0.78776,0.174221,
2,0,0,1,0,2446.94,0.151503,0.15121,-26.8813,2,0.016641,10,-0.00406472,-1.57055,-0.0728402,-0.809993,0.172715,
2,0,0,1,0,2446.95,0.149105,0.148855,-28.118,2,0.0164759,10,-0.0041855,-1.55102,-0.0706781,-0.834771,0.171349,
2,0,0,1,0,2446.95,0.146708,0.146443,-29.4084,2,0.0163033,10,-0.00430667,-1.53153,-0.066543,-0.886645,0.16997,
2,0,0,1,0,2446.96,0.1443,0.144018,-30.7783,2,0.0161226,10,-0.00443263,-1.51176,-0.0660313,-0.893516,0.168641,
2,0,0,1,0,2446.97,0.141903,0.141672,-32.2034,2,0.0159335,10,-0.00456231,-1.4921,-0.0682843,-0.864035,0.167434,
2,0,0,1,0,2446.97,0.139506,0.139323,-33.5235,2,0.0157361,10,-0.00467059,-1.47465,-0.0661218,-0.892293,0.166142,
2,0,0,1,0,2446.98,0.137109,0.136905,-34.9835,2,0.0155305,10,-0.00478942,-1.45614,-0.0665404,-0.886679,0.164892,
2,0,0,1,0,2446.98,0.134701,0.134457,-36.5659,2,0.0153156,10,-0.00491653,-1.43692,-0.0666489,-0.885236,0.163709,
2,0,0,1,0,2446.99,0.132303,0.132091,-38.0261,2,0.0150918,10,-0.0050229,-1.41992,-0.0719903,-0.819555,0.162512,
2,0,0,1,0,2447,0.129906,0.129718,-39.5292,2,0.0148591,10,-0.00512764,-1.40308,-0.0745289,-0.791639,0.161341,
2,0,0,1,0,2447,0.127501,0.127282,-41.0057,2,0.0146173,10,-0.00521928,-1.38716,-0.0809293,-0.729032,0.160086,
2,0,0,1,0,2447.01,0.125104,0.124858,-42.401,2,0.0143669,10,-0.0052941,-1.37262,-0.0882752,-0.668365,0.158779,
2,0,0,1,0,2447.01,0.122707,0.122531,-43.8037,2,0.0141081,10,-0.00536733,-1.35849,-0.0943172,-0.625549,0.157574,
2,0,0,1,0,2447.02,0.12031,0.120119,-45.1765,2,0.013841,10,-0.00542655,-1.34509,-0.103178,-0.571825,0.15626,
2,0,0,1,0,2447.03,0.117901,0.117688,-46.5266,2,0.0135657,10,-0.00547564,-1.3323,-0.112491,-0.524486,0.15491,
2,0,0,1,0,2447.03,0.115504,0.115236,-47.7998,2,0.0132826,10,-0.00550824,-1.32057,-0.129429,-0.455848,0.153475,
2,0,0,1,0,2447.04,0.113107,0.112839,-48.9695,2,0.0129921,10,-0.00552568,-1.31007,-0.149571,-0.394463,0.152015,
2,0,0,1,0,2447.04,0.110702,0.110471,-50.0761,2,0.0126948,10,-0.00553196,-1.30037,-0.177463,-0.332463,0.150532,
2,0,0,1,0,2447.05,0.108305,0.108074,-51.0267,2,0.0123914,10,-0.00551465,-1.2922,-0.21596,-0.273199,0.148895,
2,0,0,1,0,2447.06,0.105908,0.10562,-51.8659,2,0.0120826,10,-0.00547807,-1.28512,-0.26143,-0.225682,0.147113,
2,0,0,1,0,2447.06,0.103505,0.103234,-52.6206,2,0.011769,10,-0.00543224,-1.27884,-0.3448,-0.171114,0.14533,
2,0,0,1,0,2447.07,0.101102,0.100846,-53.1881,2,0.0114514,10,-0.00536381,-1.27419,-0.485207,-0.121598,0.143396,
2,0,0,1,0,2447.07,0.0987052,0.0984791,-53.6153,2,0.0111309,10,-0.00527999,-1.27071,-0.762788,-0.0773478,0.141371,
2,0,0,1,0,2447.08,0.0963081,0.0960211,-53.8978,2,0.0108083,10,-0.00517532,-1.26843,-1.61848,-0.036454,0.139139,
2,0,0,1,0,2447.09,0.0938999,0.0935896,-53.9825,2,0.0104845,10,-0.0050522,-1.26775,20.4095,0.00289081,0.136776,
2,0,0,1,0,2447.09,0.0915028,0.0912164,-53.8605,2,0.010161,10,-0.00491296,-1.26873,1.46303,0.0403272,0.134305,
2,0,0,1,0,2447.1,0.0891057,0.0888008,-53.567,2,0.00983865,10,-0.00475679,-1.2711,0.843764,0.0699247,0.131654,
2,0,0,1,0,2447.1,0.0867002,0.0863947,-53.0704,2,0.00951876,10,-0.004585,-1.27515,0.590704,0.0998807,0.128851,
2,0,0,1,0,2447.11,0.0843031,0.0839897,-52.3683,2,0.00920243,10,-0.0043984,-1.28093,0.464512,0.127015,0.125884,
2,0,0,1,0,2447.12,0.081906,0.0815996,-51.495,2,0.00889083,10,-0.00420197,-1.28823,0.397076,0.148586,0.122796,
2,0,0,1,0,2447.12,0.0795089,0.0791903,-50.4721,2,0.00858496,10,-0.0039969,-1.29695,0.3504,0.168379,0.119568,
2,0,0,1,0,2447.13,0.0771007,0.0767715,-49.3225,2,0.0082856,10,-0.00378656,-1.30695,0.312395,0.188863,0.11623,
2,0,0,1,0,2447.13,0.0747036,0.0743814,-48.0193,2,0.00799367,10,-0.00357174,-1.31858,0.290969,0.20277,0.112797,
2,0,0,1,0,2447.14,0.0723065,0.0720294,-46.6833,2,0.00770967,10,-0.00336257,-1.33084,0.276013,0.213758,0.109376,
2,0,0,1,0,2447.15,0.0699011,0.069583,-45.304,2,0.00743384,10,-0.00315239,-1.34386,0.262775,0.224526,0.105826,
2,0,0,1,0,2447.15,0.067504,0.0672321,-43.877,2,0.00716646,10,-0.00294995,-1.35776,0.255443,0.230971,0.102334,
2,0,0,1,0,2447.16,0.0651069,0.0647783,-42.5101,2,0.00690748,10,-0.00275373,-1.37151,0.253234,0.232986,0.0987864,
2,0,0,1,0,2447.16,0.0627098,0.0624274,-41.1542,2,0.0066566,10,-0.00256915,-1.38559,0.24686,0.239002,0.0953508,
2,0,0,1,0,2447.17,0.0603016,0.0599906,-39.8632,2,0.00641369,10,-0.00239141,-1.39943,0.246711,0.239146,0.0918811,
2,0,0,1,0,2447.18,0.0579045,0.0576089,-38.6175,2,0.00617843,10,-0.00222471,-1.41322,0.246378,0.239469,0.0885029,
2,0,0,1,0,2447.18,0.0555074,0.0551817,-37.4211,2,0.00595043,10,-0.00206496,-1.42688,0.248201,0.237711,0.0851185,
2,0,0,1,0,2447.19,0.0530992,0.052836,-36.3197,2,0.00572935,10,-0.00191899,-1.43986,0.248124,0.237785,0.0818918,
2,0,0,1,0,2447.19,0.0507021,0.0503706,-35.239,2,0.00551482,10,-0.00177501,-1.45298,0.249033,0.236917,0.0785618,
2,0,0,1,0,2447.2,0.048305,0.0479932,-34.1888,2,0.00530669,10,-0.00164083,-1.46612,0.2484,0.23752,0.0753442,
2,0,0,1,0,2447.21,0.0459051,0.0456083,-33.1945,2,0.00510465,10,-0.00151394,-1.47893,0.244778,0.241035,0.0721639,
2,0,0,1,0,2447.21,0.0435024,0.0432171,-32.2162,2,0.00490851,10,-0.00139229,-1.49193,0.24453,0.24128,0.0689901,
2,0,0,1,0,2447.22,0.0411053,0.040793,-31.2689,2,0.0047182,10,-0.00127555,-1.50489,0.243619,0.242181,0.0658082,
2,0,0,1,0,2447.22,0.0387082,0.038388,-30.3545,2,0.00453342,10,-0.00116525,-1.51778,0.240265,0.245562,0.0626716,
2,0,0,1,0,2447.23,0.0363,0.0360053,-29.438,2,0.00435418,10,-0.00105992,-1.53109,0.237799,0.248109,0.0595556,
2,0,0,1,0,2447.24,0.0339029,0.0335981,-28.5773,2,0.00418025,10,-0.000960145,-1.54398,0.240404,0.24542,0.05646,
2,0,0,1,0,2447.24,0.0315058,0.0312037,-27.75,2,0.00401136,10,-0.000865904,-1.55674,0.241013,0.2448,0.0534037,
2,0,0,1,0,2447.25,0.0291087,0.0287956,-26.9277,2,0.00384743,10,-0.000775399,-1.5698,0.244164,0.241641,0.0503377,
2,0,0,1,0,2447.25,0.0267033,0.0264372,-26.2059,2,0.00368807,10,-0.000692812,-1.5816,0.255323,0.23108,0.047402,
2,0,0,1,0,2447.26,0.0243062,0.0239887,-25.5512,2,0.00353286,10,-0.00061294,-1.59259,0.270414,0.218184,0.0444297,
2,0,0,1,0,2447.27,0.0219091,0.0216304,-24.9401,2,0.00338148,10,-0.000539464,-1.6031,0.286947,0.205613,0.0415825,
2,0,0,1,0,2447.27,0.0195009,0.0191893,-24.415,2,0.00323351,10,-0.000468508,-1.61234,0.323321,0.182481,0.0387213,
2,0,0,1,0,2447.28,0.0171038,0.0168108,-23.9753,2,0.00308844,10,-0.000403045,-1.62024,0.368165,0.160254,0.0359911,
2,0,0,1,0,2447.28,0.0147067,0.014426,-23.604,2,0.00294578,10,-0.000340511,-1.62701,0.427933,0.137872,0.0333092,
2,0,0,1,0,2447.29,0.012304,0.0120411,-23.2923,2,0.00280518,10,-0.000280466,-1.63279,0.518001,0.113899,0.030675,
2,0,0,1,0,2447.3,0.00990136,0.00961599,-23.0474,2,0.00266623,10,-0.000221623,-1.63738,0.677665,0.0870637,0.0280539,
2,0,0,1,0,2447.3,0.00750426,0.00724068,-22.891,2,0.00252846,10,-0.000165747,-1.64033,0.845987,0.0697411,0.0255535,
2,0,0,1,0,2447.31,0.00510715,0.00480598,-22.732,2,0.00239158,10,-0.00010925,-1.64336,1.7424,0.0338613,0.0229916,
2,0,0,1,0,2447.31,0.00270173,0.00240734,-22.6606,2,0.00225541,10,-5.45519e-05,-1.64473,4.01706,0.0146873,0.0205358,
2,0,0,1,0,2447.32,0.000304623,-4.2195e-05,-22.714,2,0.00211909,10,9.58415e-07,-1.64371,11.9495,0.00493743,0.018129,
2,0,0,1,0,2447.33,-0.00209248,-0.00245462,-22.6772,2,0.0019829,10,5.56639e-05,-1.64441,13.6731,0.00431504,0.0156871,
2,0,0,1,0,2447.33,-0.00450068,-0.00480872,-22.6867,2,0.00184687,10,0.000109094,-1.64423,-4.93141,-0.0119641,0.0133407,
2,0,0,1,0,2447.34,-0.00689779,-0.00724448,-22.7428,2,0.00171057,10,0.00016476,-1.64316,-2.10609,-0.028014,0.0109498,
2,0,0,1,0,2447.34,-0.00929489,-0.00957844,-22.8025,2,0.00157395,10,0.000218412,-1.64202,-1.74348,-0.0338403,0.00866355,
2,0,0,1,0,2447.35,-0.011692,-0.0120259,-22.8735,2,0.00143691,10,0.000275074,-1.64067,-1.30068,-0.0453609,0.00627298,
2,0,0,1,0,2447.36,-0.0140974,-0.0144404,-22.984,2,0.00129931,10,0.000331898,-1.63857,-1.08439,-0.0544083,0.0039468,
2,0,0,1,0,2447.36,-0.0164945,-0.016838,-23.1044,2,0.00116102,10,0.000389031,-1.63631,-1.03982,-0.0567405,0.0016455,
2,0,0,1,0,2447.37,-0.0188916,-0.0192578,-23.2307,2,0.00102198,10,0.000447374,-1.63394,-0.942514,-0.0625986,-0.000673234,
2,0,0,1,0,2447.37,-0.0212998,-0.0216225,-23.3586,2,0.000882215,10,0.000505073,-1.63155,-0.839734,-0.0702604,-0.00293564,
2,0,0,1,0,2447.38,-0.0236969,-0.024,-23.5365,2,0.000741526,10,0.000564875,-1.62826,-0.801147,-0.0736444,-0.00517077,
2,0,0,1,0,2447.39,-0.026094,-0.0264537,-23.689,2,0.000599843,10,0.000626663,-1.62545,-0.799262,-0.0738181,-0.00750255,
2,0,0,1,0,2447.39,-0.0284912,-0.0288439,-23.8204,2,0.000457334,10,0.000687074,-1.62305,-0.757906,-0.0778461,-0.00978758,
2,0,0,1,0,2447.4,-0.0308994,-0.0312213,-24.019,2,0.000313796,10,0.000749906,-1.61944,-0.726927,-0.0811636,-0.0120061,
2,0,0,1,0,2447.4,-0.0332965,-0.0336073,-24.1848,2,0.000169188,10,0.000812783,-1.61646,-0.727753,-0.0810715,-0.0142594,
2,0,0,1,0,2447.41,-0.0356936,-0.0360303,-24.3397,2,2.3622e-05,10,0.000876965,-1.61369,-0.713108,-0.0827364,-0.0165586,
2,0,0,1,0,2447.42,-0.038099,-0.03843,-24.5392,2,-0.000123062,10,0.000943042,-1.61014,-0.676796,-0.0871754,-0.0187986,
2,0,0,1,0,2447.42,-0.0404961,-0.0408615,-24.7231,2,-0.000270873,10,0.00101022,-1.6069,-0.708991,-0.0832169,-0.021083,
2,0,0,1,0,2447.43,-0.0428932,-0.0432506,-24.8886,2,-0.00041974,10,0.00107645,-1.604,-0.700663,-0.084206,-0.0233397,
2,0,0,1,0,2447.43,-0.0452903,-0.0456121,-25.0672,2,-0.000569666,10,0.00114337,-1.60089,-0.682236,-0.0864804,-0.0255583,
2,0,0,1,0,2447.44,-0.0476985,-0.0480076,-25.2774,2,-0.000720736,10,0.00121351,-1.59727,-0.672764,-0.087698,-0.0277856,
2,0,0,1,0,2447.45,-0.0500956,-0.0504773,-25.4716,2,-0.000872988,10,0.00128574,-1.59394,-0.740251,-0.0797027,-0.0301,
2,0,0,1,0,2447.45,-0.0524927,-0.052825,-25.6209,2,-0.00102631,10,0.00135342,-1.59141,-0.69537,-0.0848469,-0.0323283,
2,0,0,1,0,2447.46,-0.0548981,-0.0552544,-25.8505,2,-0.00118072,10,0.00142836,-1.58753,-0.67319,-0.0876425,-0.034574,
2,0,0,1,0,2447.46,-0.0572953,-0.0576265,-26.0374,2,-0.00133641,10,0.00150045,-1.5844,-0.714086,-0.0826231,-0.0367966,
2,0,0,1,0,2447.47,-0.0596924,-0.0600082,-26.2101,2,-0.00149318,10,0.00157282,-1.58153,-0.688542,-0.0856883,-0.0390401,
2,0,0,1,0,2447.48,-0.062095,-0.0624599,-26.4267,2,-0.00165104,10,0.00165061,-1.57796,-0.664891,-0.0887364,-0.0413185,
2,0,0,1,0,2447.48,-0.0644977,-0.0648394,-26.6456,2,-0.00181029,10,0.00172769,-1.57437,-0.663725,-0.0888922,-0.0435229,
2,0,0,1,0,2447.49,-0.0668948,-0.0672105,-26.814,2,-0.00197067,10,0.00180218,-1.57164,-0.720966,-0.0818347,-0.0457593,
2,0,0,1,0,2447.49,-0.0692919,-0.0696219,-27.0139,2,-0.00213217,10,0.00188076,-1.56841,-0.666747,-0.0884893,-0.0480107,
2,0,0,1,0,2447.5,-0.0717001,-0.072029,-27.2446,2,-0.00229498,10,0.0019624,-1.56472,-0.653189,-0.090326,-0.0502333,
2,0,0,1,0,2447.51,-0.0740972,-0.074416,-27.4595,2,-0.00245909,10,0.00204343,-1.56131,-0.670577,-0.0879839,-0.0524483,
2,0,0,1,0,2447.51,-0.0764943,-0.076839,-27.6596,2,-0.00262445,10,0.00212534,-1.55815,-0.642201,-0.0918716,-0.0547113,
2,0,0,1,0,2447.52,-0.0788997,-0.0792578,-27.903,2,-0.00279109,10,0.00221153,-1.55435,-0.604048,-0.0976744,-0.0569354,
2,0,0,1,0,2447.52,-0.0812968,-0.0816299,-28.1474,2,-0.00295924,10,0.00229767,-1.55056,-0.607978,-0.097043,-0.059112,
2,0,0,1,0,2447.53,-0.0836939,-0.0840328,-28.3652,2,-0.0031288,10,0.00238361,-1.54721,-0.598185,-0.0986317,-0.0613407,
2,0,0,1,0,2447.54,-0.086091,-0.0864484,-28.5993,2,-0.00329967,10,0.00247236,-1.54364,-0.563219,-0.104755,-0.063569,
2,0,0,1,0,2447.54,-0.0884992,-0.0888216,-28.8922,2,-0.0034722,10,0.00256625,-1.53922,-0.55455,-0.106393,-0.0657078,
2,0,0,1,0,2447.55,-0.0908963,-0.091199,-29.1302,2,-0.00364633,10,0.00265665,-1.53566,-0.559818,-0.105391,-0.0678948,
2,0,0,1,0,2447.55,-0.0932934,-0.0935828,-29.3962,2,-0.00382192,10,0.00275097,-1.53171,-0.523545,-0.112693,-0.0700659,
2,0,0,1,0,2447.56,-0.0956989,-0.0960249,-29.7206,2,-0.00399928,10,0.00285392,-1.52694,-0.512638,-0.115091,-0.0722485,
2,0,0,1,0,2447.57,-0.098096,-0.098449,-29.9927,2,-0.00417845,10,0.00295275,-1.52298,-0.559313,-0.105487,-0.0744549,
2,0,0,0,0,2447.57,-0.0999548,-0.100305,-30.2021,2,-0.00431993,10,0.00302942,-1.51996,0.0701835,0.840654,-0.076143,
2,0,0,1,1,2447.57,-0.0994555,-0.0999495,-28.0968,2,-0.00436906,10,0.00280827,-1.55134,0.0288726,2.04346,-0.077472,
2,0,0,1,1,2447.58,-0.0970583,-0.0974978,-19.8293,2,-0.00451113,10,0.00193332,-1.70269,0.0207785,2.83947,-0.0816344,
2,0,0,1,1,2447.58,-0.0946501,-0.0950737,-13.1077,2,-0.00460879,10,0.0012462,-1.88247,0.0116364,5.07028,-0.0845876,
2,0,0,1,1,2447.59,-0.092253,-0.0926613,-7.49136,2,-0.00466957,10,0.000694159,-2.12544,0.00445065,13.2565,-0.0866682,
2,0,0,1,1,2447.6,-0.0898559,-0.0902998,-2.79472,2,-0.00469955,10,0.000252363,-2.55366,0.00489755,12.0468,-0.088064,
2,1,0,1,1,2447.6,-0.0874588,-0.0879552,1.18747,2,-0.00470366,10,-0.000104445,-2.92538,-0.0126497,-4.66416,-0.0889052,
2,1,0,1,1,2447.61,-0.0850534,-0.0854983,4.64049,2,-0.00468555,10,-0.000396754,-2.33344,-0.00020429,-288.804,-0.0892107,
2,1,0,1,1,2447.61,-0.0826563,-0.0831251,7.56172,2,-0.0046484,10,-0.000628568,-2.12138,0.00111879,52.7357,-0.0891744,
2,1,0,1,1,2447.62,-0.0802592,-0.0806819,10.0239,2,-0.0045952,10,-0.000808747,-1.99896,0.00501787,11.758,-0.088701,
2,1,0,1,1,2447.63,-0.077851,-0.0783458,12.1993,2,-0.00452826,10,-0.000955765,-1.91366,0.0105493,5.59278,-0.0881053,
2,1,0,1,1,2447.63,-0.0754539,-0.0758284,14.0941,2,-0.00444908,10,-0.00106873,-1.85096,0.0185631,3.17835,-0.0871037,
2,1,0,1,1,2447.64,-0.0730568,-0.0734998,15.6974,2,-0.0043594,10,-0.00115376,-1.80417,0.0286553,2.05896,-0.0860577,
2,1,0,1,1,2447.64,-0.0706597,-0.0710195,17.0728,2,-0.00426081,10,-0.0012125,-1.7677,0.0416791,1.41558,-0.0846777,
2,1,0,1,1,2447.65,-0.0682542,-0.0686283,18.3015,2,-0.00415444,10,-0.001256,-1.73751,0.0587807,1.00373,-0.0832695,
2,1,0,1,1,2447.66,-0.0658571,-0.0661904,19.2812,2,-0.0040415,10,-0.00127623,-1.71487,0.0824009,0.716012,-0.0816153,
2,1,0,1,1,2447.66,-0.06346,-0.0638585,20.0963,2,-0.00392322,10,-0.00128332,-1.69688,0.104092,0.566805,-0.0799356,
2,1,0,1,1,2447.67,-0.0610518,-0.0614154,20.8368,2,-0.0038003,10,-0.0012797,-1.68117,0.136212,0.433148,-0.0780848,
2,1,0,1,1,2447.67,-0.0586547,-0.0589998,21.4326,2,-0.00367335,10,-0.00126452,-1.66892,0.179319,0.329022,-0.0761459,
2,1,0,1,1,2447.68,-0.0562576,-0.0566435,21.9059,2,-0.00354328,10,-0.00124083,-1.65944,0.22432,0.263017,-0.0741682,
2,1,0,1,1,2447.69,-0.053855,-0.0542619,22.337,2,-0.00341051,10,-0.00121205,-1.65097,0.276463,0.21341,-0.0721315,
2,1,0,1,1,2447.69,-0.0514523,-0.0518007,22.6799,2,-0.00327538,10,-0.00117483,-1.64436,0.357123,0.165209,-0.0699446,
2,1,0,1,1,2447.7,-0.0490552,-0.0494306,22.9458,2,-0.00313846,10,-0.00113422,-1.6393,0.477632,0.123526,-0.0677873,
2,1,0,1,1,2447.7,-0.0466581,-0.0469949,23.1603,2,-0.00300011,10,-0.00108842,-1.63526,0.59882,0.0985271,-0.0655231,
2,1,0,1,1,2447.71,-0.0442527,-0.0446546,23.3449,2,-0.00286052,10,-0.00104246,-1.63181,0.79638,0.0740853,-0.0633305,
2,1,0,1,1,2447.72,-0.0418556,-0.0422146,23.467,2,-0.00272005,10,-0.000990651,-1.62954,1.29927,0.0454102,-0.0609882,
2,1,0,1,1,2447.72,-0.0394585,-0.0398191,23.5449,2,-0.00257895,10,-0.000937539,-1.6281,1.5918,0.0370649,-0.0586551,
2,1,0,1,1,2447.73,-0.0370558,-0.0374014,23.6138,2,-0.00243749,10,-0.000883188,-1.62683,2.42256,0.0243544,-0.0562924,
2,1,0,1,1,2447.73,-0.0346532,-0.0350091,23.6653,2,-0.00229559,10,-0.0008285,-1.62589,6.25592,0.00943107,-0.0539413,
2,1,0,1,1,2447.74,-0.0322561,-0.0326031,23.6538,2,-0.00215362,10,-0.000771187,-1.6261,-10.9372,-0.00539445,-0.0515261,
2,1,0,1,1,2447.75,-0.0298589,-0.0301938,23.6332,2,-0.00201176,10,-0.000713576,-1.62648,-9.46827,-0.00623134,-0.0491003,
2,1,0,1,1,2447.75,-0.0274535,-0.027792,23.63,2,-0.00186994,10,-0.000656725,-1.62654,-3.7994,-0.0155287,-0.046696,
2,1,0,1,1,2447.76,-0.0250564,-0.0253997,23.5664,2,-0.00172834,10,-0.00059858,-1.62771,-2.24977,-0.0262249,-0.0442528,
2,1,0,1,1,2447.76,-0.0226593,-0.0230339,23.5025,2,-0.00158714,10,-0.000541355,-1.62889,-2.2712,-0.0259775,-0.0418359,
2,1,0,1,1,2447.77,-0.0202511,-0.0206247,23.4611,2,-0.00144627,10,-0.000483877,-1.62965,-1.80394,-0.0327062,-0.0393935,
2,1,0,1,1,2447.78,-0.017854,-0.0181932,23.3595,2,-0.00130581,10,-0.000424984,-1.63154,-1.47424,-0.0400207,-0.0368808,
2,1,0,1,1,2447.78,-0.0154569,-0.0158104,23.2649,2,-0.00116594,10,-0.000367829,-1.6333,-1.3542,-0.0435682,-0.0344224,
2,1,0,1,1,2447.79,-0.0130598,-0.0134309,23.1576,2,-0.00102667,10,-0.000311027,-1.63531,-1.38793,-0.0425094,-0.031957,
2,1,0,1,1,2447.79,-0.0106516,-0.0110291,23.0806,2,-0.000887935,10,-0.000254557,-1.63675,-1.26314,-0.0467091,-0.0294935,
2,1,0,1,1,2447.8,-0.00825448,-0.00859756,22.9607,2,-0.000749824,10,-0.000197406,-1.63901,-1.13756,-0.0518652,-0.0269661,
2,1,0,1,1,2447.81,-0.00585738,-0.00620422,22.8373,2,-0.000612463,10,-0.000141688,-1.64136,-1.18641,-0.0497298,-0.0244741,
2,1,0,1,1,2447.81,-0.00345195,-0.00378543,22.7512,2,-0.000475695,10,-8.6123e-05,-1.643,-1.12049,-0.0526553,-0.0219864,
2,1,0,1,1,2447.82,-0.00105485,-0.0014186,22.617,2,-0.000339604,10,-3.20846e-05,-1.64556, , ,-0.0195122,
2,1,0,0,1,2447.82,-7.54729e-05,-0.000478022,22.5599,2,-0.000283143,10,-1.07841e-05,-1.64666, , ,-0.0185259,