File: Figure_codes/Fig_S3_S4/20221101_1-115_002_TrumpetPlot_ParaChange_12_CV_C01_1.csv
mode,ox/red,error,control changes,counter inc.,time/s,control/V,Ewe/V,<I>/mA,cycle number,(Q-Qo)/C,I Range,P/W,log(|I|),Tafel slope mV/dec,alpha_eff,E-IR/V,
2,1,0,0,0,2441.72,2.44065e-05,-0.000401673,6.93894,2,0.0000000E+000,10,-2.78718e-06,-2.15871, , ,-0.00595282,
2,1,0,1,0,2441.73,0.00179726,0.00142117,7.81752,2,6.47062e-05,10,1.111e-05,-2.10693, , ,-0.00483285,
2,1,0,1,0,2441.74,0.00379485,0.00350487,8.79313,2,0.000148299,10,3.08187e-05,-2.05586,0.034164,1.72696,-0.00352964,
2,1,0,1,0,2441.75,0.00579244,0.00549392,9.43015,2,0.000239698,10,5.18085e-05,-2.02548,0.0624874,0.94419,-0.0020502,
2,1,0,1,0,2441.76,0.00779002,0.00751479,9.87372,2,0.000336457,10,7.41989e-05,-2.00552,0.0981716,0.600988,-0.000384181,
2,1,0,1,0,2441.77,0.00977853,0.00951592,10.2121,2,0.000436012,10,9.71777e-05,-1.99088,0.162852,0.362293,0.00134623,
2,1,0,1,0,2441.78,0.0117761,0.0115053,10.3864,2,0.00053919,10,0.000119499,-1.98353,0.278228,0.212057,0.0031962,
2,1,0,1,0,2441.79,0.0137737,0.0134627,10.5291,2,0.000643805,10,0.000141749,-1.97761,0.413693,0.142618,0.00503941,
2,1,0,1,0,2441.8,0.0157713,0.0154781,10.6082,2,0.000749585,10,0.000164194,-1.97436,0.611698,0.0964528,0.00699157,
2,1,0,1,0,2441.81,0.017778,0.0174857,10.6847,2,0.000856138,10,0.00018683,-1.97124,1.12188,0.0525904,0.00893797,
2,1,0,1,0,2441.82,0.0197755,0.0195081,10.6948,2,0.000963016,10,0.000208635,-1.97083,4.54638,0.0129774,0.0109523,
2,1,0,1,0,2441.83,0.0217731,0.0214576,10.7061,2,0.00106994,10,0.000229728,-1.97037,-28.4973,-0.00207037,0.0128927,
2,1,0,1,0,2441.84,0.0237707,0.0235208,10.6913,2,0.00117698,10,0.000251468,-1.97097,87.5896,0.000673596,0.0149678,
2,1,0,1,0,2441.85,0.0257774,0.0255163,10.7073,2,0.00128394,10,0.00027321,-1.97032,-29.4178,-0.00200559,0.0169505,
2,1,0,1,0,2441.86,0.027775,0.0274745,10.688,2,0.00139095,10,0.000293647,-1.9711,-6.27094,-0.00940848,0.0189241,
2,1,0,1,0,2441.87,0.0297726,0.0294813,10.6917,2,0.00149786,10,0.000315203,-1.97096,-6.23996,-0.00945519,0.0209279,
2,1,0,1,0,2441.88,0.0317701,0.0315002,10.6721,2,0.00160474,10,0.000336172,-1.97175,4.21389,0.0140013,0.0229625,
2,1,0,1,0,2441.89,0.0337587,0.0334378,10.7147,2,0.00171051,10,0.000358275,-1.97002,4.69141,0.0125762,0.024866,
2,1,0,1,0,2441.9,0.0357562,0.0354173,10.6925,2,0.00181756,10,0.0003787,-1.97092,-11.2438,-0.00524732,0.0268633,
2,1,0,1,0,2441.91,0.0377538,0.037466,10.7058,2,0.00192457,10,0.000401104,-1.97038,5.78357,0.0102013,0.0289013,
2,1,0,1,0,2441.92,0.0397514,0.0394336,10.7096,2,0.00203164,10,0.000422316,-1.97023,1.4708,0.0401142,0.0308659,
2,1,0,1,0,2441.93,0.0417399,0.0414264,10.7715,2,0.00213786,10,0.000446226,-1.96772,1.368,0.0431288,0.0328092,
2,1,0,1,0,2441.94,0.0437375,0.0434757,10.7816,2,0.00224565,10,0.00046874,-1.96732,2.55496,0.0230923,0.0348504,
2,1,0,1,0,2441.95,0.0457351,0.0454365,10.8102,2,0.00235355,10,0.000491179,-1.96617,1.50432,0.0392204,0.0367883,
2,1,0,1,0,2441.96,0.0477327,0.0474329,10.8463,2,0.00246193,10,0.00051447,-1.96472,0.773983,0.0762291,0.0387559,
2,1,0,1,0,2441.97,0.0497393,0.0494405,10.9365,2,0.00257077,10,0.000540705,-1.96112,0.760293,0.0776017,0.0406913,
2,1,0,1,0,2441.98,0.0517369,0.0514065,10.9742,2,0.00268034,10,0.000564145,-1.95963,0.730174,0.0808026,0.0426272,
2,1,0,1,0,2441.99,0.0537345,0.0534168,11.0707,2,0.00279055,10,0.000591362,-1.95582,0.571532,0.103231,0.0445602,
2,1,0,1,0,2442,0.0557321,0.0553923,11.1457,2,0.00290172,10,0.000617385,-1.95289,0.545727,0.108113,0.0464757,
2,1,0,1,0,2442.01,0.0577297,0.057393,11.2512,2,0.00301363,10,0.000645738,-1.9488,0.45961,0.12837,0.0483921,
2,1,0,1,0,2442.02,0.0597364,0.059418,11.3629,2,0.00312681,10,0.000675158,-1.94451,0.405566,0.145476,0.0503277,
2,1,0,1,0,2442.03,0.0617339,0.0614274,11.4989,2,0.00324109,10,0.000706347,-1.93934,0.406856,0.145014,0.0522282,
2,1,0,1,0,2442.04,0.0637315,0.0634281,11.6106,2,0.00335667,10,0.000736441,-1.93514,0.379543,0.15545,0.0541395,
2,1,0,1,0,2442.05,0.0657291,0.0654227,11.7658,2,0.0034735,10,0.000769749,-1.92938,0.31138,0.189479,0.05601,
2,1,0,1,0,2442.06,0.0677176,0.0674219,11.9357,2,0.00359094,10,0.000804727,-1.92315,0.310961,0.189734,0.0578734,
2,1,0,1,0,2442.07,0.0697152,0.0694054,12.0944,2,0.00371112,10,0.000839415,-1.91742,0.328079,0.179835,0.0597299,
2,1,0,1,0,2442.08,0.0717128,0.0714645,12.257,2,0.00383293,10,0.000875943,-1.91161,0.294154,0.200575,0.0616588,
2,1,0,1,0,2442.09,0.0737104,0.0734177,12.4523,2,0.00395647,10,0.00091422,-1.90475,0.262905,0.224416,0.0634559,
2,1,0,1,0,2442.1,0.0756989,0.075375,12.6493,2,0.00408079,10,0.000953441,-1.89793,0.254469,0.231855,0.0652555,
2,1,0,1,0,2442.11,0.0776965,0.0773765,12.8677,2,0.00420834,10,0.000995658,-1.8905,0.244528,0.241282,0.0670824,
2,1,0,1,0,2442.12,0.0796941,0.0794154,13.0957,2,0.00433823,10,0.00104,-1.88287,0.230841,0.255587,0.0689388,
2,1,0,1,0,2442.13,0.0816916,0.0813918,13.3429,2,0.00447045,10,0.001086,-1.87475,0.225504,0.261637,0.0707175,
2,1,0,1,0,2442.14,0.0836983,0.083376,13.5821,2,0.00460515,10,0.00113242,-1.86703,0.232557,0.253702,0.0725103,
2,1,0,1,0,2442.15,0.0856959,0.0854218,13.8323,2,0.00474221,10,0.00118158,-1.85911,0.242541,0.243257,0.074356,
2,1,0,1,0,2442.16,0.0876935,0.0874226,14.0626,2,0.00488176,10,0.00122939,-1.85193,0.238566,0.247311,0.0761725,
2,1,0,1,0,2442.17,0.0896911,0.089359,14.3146,2,0.00502365,10,0.00127914,-1.84422,0.219269,0.269076,0.0779073,
2,1,0,1,0,2442.18,0.0916978,0.0913728,14.5931,2,0.00516824,10,0.00133341,-1.83585,0.221864,0.265928,0.0796983,
2,1,0,1,0,2442.19,0.0936953,0.0933665,14.8557,2,0.00531553,10,0.00138702,-1.82811,0.243392,0.242408,0.081482,
2,1,0,1,0,2442.2,0.0956929,0.0953889,15.1001,2,0.0054654,10,0.00144038,-1.82102,0.246509,0.239342,0.0833088,
2,1,0,1,0,2442.21,0.0976905,0.0973896,15.3659,2,0.00561773,10,0.00149647,-1.81344,0.227518,0.25932,0.0850969,
2,1,0,1,0,2442.22,0.099679,0.0993447,15.6474,2,0.00577129,10,0.00155449,-1.80556,0.233578,0.252592,0.0868267,
2,1,0,1,0,2442.23,0.101677,0.101376,15.9129,2,0.00592912,10,0.00161318,-1.79825,0.248011,0.237893,0.0886456,
2,1,0,1,0,2442.24,0.103674,0.103363,16.1783,2,0.00608964,10,0.00167225,-1.79107,0.235352,0.250689,0.0904207,
2,1,0,1,0,2442.25,0.105672,0.105381,16.476,2,0.0062529,10,0.00173626,-1.78315,0.233227,0.252973,0.0922002,
2,1,0,1,0,2442.26,0.107656,0.10738,16.7561,2,0.00641744,10,0.00179928,-1.77583,0.232309,0.253973,0.0939751,
2,1,0,1,0,2442.27,0.109658,0.109367,17.0607,2,0.00658652,10,0.00186588,-1.768,0.228521,0.258182,0.0957183,
2,1,0,1,0,2442.28,0.111655,0.111333,17.3533,2,0.00675866,10,0.00193199,-1.76062,0.223477,0.26401,0.0974503,
2,1,0,1,0,2442.29,0.113653,0.113347,17.6839,2,0.00693387,10,0.00200442,-1.75242,0.218184,0.270414,0.0992003,
2,1,0,1,0,2442.3,0.115651,0.115308,17.9985,2,0.00711235,10,0.00207537,-1.74476,0.201507,0.292794,0.100909,
2,1,0,1,0,2442.31,0.117657,0.117374,18.3964,2,0.00729439,10,0.00215925,-1.73527,0.18943,0.311461,0.102657,
2,1,0,1,0,2442.32,0.119655,0.119345,18.7636,2,0.00748031,10,0.00223934,-1.72668,0.189331,0.311623,0.104334,
2,1,0,1,0,2442.33,0.121652,0.121358,19.1657,2,0.00766996,10,0.00232591,-1.71748,0.179107,0.329412,0.106026,
2,1,0,1,0,2442.34,0.12365,0.123376,19.5936,2,0.00786384,10,0.00241738,-1.70789,0.158681,0.371816,0.107701,
2,1,0,1,0,2442.35,0.125657,0.12535,20.0915,2,0.00806235,10,0.00251847,-1.69699,0.152378,0.387195,0.109277,
2,1,0,1,0,2442.36,0.127654,0.127353,20.5644,2,0.00826572,10,0.00261895,-1.68688,0.148291,0.397867,0.110902,
2,1,0,1,0,2442.37,0.129652,0.129352,21.1107,2,0.00847414,10,0.00273072,-1.6755,0.138678,0.425445,0.112464,
2,1,0,1,0,2442.38,0.131649,0.131373,21.6648,2,0.00868816,10,0.00284617,-1.66425,0.131299,0.449356,0.114041,
2,1,0,1,0,2442.39,0.133638,0.133341,22.2738,2,0.00890577,10,0.00297001,-1.65221,0.123905,0.476171,0.115522,
2,1,0,1,0,2442.4,0.135636,0.1353,22.8859,2,0.00913167,10,0.00309647,-1.64043,0.124462,0.474041,0.116992,
2,1,0,1,0,2442.41,0.137633,0.137345,23.5409,2,0.00936381,10,0.00323323,-1.62818,0.124168,0.475164,0.118512,
2,1,0,1,0,2442.42,0.139631,0.139334,24.1907,2,0.00960257,10,0.00337059,-1.61635,0.121186,0.486855,0.119982,
2,1,0,1,0,2442.43,0.141619,0.141315,24.8754,2,0.00984543,10,0.00351526,-1.60423,0.121836,0.484259,0.121414,
2,1,0,1,0,2442.44,0.143617,0.143328,25.5549,2,0.0100977,10,0.00366275,-1.59253,0.12528,0.470944,0.122884,
2,1,0,1,0,2442.45,0.145614,0.14531,26.2393,2,0.0103567,10,0.00381283,-1.58105,0.129445,0.455791,0.124319,
2,1,0,1,0,2442.46,0.147612,0.147291,26.9009,2,0.0106225,10,0.00396225,-1.57023,0.13491,0.437329,0.12577,
2,1,0,1,0,2442.47,0.149619,0.149318,27.5855,2,0.010895,10,0.00411902,-1.55932,0.143914,0.409968,0.12725,
2,1,0,1,0,2442.48,0.151616,0.151339,28.2203,2,0.0111742,10,0.00427083,-1.54944,0.15716,0.375414,0.128763,
2,1,0,1,0,2442.49,0.153614,0.153302,28.8226,2,0.0114595,10,0.00441858,-1.54027,0.172379,0.342269,0.130244,
2,1,0,1,0,2442.5,0.155611,0.155325,29.3929,2,0.0117507,10,0.00456544,-1.53176,0.184101,0.320477,0.131811,
2,1,0,1,0,2442.51,0.157618,0.157361,29.9756,2,0.0120476,10,0.004717,-1.52323,0.209053,0.282225,0.133381,
2,1,0,1,0,2442.52,0.159616,0.15929,30.4266,2,0.0123498,10,0.00484664,-1.51675,0.261799,0.225364,0.134949,
2,1,0,1,0,2442.53,0.161613,0.161332,30.8506,2,0.0126563,10,0.00497719,-1.51074,0.324723,0.181693,0.136652,
2,1,0,1,0,2442.54,0.163611,0.163309,31.1737,2,0.0129666,10,0.00509093,-1.50621,0.443983,0.132888,0.13837,
2,1,0,1,0,2442.55,0.165618,0.165281,31.4152,2,0.0132796,10,0.00519232,-1.50286,0.74974,0.0786939,0.140148,
2,1,0,1,0,2442.56,0.167597,0.16727,31.5278,2,0.0135914,10,0.00527366,-1.50131,3.21657,0.0183425,0.142048,
2,1,0,1,0,2442.57,0.169595,0.169291,31.5039,2,0.0139066,10,0.00533332,-1.50164,-1.33502,-0.0441941,0.144088,
2,1,0,1,0,2442.58,0.171592,0.171332,31.2978,2,0.0142207,10,0.00536232,-1.50449,-0.539363,-0.109388,0.146294,
2,1,0,1,0,2442.59,0.173572,0.173304,30.9055,2,0.0145287,10,0.00535605,-1.50996,-0.340897,-0.173073,0.14858,
2,1,0,1,0,2442.6,0.175578,0.175301,30.3074,2,0.0148349,10,0.00531291,-1.51845,-0.247109,-0.238761,0.151055,
2,1,0,1,0,2442.61,0.177576,0.17727,29.4665,2,0.0151339,10,0.00522352,-1.53067,-0.192258,-0.306879,0.153697,
2,1,0,1,0,2442.62,0.179573,0.179273,28.3668,2,0.0154231,10,0.00508541,-1.54719,-0.162591,-0.362873,0.15658,
2,1,0,1,0,2442.63,0.181571,0.181328,27.0782,2,0.0157003,10,0.00491004,-1.56738,-0.139578,-0.422703,0.159665,
2,1,0,1,0,2442.64,0.183578,0.183304,25.5851,2,0.0159636,10,0.00468986,-1.59201,-0.120515,-0.489564,0.162836,
2,1,0,1,0,2442.65,0.185575,0.185318,23.9014,2,0.0162109,10,0.00442935,-1.62158,-0.10689,-0.551969,0.166197,
2,1,0,1,0,2442.66,0.187573,0.18727,22.1337,2,0.0164409,10,0.00414498,-1.65495,-0.0978215,-0.60314,0.169563,
2,1,0,1,0,2442.67,0.18957,0.189316,20.3458,2,0.0166531,10,0.00385179,-1.69152,-0.0902181,-0.653971,0.173039,
2,1,0,1,0,2442.68,0.191577,0.191281,18.5826,2,0.0168476,10,0.0035545,-1.73089,-0.0837964,-0.704087,0.176415,
2,1,0,1,0,2442.69,0.193575,0.193281,16.9232,2,0.0170249,10,0.00327094,-1.77152,-0.0806078,-0.731939,0.179742,
2,1,0,1,0,2442.7,0.195572,0.195301,15.4067,2,0.0171862,10,0.00300896,-1.81229,-0.0782691,-0.75381,0.182976,
2,1,0,1,0,2442.71,0.19757,0.197284,14.0642,2,0.0173332,10,0.00277465,-1.85188,-0.0784846,-0.75174,0.186033,
2,1,0,1,0,2442.72,0.199558,0.199257,12.9499,2,0.0174666,10,0.00258036,-1.88773,-0.0824355,-0.715711,0.188897,
2,1,0,1,0,2442.73,0.201556,0.201267,12.0221,2,0.0175911,10,0.00241965,-1.92002,-0.0884493,-0.667049,0.191649,
2,1,0,1,0,2442.74,0.203553,0.203267,11.2636,2,0.0177074,10,0.00228952,-1.94832,-0.0997573,-0.591436,0.194256,
2,1,0,1,0,2442.75,0.205551,0.20528,10.6928,2,0.0178169,10,0.00219502,-1.97091,-0.121505,-0.485576,0.196726,
2,1,0,1,0,2442.76,0.20754,0.207269,10.2876,2,0.0179206,10,0.00213231,-1.98769,-0.148035,-0.398554,0.199039,
2,1,0,1,0,2442.77,0.209537,0.209253,9.96098,2,0.0180217,10,0.00208436,-2.0017,-0.172068,-0.342888,0.201284,
2,1,0,1,0,2442.78,0.211535,0.211232,9.69447,2,0.0181199,10,0.00204779,-2.01348,-0.225012,-0.262208,0.203477,
2,1,0,1,0,2442.79,0.213532,0.213248,9.52812,2,0.0182159,10,0.00203185,-2.02099,-0.322193,-0.18312,0.205625,
2,1,0,1,0,2442.8,0.215539,0.215227,9.40612,2,0.0183105,10,0.00202445,-2.02659,-0.383278,-0.153935,0.207702,
2,1,0,1,0,2442.81,0.217537,0.217252,9.29107,2,0.0184039,10,0.0020185,-2.03193,-0.408228,-0.144527,0.209819,
2,1,0,1,0,2442.82,0.219534,0.219267,9.18501,2,0.0184963,10,0.00201397,-2.03692,-0.53663,-0.109945,0.211919,
2,1,0,1,0,2442.83,0.221532,0.221208,9.12962,2,0.0185879,10,0.00201955,-2.03955,-0.615608,-0.0958402,0.213904,
2,1,0,1,0,2442.84,0.223534,0.223251,9.04537,2,0.0186788,10,0.00201939,-2.04357,-0.667609,-0.0883751,0.216015,
2,1,0,1,0,2442.85,0.225536,0.225267,8.99947,2,0.018769,10,0.00202728,-2.04578,-0.681291,-0.0866002,0.218067,
2,1,0,1,0,2442.86,0.227534,0.227236,8.92137,2,0.0188586,10,0.00202726,-2.04957,-0.598166,-0.0986349,0.220099,
2,1,0,1,0,2442.87,0.229531,0.229218,8.85982,2,0.0189475,10,0.00203083,-2.05257,-0.604193,-0.0976509,0.22213,
2,1,0,1,0,2442.88,0.231529,0.231223,8.78315,2,0.0190357,10,0.00203087,-2.05635,-0.838616,-0.070354,0.224196,
2,1,0,1,0,2442.89,0.233517,0.233203,8.76151,2,0.0191226,10,0.00204321,-2.05742,-0.864448,-0.0682517,0.226194,
2,1,0,1,0,2442.9,0.235515,0.235222,8.68834,2,0.0192099,10,0.00204369,-2.06106,-0.669172,-0.0881687,0.228271,
2,1,0,1,0,2442.91,0.237513,0.237224,8.63819,2,0.0192965,10,0.00204919,-2.06358,-0.754469,-0.0782007,0.230314,
2,1,0,1,0,2442.92,0.23951,0.239208,8.58104,2,0.0193826,10,0.00205265,-2.06646,-1.00701,-0.0585894,0.232343,
2,1,0,1,0,2442.93,0.241499,0.24125,8.55778,2,0.0194674,10,0.00206456,-2.06764,-0.779726,-0.0756676,0.234404,
2,1,0,1,0,2442.94,0.243496,0.243225,8.47778,2,0.0195525,10,0.00206201,-2.07172,-0.765572,-0.0770665,0.236442,
2,1,0,1,0,2442.95,0.245494,0.245181,8.4551,2,0.0196371,10,0.00207303,-2.07288,-0.945566,-0.0623965,0.238417,
2,1,0,1,0,2442.96,0.247491,0.24721,8.39454,2,0.0197214,10,0.00207522,-2.076,-0.87723,-0.0672572,0.240495,
2,1,0,1,0,2442.97,0.249498,0.249166,8.36555,2,0.0198051,10,0.00208441,-2.07751,-0.947478,-0.0622706,0.242473,
2,1,0,1,0,2442.98,0.251496,0.251241,8.31136,2,0.0198886,10,0.00208816,-2.08033,-0.884389,-0.0667127,0.244592,
2,1,0,1,0,2442.99,0.253493,0.253219,8.27619,2,0.0199715,10,0.00209569,-2.08217,-0.833972,-0.0707458,0.246598,
2,1,0,1,0,2443,0.255491,0.255178,8.21986,2,0.020054,10,0.00209752,-2.08514,-1.24186,-0.0475092,0.248602,
2,1,0,1,0,2443.01,0.257497,0.257212,8.2144,2,0.0201361,10,0.00211284,-2.08542,-1.37285,-0.0429761,0.250641,
2,1,0,1,0,2443.02,0.259495,0.259202,8.16395,2,0.020218,10,0.00211611,-2.0881,-0.816231,-0.0722835,0.252671,
2,1,0,1,0,2443.03,0.261493,0.261199,8.1208,2,0.0202995,10,0.00212115,-2.0904,-0.969563,-0.0608522,0.254703,
2,1,0,1,0,2443.04,0.26349,0.263225,8.08512,2,0.0203805,10,0.0021282,-2.09231,-1.83352,-0.0321785,0.256756,
2,1,0,1,0,2443.05,0.265479,0.265154,8.08024,2,0.0204605,10,0.00214251,-2.09258,-1.25403,-0.0470482,0.25869,
2,1,0,1,0,2443.06,0.267476,0.267211,8.02545,2,0.020541,10,0.00214449,-2.09553,-0.833,-0.0708283,0.260791,
2,1,0,1,0,2443.07,0.269474,0.269141,7.99007,2,0.020621,10,0.00215046,-2.09745,-1.37606,-0.0428759,0.262749,
2,1,0,1,0,2443.08,0.271471,0.271188,7.97165,2,0.0207009,10,0.00216181,-2.09845,-2.49553,-0.0236423,0.26481,
2,1,0,1,0,2443.09,0.27346,0.273153,7.96037,2,0.0207796,10,0.0021744,-2.09907,-1.01346,-0.0582163,0.266785,
2,1,0,1,0,2443.1,0.275458,0.275145,7.89927,2,0.0208589,10,0.00217344,-2.10241,-0.902759,-0.0653552,0.268825,
2,1,0,1,0,2443.11,0.277455,0.277177,7.87776,2,0.0209377,10,0.00218354,-2.1036,-1.26011,-0.0468215,0.270875,
2,1,0,1,0,2443.12,0.279453,0.279134,7.84123,2,0.0210164,10,0.00218875,-2.10562,-1.40285,-0.0420572,0.272861,
2,1,0,1,0,2443.13,0.281455,0.281161,7.82588,2,0.0210946,10,0.00220034,-2.10647,-1.44427,-0.0408511,0.274901,
2,1,0,1,0,2443.14,0.283457,0.283185,7.79025,2,0.0211728,10,0.00220608,-2.10845,-1.48495,-0.0397319,0.276952,
2,1,0,1,0,2443.15,0.285455,0.285199,7.77656,2,0.0212506,10,0.00221787,-2.10921,-1.07156,-0.0550601,0.278978,
2,1,0,1,0,2443.16,0.287452,0.287178,7.72279,2,0.0213281,10,0.00221782,-2.11223,-1.02341,-0.0576503,0.281,
2,1,0,1,0,2443.17,0.28945,0.289117,7.70735,2,0.0214052,10,0.00222833,-2.1131,-1.99607,-0.0295581,0.282951,
2,1,0,1,0,2443.18,0.291456,0.291157,7.68717,2,0.0214824,10,0.00223817,-2.11423,-1.31737,-0.0447861,0.285007,
2,1,0,1,0,2443.19,0.293454,0.293175,7.65229,2,0.0215591,10,0.00224346,-2.11621,-1.1011,-0.0535829,0.287053,
2,1,0,1,0,2443.2,0.295452,0.295199,7.62163,2,0.0216355,10,0.0022499,-2.11795,-2.16592,-0.0272401,0.289102,
2,1,0,1,0,2443.21,0.297449,0.297161,7.61972,2,0.0217116,10,0.00226428,-2.11806,-2.17651,-0.0271076,0.291065,
2,1,0,1,0,2443.22,0.299438,0.29915,7.58963,2,0.0217869,10,0.00227044,-2.11978,-0.0517595,-1.13989,0.293078,
2,1,0,1,0,2443.22,0.299746,0.299554,6.60804,2,0.0218183,10,0.00197946,-2.17993,-0.00436318,-13.5222,0.294267,
2,1,0,1,0,2443.23,0.29774,0.297486,1.26362,2,0.0218539,10,0.00037591,-2.89838,-0.00320073,-18.4333,0.296475,
2,0,0,1,0,2443.24,0.295742,0.295493,-1.29684,2,0.021852,10,-0.000383208,-2.88711,-0.00326332,-18.0797,0.296531,
2,0,0,1,0,2443.25,0.293745,0.293472,-2.5268,2,0.021832,10,-0.000741543,-2.59743,-0.00658942,-8.95375,0.295493,
2,0,0,1,0,2443.26,0.291747,0.291471,-3.14998,2,0.0218032,10,-0.000918127,-2.50169,-0.0231466,-2.54898,0.293991,
2,0,0,1,0,2443.27,0.289745,0.28945,-3.49141,2,0.0217698,10,-0.00101059,-2.457,-0.0515687,-1.1441,0.292243,
2,0,0,1,0,2443.28,0.287743,0.28743,-3.69955,2,0.0217337,10,-0.00106336,-2.43185,-0.100553,-0.586755,0.29039,
2,0,0,1,0,2443.29,0.285745,0.285451,-3.80434,2,0.0216961,10,-0.00108595,-2.41972,-0.153177,-0.385176,0.288494,
2,0,0,1,0,2443.3,0.283748,0.283437,-3.91809,2,0.0216574,10,-0.00111053,-2.40693,-0.174187,-0.338716,0.286572,
2,0,0,1,0,2443.31,0.28175,0.281459,-4.0021,2,0.0216178,10,-0.00112643,-2.39771,-0.20902,-0.282269,0.284661,
2,0,0,1,0,2443.32,0.279761,0.279465,-4.08726,2,0.0215777,10,-0.00114224,-2.38857,-0.233809,-0.252342,0.282734,
2,0,0,1,0,2443.33,0.277764,0.277473,-4.15724,2,0.0215364,10,-0.00115352,-2.3812,-0.233179,-0.253024,0.280799,
2,0,0,1,0,2443.34,0.275766,0.275432,-4.24793,2,0.0214944,10,-0.00117001,-2.37182,-0.256729,-0.229814,0.27883,
2,0,0,1,0,2443.35,0.273769,0.273487,-4.30402,2,0.0214515,10,-0.00117709,-2.36613,-0.237558,-0.24836,0.27693,
2,0,0,1,0,2443.36,0.27178,0.27147,-4.4087,2,0.0214083,10,-0.00119683,-2.35569,-0.232711,-0.253533,0.274997,
2,0,0,1,0,2443.37,0.269783,0.269459,-4.47302,2,0.0213639,10,-0.0012053,-2.3494,-0.264978,-0.22266,0.273038,
2,0,0,1,0,2443.38,0.267785,0.267493,-4.55896,2,0.0213187,10,-0.00121949,-2.34113,-0.307353,-0.191962,0.27114,
2,0,0,1,0,2443.39,0.265787,0.265489,-4.60444,2,0.0212729,10,-0.00122243,-2.33682,-0.267441,-0.220609,0.269173,
2,0,0,1,0,2443.4,0.263781,0.263472,-4.71451,2,0.0212262,10,-0.00124214,-2.32656,-0.254932,-0.231434,0.267243,
2,0,0,1,0,2443.41,0.261783,0.261489,-4.76817,2,0.0211788,10,-0.00124683,-2.32165,-0.342165,-0.172431,0.265304,
2,0,0,1,0,2443.42,0.259786,0.259495,-4.83915,2,0.0211308,10,-0.00125573,-2.31523,-0.320835,-0.183895,0.263366,
2,0,0,1,0,2443.43,0.257788,0.257515,-4.90236,2,0.021082,10,-0.00126243,-2.30959,-0.288192,-0.204725,0.261437,
2,0,0,1,0,2443.44,0.255781,0.255483,-4.9919,2,0.0210325,10,-0.00127534,-2.30173,-0.33877,-0.17416,0.259476,
2,0,0,1,0,2443.45,0.253784,0.253499,-5.03441,2,0.0209823,10,-0.00127622,-2.29805,-0.3747,-0.157459,0.257526,
2,0,0,1,0,2443.46,0.251786,0.251504,-5.11242,2,0.0209315,10,-0.0012858,-2.29137,-0.318518,-0.185233,0.255594,
2,0,0,1,0,2443.47,0.249789,0.249522,-5.17698,2,0.02088,10,-0.00129177,-2.28592,-0.30235,-0.195138,0.253663,
2,0,0,1,0,2443.48,0.2478,0.247506,-5.26556,2,0.0208284,10,-0.00130326,-2.27856,-0.358737,-0.164466,0.251718,
2,0,0,1,0,2443.49,0.245802,0.245546,-5.30725,2,0.0207755,10,-0.00130317,-2.27513,-0.362753,-0.162645,0.249791,
2,0,0,1,0,2443.5,0.243805,0.243528,-5.39663,2,0.0207219,10,-0.00131423,-2.26788,-0.355627,-0.165904,0.247845,
2,0,0,1,0,2443.51,0.241807,0.241523,-5.44345,2,0.0206677,10,-0.00131472,-2.26413,-0.354755,-0.166312,0.245878,
2,0,0,1,0,2443.52,0.239819,0.239515,-5.53507,2,0.0206135,10,-0.00132573,-2.25688,-0.341257,-0.17289,0.243943,
2,0,0,1,0,2443.53,0.237821,0.237519,-5.58815,2,0.0205578,10,-0.00132729,-2.25273,-0.402148,-0.146712,0.24199,
2,0,0,1,0,2443.54,0.235824,0.235549,-5.65898,2,0.0205016,10,-0.00133297,-2.24726,-0.403669,-0.146159,0.240076,
2,0,0,1,0,2443.55,0.233826,0.233517,-5.71391,2,0.0204447,10,-0.00133429,-2.24307,-0.363646,-0.162246,0.238088,
2,0,0,1,0,2443.56,0.231824,0.231565,-5.79943,2,0.0203871,10,-0.00134294,-2.23662,-0.320526,-0.184073,0.236204,
2,0,0,1,0,2443.57,0.229822,0.229571,-5.87283,2,0.0203286,10,-0.00134823,-2.23115,-0.373188,-0.158097,0.234269,
2,0,0,1,0,2443.58,0.227824,0.227517,-5.94193,2,0.0202695,10,-0.00135189,-2.22607,-0.383228,-0.153955,0.23227,
2,0,0,1,0,2443.59,0.225827,0.225491,-6.01449,2,0.0202097,10,-0.00135621,-2.2208,-0.355161,-0.166122,0.230302,
2,0,0,1,0,2443.6,0.223829,0.223532,-6.09264,2,0.0201491,10,-0.0013619,-2.21519,-0.345375,-0.170829,0.228407,
2,0,0,1,0,2443.61,0.221822,0.22153,-6.17029,2,0.0200876,10,-0.0013669,-2.20969,-0.31579,-0.186833,0.226466,
2,0,0,1,0,2443.62,0.219825,0.219526,-6.26688,2,0.0200253,10,-0.00137574,-2.20295,-0.314829,-0.187403,0.224539,
2,0,0,1,0,2443.63,0.217827,0.217547,-6.34615,2,0.0199622,10,-0.00138059,-2.19749,-0.346333,-0.170356,0.222624,
2,0,0,1,0,2443.64,0.21583,0.2155,-6.43125,2,0.0198983,10,-0.00138594,-2.1917,-0.29073,-0.202938,0.220645,
2,0,0,1,0,2443.65,0.213841,0.213553,-6.54199,2,0.019834,10,-0.00139706,-2.18429,-0.264619,-0.222962,0.218786,
2,0,0,1,0,2443.66,0.211844,0.211565,-6.64539,2,0.0197681,10,-0.00140593,-2.17748,-0.334923,-0.17616,0.216881,
2,0,0,1,0,2443.67,0.209846,0.209536,-6.71864,2,0.0197012,10,-0.0014078,-2.17272,-0.31051,-0.19001,0.214911,
2,0,0,1,0,2443.68,0.207848,0.207508,-6.84043,2,0.0196334,10,-0.00141944,-2.16492,-0.224744,-0.262521,0.21298,
2,0,0,1,0,2443.69,0.20586,0.205526,-6.98512,2,0.0195649,10,-0.00143563,-2.15583,-0.235575,-0.250451,0.211114,
2,0,0,1,0,2443.7,0.203862,0.203581,-7.094,2,0.0194945,10,-0.0014442,-2.14911,-0.285762,-0.206465,0.209256,
2,0,0,1,0,2443.71,0.201865,0.20154,-7.20297,2,0.0194231,10,-0.00145169,-2.14249,-0.248075,-0.237831,0.207303,
2,0,0,1,0,2443.72,0.199867,0.199545,-7.35076,2,0.0193503,10,-0.00146681,-2.13367,-0.217226,-0.271606,0.205426,
2,0,0,1,0,2443.73,0.19786,0.197535,-7.49671,2,0.0192761,10,-0.00148086,-2.12513,-0.222702,-0.264928,0.203532,
2,0,0,1,0,2443.74,0.195863,0.195555,-7.64194,2,0.0192004,10,-0.00149442,-2.1168,-0.207921,-0.283761,0.201668,
2,0,0,1,0,2443.75,0.193865,0.193548,-7.81316,2,0.0191231,10,-0.00151222,-2.10717,-0.188121,-0.313628,0.199799,
2,0,0,1,0,2443.76,0.191868,0.191572,-7.99598,2,0.019044,10,-0.0015318,-2.09713,-0.180106,-0.327586,0.197968,
2,0,0,1,0,2443.77,0.189861,0.18956,-8.19015,2,0.0189631,10,-0.00155253,-2.08671,-0.172455,-0.342118,0.196113,
2,0,0,1,0,2443.78,0.187863,0.187582,-8.39743,2,0.0188802,10,-0.0015752,-2.07585,-0.171724,-0.343575,0.194299,
2,0,0,1,0,2443.79,0.185866,0.185589,-8.60025,2,0.0187952,10,-0.00159611,-2.06549,-0.169206,-0.348688,0.192469,
2,0,0,1,0,2443.8,0.183868,0.183536,-8.83093,2,0.018708,10,-0.00162079,-2.05399,-0.146341,-0.403169,0.190601,
2,0,0,1,0,2443.81,0.18188,0.181562,-9.1048,2,0.0186192,10,-0.00165308,-2.04073,-0.130686,-0.451465,0.188846,
2,0,0,1,0,2443.82,0.179882,0.179589,-9.39235,2,0.0185266,10,-0.00168676,-2.02723,-0.13485,-0.437524,0.187102,
2,0,0,1,0,2443.83,0.177885,0.177599,-9.66762,2,0.0184313,10,-0.00171696,-2.01468,-0.128498,-0.459151,0.185333,
2,0,0,1,0,2443.84,0.175887,0.17558,-10.0037,2,0.0183329,10,-0.00175646,-1.99984,-0.116467,-0.506582,0.183583,
2,0,0,1,0,2443.85,0.173908,0.173588,-10.3526,2,0.0182321,10,-0.00179709,-1.98495,-0.107911,-0.546748,0.18187,
2,0,0,1,0,2443.86,0.171901,0.171611,-10.7501,2,0.0181265,10,-0.00184484,-1.96859,-0.107262,-0.550057,0.180211,
2,0,0,1,0,2443.87,0.169903,0.16958,-11.1326,2,0.0180171,10,-0.00188787,-1.9534,-0.0999225,-0.590458,0.178487,
2,0,0,1,0,2443.88,0.167906,0.167634,-11.599,2,0.0179034,10,-0.00194438,-1.93558,-0.0901362,-0.654565,0.176913,
2,0,0,1,0,2443.89,0.165908,0.165628,-12.0792,2,0.0177849,10,-0.00200066,-1.91796,-0.0886327,-0.665668,0.175292,
2,0,0,1,0,2443.9,0.163901,0.163591,-12.6145,2,0.0176614,10,-0.00206361,-1.89913,-0.0827858,-0.712683,0.173682,
2,0,0,1,0,2443.91,0.161904,0.161606,-13.1817,2,0.0175323,10,-0.00213024,-1.88003,-0.0788871,-0.747904,0.172152,
2,0,0,1,0,2443.92,0.159906,0.159593,-13.7915,2,0.0173974,10,-0.00220102,-1.86039,-0.0766731,-0.769501,0.170626,
2,0,0,1,0,2443.93,0.157909,0.157596,-14.4295,2,0.0172562,10,-0.00227404,-1.84075,-0.0707411,-0.834027,0.16914,
2,0,0,1,0,2443.94,0.155902,0.155597,-15.1579,2,0.0171082,10,-0.00235852,-1.81936,-0.0669639,-0.881072,0.167724,
2,0,0,1,0,2443.95,0.153904,0.153624,-15.8898,2,0.0169529,10,-0.00244107,-1.79888,-0.0686392,-0.859567,0.166336,
2,0,0,1,0,2443.96,0.151907,0.151633,-16.639,2,0.0167901,10,-0.00252303,-1.77887,-0.0672618,-0.87717,0.164944,
2,0,0,1,0,2443.97,0.149909,0.149632,-17.4535,2,0.0166195,10,-0.00261159,-1.75812,-0.0646065,-0.91322,0.163594,
2,0,0,1,0,2443.98,0.147921,0.147667,-18.286,2,0.0164425,10,-0.00270024,-1.73788,-0.0672078,-0.877874,0.162296,
2,0,0,1,0,2443.99,0.145923,0.145692,-19.0963,2,0.0162556,10,-0.00278217,-1.71905,-0.0660404,-0.893393,0.160969,
2,0,0,1,0,2444,0.143926,0.143674,-20.0234,2,0.0160599,10,-0.00287684,-1.69846,-0.0664549,-0.88782,0.159693,
2,0,0,1,0,2444.01,0.141928,0.141637,-20.903,2,0.0158551,10,-0.00296065,-1.67979,-0.068706,-0.858731,0.15836,
2,0,0,1,0,2444.02,0.139939,0.139679,-21.8171,2,0.0156436,10,-0.00304739,-1.6612,-0.0718179,-0.821522,0.157133,
2,0,0,1,0,2444.03,0.137942,0.137684,-22.6741,2,0.015421,10,-0.00312186,-1.64447,-0.0778757,-0.757617,0.155823,
2,0,0,1,0,2444.04,0.135944,0.135734,-23.5382,2,0.0151898,10,-0.00319494,-1.62823,-0.084658,-0.696921,0.154565,
2,0,0,1,0,2444.05,0.133947,0.133675,-24.3699,2,0.0149501,10,-0.00325765,-1.61315,-0.0923538,-0.638847,0.153171,
2,0,0,1,0,2444.06,0.13194,0.131685,-25.1931,2,0.0147023,10,-0.00331756,-1.59872,-0.0982023,-0.6008,0.15184,
2,0,0,1,0,2444.07,0.129942,0.129681,-25.9709,2,0.0144463,10,-0.00336793,-1.58551,-0.108147,-0.545555,0.150458,
2,0,0,1,0,2444.08,0.127945,0.127654,-26.7379,2,0.0141826,10,-0.0034132,-1.57287,-0.121028,-0.48749,0.149045,
2,0,0,1,0,2444.09,0.125947,0.125658,-27.4236,2,0.0139116,10,-0.00344599,-1.56188,-0.135792,-0.434489,0.147597,
2,0,0,1,0,2444.1,0.123941,0.12367,-28.0876,2,0.013634,10,-0.0034736,-1.55149,-0.161696,-0.364883,0.14614,
2,0,0,1,0,2444.11,0.121943,0.121608,-28.649,2,0.0133501,10,-0.00348394,-1.54289,-0.199571,-0.295634,0.144527,
2,0,0,1,0,2444.12,0.119945,0.119651,-29.137,2,0.0130611,10,-0.00348628,-1.53556,-0.243073,-0.242725,0.142961,
2,0,0,1,0,2444.13,0.117948,0.117631,-29.5471,2,0.0127675,10,-0.00347565,-1.52949,-0.301732,-0.195538,0.141269,
2,0,0,1,0,2444.14,0.115946,0.115685,-29.894,2,0.0124701,10,-0.00345828,-1.52442,-0.420226,-0.140401,0.1396,
2,0,0,1,0,2444.15,0.113962,0.113665,-30.1204,2,0.0121728,10,-0.00342364,-1.52114,-0.715208,-0.0824934,0.137761,
2,0,0,1,0,2444.16,0.111964,0.111704,-30.2517,2,0.0118708,10,-0.00337923,-1.51925,-1.95606,-0.0301627,0.135905,
2,0,0,1,0,2444.17,0.109967,0.109649,-30.2592,2,0.0115681,10,-0.00331788,-1.51914,3.37071,0.0175037,0.133856,
2,0,0,1,0,2444.18,0.107969,0.107678,-30.1673,2,0.0112659,10,-0.00324835,-1.52046,0.907898,0.0649853,0.131812,
2,0,0,1,0,2444.19,0.10598,0.105679,-29.9365,2,0.0109683,10,-0.00316365,-1.5238,0.536527,0.109967,0.129628,
2,0,0,1,0,2444.2,0.103983,0.103668,-29.5942,2,0.0106706,10,-0.00306796,-1.52879,0.385339,0.153112,0.127343,
2,0,0,1,0,2444.21,0.101985,0.101645,-29.1081,2,0.0103771,10,-0.00295869,-1.53599,0.29673,0.198834,0.124932,
2,0,0,1,0,2444.22,0.0999877,0.0997365,-28.5131,2,0.010089,10,-0.00284379,-1.54496,0.251652,0.234451,0.122547,
2,0,0,1,0,2444.23,0.0979811,0.0976889,-27.8071,2,0.00980736,10,-0.00271645,-1.55584,0.225298,0.261876,0.119935,
2,0,0,1,0,2444.24,0.0959835,0.0956856,-27.0261,2,0.00953318,10,-0.00258601,-1.56822,0.197453,0.298805,0.117307,
2,0,0,1,0,2444.25,0.0939859,0.0937101,-26.1357,2,0.00926739,10,-0.00244917,-1.58277,0.182093,0.324011,0.114619,
2,0,0,1,0,2444.26,0.0919883,0.0917137,-25.2427,2,0.00901055,10,-0.00231511,-1.59786,0.176603,0.334082,0.111908,
2,0,0,1,0,2444.27,0.0899816,0.0896757,-24.3351,2,0.00876263,10,-0.00218227,-1.61377,0.170398,0.346247,0.109144,
2,0,0,1,0,2444.28,0.087984,0.0876429,-23.4274,2,0.00852392,10,-0.00205324,-1.63028,0.162673,0.36269,0.106385,
2,0,0,1,0,2444.29,0.0859865,0.085683,-22.5335,2,0.00829427,10,-0.00193074,-1.64717,0.16181,0.364626,0.10371,
2,0,0,1,0,2444.3,0.0839889,0.083691,-21.7199,2,0.00807321,10,-0.00181776,-1.66314,0.166432,0.354499,0.101067,
2,0,0,1,0,2444.31,0.0820004,0.0816627,-20.9423,2,0.00786217,10,-0.0017102,-1.67898,0.168964,0.349187,0.0984165,
2,0,0,1,0,2444.32,0.0800028,0.0797197,-20.2482,2,0.00765639,10,-0.00161418,-1.69361,0.17439,0.338322,0.0959183,
2,0,0,1,0,2444.33,0.0780052,0.0777108,-19.5971,2,0.00745725,10,-0.00152291,-1.70781,0.185675,0.31776,0.0933885,
2,0,0,1,0,2444.34,0.0760076,0.0757106,-19.0358,2,0.00726425,10,-0.00144121,-1.72043,0.196177,0.300749,0.0909392,
2,0,0,1,0,2444.35,0.0740191,0.0737109,-18.5081,2,0.00707861,10,-0.00136425,-1.73264,0.205559,0.287022,0.0885174,
2,0,0,1,0,2444.36,0.0720215,0.0717406,-18.0472,2,0.00689598,10,-0.00129472,-1.74359,0.215163,0.274211,0.0861783,
2,0,0,1,0,2444.37,0.0700239,0.0697165,-17.5956,2,0.00671783,10,-0.0012267,-1.7546,0.221427,0.266454,0.0837929,
2,0,0,1,0,2444.38,0.0680263,0.0677253,-17.1855,2,0.00654406,10,-0.0011639,-1.76484,0.236834,0.249119,0.0814737,
2,0,0,1,0,2444.39,0.0660197,0.0657402,-16.8275,2,0.00637411,10,-0.00110625,-1.77398,0.248402,0.237518,0.0792022,
2,0,0,1,0,2444.4,0.0640221,0.0637204,-16.4718,2,0.00620766,10,-0.00104959,-1.78326,0.238748,0.247123,0.0768979,
2,0,0,1,0,2444.41,0.0620245,0.0617189,-16.0963,2,0.0060448,10,-0.000993447,-1.79327,0.241511,0.244295,0.0745959,
2,0,0,1,0,2444.42,0.0600269,0.0597043,-15.7682,2,0.00588554,10,-0.000941429,-1.80222,0.247342,0.238536,0.0723189,
2,0,0,1,0,2444.43,0.0580248,0.0577053,-15.4292,2,0.00572954,10,-0.000890345,-1.81166,0.242993,0.242805,0.0700487,
2,0,0,1,0,2444.44,0.0560227,0.0557202,-15.1082,2,0.00557686,10,-0.000841834,-1.82079,0.238741,0.24713,0.0678068,
2,0,0,1,0,2444.45,0.0540251,0.0537222,-14.7726,2,0.00542751,10,-0.000793619,-1.83054,0.239771,0.246068,0.0655403,
2,0,0,1,0,2444.46,0.0520275,0.0516954,-14.4636,2,0.00528138,10,-0.000747703,-1.83972,0.233104,0.253106,0.0632663,
2,0,0,1,0,2444.47,0.0500299,0.0497294,-14.1293,2,0.00513837,10,-0.000702644,-1.84988,0.239994,0.245839,0.0610329,
2,0,0,1,0,2444.48,0.0480414,0.0477525,-13.8626,2,0.00499982,10,-0.000661972,-1.85816,0.252955,0.233243,0.0588425,
2,0,0,1,0,2444.49,0.0460438,0.0457785,-13.5753,2,0.00486267,10,-0.000621459,-1.86725,0.249529,0.236445,0.0566388,
2,0,0,1,0,2444.5,0.0440462,0.0437664,-13.3073,2,0.00472833,10,-0.000582411,-1.87591,0.259707,0.227179,0.0544122,
2,0,0,1,0,2444.51,0.0420486,0.0417479,-13.0501,2,0.00459659,10,-0.000544813,-1.88439,0.300002,0.196665,0.052188,
2,0,0,1,0,2444.52,0.0400601,0.0397285,-12.8663,2,0.00446834,10,-0.00051116,-1.89055,0.323019,0.182652,0.0500216,
2,0,0,1,0,2444.53,0.0380625,0.0377652,-12.6563,2,0.00434077,10,-0.000477969,-1.89769,0.32198,0.183241,0.0478902,
2,0,0,1,0,2444.54,0.036065,0.0357566,-12.4783,2,0.00421519,10,-0.00044618,-1.90385,0.371058,0.159005,0.0457392,
2,0,0,1,0,2444.55,0.0340674,0.0337759,-12.3267,2,0.00409114,10,-0.000416345,-1.90915,0.489666,0.12049,0.0436373,
2,0,0,1,0,2444.56,0.0320607,0.0317613,-12.2348,2,0.00396836,10,-0.000388593,-1.9124,0.520825,0.113282,0.0415492,
2,0,0,1,0,2444.57,0.0300631,0.0297389,-12.0989,2,0.00384672,10,-0.000359808,-1.91725,0.562501,0.104889,0.039418,
2,0,0,1,0,2444.58,0.0280655,0.0277677,-12.0283,2,0.00372608,10,-0.000333998,-1.9198,0.817319,0.0721873,0.0373904,
2,0,0,1,0,2444.59,0.0260679,0.0257514,-11.96,2,0.00360608,10,-0.000307987,-1.92227,1.00894,0.058477,0.0353194,
2,0,0,1,0,2444.6,0.0240613,0.0237577,-11.9163,2,0.00348669,10,-0.000283102,-1.92386,1.26049,0.0468071,0.0332907,
2,0,0,1,0,2444.61,0.0220637,0.021809,-11.8726,2,0.00336768,10,-0.000258931,-1.92545,1.97649,0.0298509,0.0313071,
2,0,0,1,0,2444.62,0.0200661,0.019758,-11.8602,2,0.00324903,10,-0.000234335,-1.92591,2.32428,0.0253842,0.0292462,
2,0,0,1,0,2444.63,0.0180685,0.0177295,-11.8243,2,0.0031305,10,-0.00020964,-1.92722,19.9339,0.00295978,0.027189,
2,0,0,1,0,2444.64,0.01608,0.0157772,-11.8548,2,0.00301335,10,-0.000187036,-1.92611,-3.13037,-0.0188476,0.025261,
2,0,0,1,0,2444.65,0.0140824,0.0137786,-11.8585,2,0.00289475,10,-0.000163393,-1.92597,-5.29839,-0.0111355,0.0232654,
2,0,0,1,0,2444.66,0.0120848,0.0117673,-11.8754,2,0.00277613,10,-0.000139741,-1.92535,-10.1593,-0.00580746,0.0212676,
2,0,0,1,0,2444.67,0.0100873,0.00979334,-11.8692,2,0.00265745,10,-0.000116239,-1.92558,-2.98541,-0.0197628,0.0192887,
2,0,0,1,0,2444.68,0.00810328,0.00777811,-11.9117,2,0.00253977,10,-9.26506e-05,-1.92403,-1.65436,-0.0356633,0.0173075,
2,0,0,1,0,2444.69,0.00610116,0.00578349,-11.9347,2,0.00242039,10,-6.90244e-05,-1.92319,-1.90888,-0.0309081,0.0153313,
2,0,0,1,0,2444.7,0.00410357,0.00384092,-11.9678,2,0.0023009,10,-4.59672e-05,-1.92199,-0.772302,-0.076395,0.0134151,
2,0,0,1,0,2444.71,0.00210598,0.00172483,-12.076,2,0.00218089,10,-2.0829e-05,-1.91808,-0.7333,-0.0804582,0.0113856,
2,0,0,1,0,2444.72,0.00010174,-0.00025765,-12.1182,2,0.00205987,10,3.12226e-06,-1.91656,-1.63934,-0.0359901,0.00943691,
2,0,0,1,0,2444.73,-0.00189827,-0.00227744,-12.1431,2,0.00193848,10,2.76552e-05,-1.91567,-1.54241,-0.0382519,0.00743706,
2,0,0,1,0,2444.74,-0.00389586,-0.00426339,-12.1898,2,0.00181679,10,5.197e-05,-1.914,-1.19786,-0.0492546,0.00548849,
2,0,0,1,0,2444.75,-0.00589345,-0.00626409,-12.2348,2,0.00169459,10,7.66399e-05,-1.9124,-1.25446,-0.0470321,0.00352376,
2,0,0,1,0,2444.76,-0.00789103,-0.00820579,-12.2768,2,0.001572,10,0.000100741,-1.91091,-0.898923,-0.0656341,0.00161566,
2,0,0,1,0,2444.77,-0.0098977,-0.0102438,-12.3571,2,0.00144869,10,0.000126583,-1.90808,-0.717667,-0.0822108,-0.000358133,
2,0,0,1,0,2444.78,-0.0118953,-0.0122306,-12.4314,2,0.00132476,10,0.000152044,-1.90548,-0.964482,-0.0611728,-0.00228547,
2,0,0,1,0,2444.79,-0.0138929,-0.0142504,-12.4731,2,0.00120015,10,0.000177746,-1.90403,-0.995719,-0.0592537,-0.00427193,
2,0,0,1,0,2444.8,-0.0158905,-0.0162676,-12.5454,2,0.00107504,10,0.000204083,-1.90152,-0.737028,-0.0800512,-0.00623128,
2,0,0,1,0,2444.81,-0.017879,-0.0182459,-12.625,2,0.000950355,10,0.000230354,-1.89877,-0.730269,-0.0807921,-0.00814597,
2,0,0,1,0,2444.82,-0.0198766,-0.0202668,-12.6996,2,0.000823698,10,0.000257381,-1.89621,-0.872328,-0.0676351,-0.0101071,
2,0,0,1,0,2444.83,-0.0218741,-0.0222646,-12.7561,2,0.000696454,10,0.000284009,-1.89428,-0.777733,-0.0758615,-0.0120598,
2,0,0,1,0,2444.84,-0.0238717,-0.0242139,-12.8445,2,0.00056845,10,0.000311016,-1.89128,-0.646383,-0.0912772,-0.0139383,
2,0,0,1,0,2444.85,-0.0258602,-0.0261904,-12.9293,2,0.000440822,10,0.000338624,-1.88842,-0.747915,-0.078886,-0.0158469,
2,0,0,1,0,2444.86,-0.0278578,-0.028198,-12.9981,2,0.0003112,10,0.000366521,-1.88612,-0.837676,-0.0704329,-0.0177995,
2,0,0,1,0,2444.87,-0.0298554,-0.0302031,-13.0687,2,0.00018081,10,0.000394715,-1.88377,-0.734952,-0.0802773,-0.0197481,
2,0,0,1,0,2444.88,-0.031853,-0.0321769,-13.1559,2,4.96859e-05,10,0.000423317,-1.88088,-0.709695,-0.0831344,-0.0216521,
2,0,0,1,0,2444.89,-0.0338597,-0.0341862,-13.233,2,-8.22944e-05,10,0.000452388,-1.87834,-0.728429,-0.0809962,-0.0235998,
2,0,0,1,0,2444.9,-0.0358573,-0.0362052,-13.319,2,-0.000215081,10,0.000482218,-1.87553,-0.68465,-0.0861754,-0.0255499,
2,0,0,1,0,2444.91,-0.0378548,-0.0382119,-13.4071,2,-0.000348815,10,0.000512313,-1.87266,-0.74148,-0.0795706,-0.0274862,
2,0,0,1,0,2444.92,-0.0398524,-0.0402343,-13.4813,2,-0.000483296,10,0.000542411,-1.87027,-0.702774,-0.083953,-0.0294493,
2,0,0,1,0,2444.93,-0.0418591,-0.0422133,-13.578,2,-0.000618615,10,0.000573172,-1.86716,-0.630655,-0.0935535,-0.0313509,
2,0,0,1,0,2444.94,-0.0438567,-0.0441698,-13.6689,2,-0.00075484,10,0.000603753,-1.86427,-0.757646,-0.0778728,-0.0332346,
2,0,0,1,0,2444.95,-0.0458543,-0.0461965,-13.738,2,-0.000891953,10,0.000634648,-1.86208,-0.791333,-0.0745578,-0.0352061,
2,0,0,1,0,2444.96,-0.0478519,-0.0481538,-13.8233,2,-0.00102974,10,0.000665646,-1.85939,-0.610771,-0.0965992,-0.0370952,
2,0,0,1,0,2444.97,-0.0498585,-0.050217,-13.9394,2,-0.00116854,10,0.000699993,-1.85576,-0.606348,-0.0973039,-0.0390655,
2,0,0,1,0,2444.98,-0.051838,-0.0522007,-14.0287,2,-0.00130698,10,0.000732305,-1.85298,-0.780152,-0.0756263,-0.0409778,
2,0,0,1,0,2444.99,-0.0538355,-0.0541762,-14.0979,2,-0.0014476,10,0.000763773,-1.85084,-0.712225,-0.082839,-0.0428979,
2,0,0,1,0,2445,-0.0558331,-0.0562194,-14.2056,2,-0.00158912,10,0.00079863,-1.84754,-0.635513,-0.0928384,-0.0448549,
2,0,0,1,0,2445.01,-0.0578126,-0.0581608,-14.2948,2,-0.00173026,10,0.000831395,-1.84482,-0.609554,-0.0967921,-0.046725,
2,0,0,1,0,2445.02,-0.0598192,-0.0601459,-14.409,2,-0.00187382,10,0.000866643,-1.84137,-0.601034,-0.0981642,-0.0486187,
2,0,0,1,0,2445.03,-0.0618168,-0.0621726,-14.5067,2,-0.00201845,10,0.000901922,-1.83843,-0.587488,-0.100428,-0.0505672,
2,0,0,1,0,2445.04,-0.0638144,-0.0642045,-14.6299,2,-0.00216415,10,0.000939307,-1.83476,-0.598114,-0.0986434,-0.0525006,
2,0,0,1,0,2445.05,-0.065812,-0.0661263,-14.7196,2,-0.00231089,10,0.000973351,-1.8321,-0.573429,-0.10289,-0.0543506,
2,0,0,1,0,2445.06,-0.0678187,-0.0681747,-14.8543,2,-0.00245882,10,0.00101269,-1.82815,-0.512119,-0.115207,-0.0562913,
2,0,0,1,0,2445.07,-0.0698163,-0.0701259,-14.973,2,-0.00260803,10,0.00105,-1.82469,-0.574875,-0.102631,-0.0581475,
2,0,0,1,0,2445.08,-0.0718138,-0.0721752,-15.0832,2,-0.00275834,10,0.00108863,-1.82151,-0.551194,-0.10704,-0.0601087,
2,0,0,1,0,2445.09,-0.0738114,-0.0741386,-15.2139,2,-0.00290989,10,0.00112794,-1.81776,-0.443159,-0.133135,-0.0619675,
2,0,0,1,0,2445.1,-0.0758181,-0.076194,-15.3823,2,-0.00306295,10,0.00117204,-1.81298,-0.465574,-0.126725,-0.0638881,
2,0,0,1,0,2445.11,-0.0778157,-0.0781955,-15.5044,2,-0.00321747,10,0.00121237,-1.80955,-0.483642,-0.121991,-0.065792,
2,0,0,1,0,2445.12,-0.0798133,-0.0801025,-15.655,2,-0.00337332,10,0.001254,-1.80535,-0.419692,-0.140579,-0.0675786,
2,0,0,1,0,2445.13,-0.0818109,-0.0821258,-15.8204,2,-0.00353079,10,0.00129926,-1.80078,-0.389269,-0.151566,-0.0694695,
2,0,0,1,0,2445.14,-0.0837994,-0.0841378,-16.0065,2,-0.00368831,10,0.00134675,-1.7957,-0.422809,-0.139543,-0.0713326,
2,0,0,1,0,2445.15,-0.0857969,-0.0861491,-16.1478,2,-0.00384912,10,0.00139112,-1.79189,-0.395374,-0.149226,-0.0732309,
2,0,0,1,0,2445.16,-0.0877945,-0.0880992,-16.3536,2,-0.00401163,10,0.00144074,-1.78639,-0.360411,-0.163702,-0.0750163,
2,0,0,1,0,2445.17,-0.0897921,-0.0901121,-16.5296,2,-0.00417612,10,0.00148951,-1.78174,-0.379332,-0.155537,-0.0768885,
2,0,0,1,0,2445.18,-0.0917806,-0.0921484,-16.7299,2,-0.00434063,10,0.00154163,-1.77651,-0.370323,-0.15932,-0.0787645,
2,0,0,1,0,2445.19,-0.0937782,-0.0941083,-16.9131,2,-0.00450885,10,0.00159167,-1.77178,-0.369574,-0.159643,-0.0805778,
2,0,0,1,0,2445.2,-0.0957758,-0.0961654,-17.1205,2,-0.00467903,10,0.0016464,-1.76648,-0.377975,-0.156095,-0.082469,
2,0,0,1,0,2445.21,-0.0977734,-0.0980975,-17.2968,2,-0.00485119,10,0.00169678,-1.76203,-0.354773,-0.166304,-0.0842601,
2,0,0,1,0,2445.22,-0.0997412,-0.100071,-17.5234,2,-0.00502176,10,0.00175359,-1.75638,0.113001,0.52212,-0.0860527,
2,0,0,1,1,2445.22,-0.0996711,-0.100084,-16.3584,2,-0.00507287,10,0.00163722,-1.78626,0.0165007,3.57561,-0.0869977,
2,0,0,1,1,2445.23,-0.0976826,-0.0980667,-9.9278,2,-0.00520027,10,0.000973587,-2.00315,0.00984956,5.99012,-0.0901245,
2,0,0,1,1,2445.24,-0.095685,-0.0960602,-5.19832,2,-0.00527427,10,0.000499351,-2.28414,0.00335652,17.5777,-0.0919015,
2,0,0,1,1,2445.25,-0.0936874,-0.0940656,-1.59794,2,-0.00530705,10,0.000150311,-2.79644,0.00168807,34.9512,-0.0927872,
2,1,0,1,1,2445.26,-0.0916898,-0.0920686,1.16322,2,-0.0053083,10,-0.000107096,-2.93434,0.000100334,588.036,-0.0929991,
2,1,0,1,1,2445.27,-0.0897013,-0.0900895,3.33206,2,-0.00528527,10,-0.000300183,-2.47729,0.00135723,43.4709,-0.0927552,
2,1,0,1,1,2445.28,-0.0877037,-0.088101,5.04207,2,-0.00524285,10,-0.000444211,-2.29739,0.00546936,10.7874,-0.0921346,
2,1,0,1,1,2445.29,-0.0857062,-0.0861081,6.38011,2,-0.00518527,10,-0.000549379,-2.19517,0.011941,4.94094,-0.0912122,
2,1,0,1,1,2445.3,-0.0837086,-0.0841196,7.47041,2,-0.00511565,10,-0.000628408,-2.12666,0.0206181,2.86156,-0.0900959,
2,1,0,1,1,2445.31,-0.0817019,-0.0820772,8.37437,2,-0.00503614,10,-0.000687345,-2.07705,0.0326958,1.80451,-0.0887767,
2,1,0,1,1,2445.32,-0.0797043,-0.080073,9.07499,2,-0.00494867,10,-0.000726662,-2.04215,0.0488264,1.20836,-0.087333,
2,1,0,1,1,2445.33,-0.0777067,-0.0781027,9.6325,2,-0.00485495,10,-0.000752324,-2.01626,0.0716802,0.823101,-0.0858087,
2,1,0,1,1,2445.34,-0.0757091,-0.0760716,10.0614,2,-0.00475632,10,-0.00076539,-1.99734,0.0954845,0.617901,-0.0841208,
2,1,0,1,1,2445.35,-0.0737025,-0.0740527,10.4538,2,-0.00465361,10,-0.000774131,-1.98073,0.128604,0.458774,-0.0824157,
2,1,0,1,1,2445.36,-0.0717049,-0.0720121,10.7186,2,-0.00454766,10,-0.000771869,-1.96986,0.186453,0.316434,-0.080587,
2,1,0,1,1,2445.37,-0.0697073,-0.0700461,10.9322,2,-0.00443935,10,-0.00076576,-1.96129,0.238424,0.247458,-0.0787919,
2,1,0,1,1,2445.38,-0.0677097,-0.0680367,11.1049,2,-0.00432908,10,-0.000755542,-1.95448,0.270532,0.218089,-0.0769207,
2,1,0,1,1,2445.39,-0.0657212,-0.0660748,11.2812,2,-0.00421826,10,-0.000745405,-1.94764,0.372037,0.158586,-0.0750998,
2,1,0,1,1,2445.4,-0.0637236,-0.0640969,11.3644,2,-0.00410501,10,-0.000728424,-1.94445,0.52855,0.111626,-0.0731884,
2,1,0,1,1,2445.41,-0.061726,-0.0620696,11.4722,2,-0.00399082,10,-0.000712073,-1.94035,0.597937,0.0986727,-0.0712474,
2,1,0,1,1,2445.42,-0.0597284,-0.0600639,11.5362,2,-0.00387571,10,-0.000692908,-1.93794,0.776829,0.0759498,-0.0692928,
2,1,0,1,1,2445.43,-0.0577399,-0.0581096,11.604,2,-0.00376119,10,-0.000674303,-1.93539,1.03964,0.0567505,-0.0673928,
2,1,0,1,1,2445.44,-0.0557423,-0.0560994,11.6359,2,-0.00364493,10,-0.000652765,-1.9342,1.30131,0.0453389,-0.0654081,
2,1,0,1,1,2445.45,-0.0537447,-0.0541004,11.6853,2,-0.00352835,10,-0.000632177,-1.93236,2.47358,0.0238521,-0.0634486,
2,1,0,1,1,2445.46,-0.0517472,-0.052098,11.6789,2,-0.00341146,10,-0.000608448,-1.9326,3.77087,0.0156463,-0.0614411,
2,1,0,1,1,2445.47,-0.049745,-0.0500773,11.7138,2,-0.00329457,10,-0.000586597,-1.9313,2.08317,0.0283222,-0.0594484,
2,1,0,1,1,2445.48,-0.0477429,-0.0480757,11.7304,2,-0.00317729,10,-0.000563949,-1.93069,7.36095,0.00801527,-0.0574601,
2,1,0,1,1,2445.49,-0.0457453,-0.0460915,11.7284,2,-0.00306001,10,-0.00054058,-1.93076,-7.43117,-0.00793953,-0.0554742,
2,1,0,1,1,2445.5,-0.0437477,-0.0441238,11.716,2,-0.00294281,10,-0.000516956,-1.93122,-14.7765,-0.00399282,-0.0534966,
2,1,0,1,1,2445.51,-0.0417501,-0.042078,11.7211,2,-0.00282567,10,-0.000493198,-1.93103,-28.8194,-0.00204723,-0.0514548,
2,1,0,1,1,2445.52,-0.0397435,-0.0401259,11.7123,2,-0.00270846,10,-0.000469965,-1.93136,-4.45607,-0.0132404,-0.0494957,
2,1,0,1,1,2445.53,-0.0377459,-0.0380575,11.6966,2,-0.00259152,10,-0.000445144,-1.93194,-3.11465,-0.0189428,-0.0474148,
2,1,0,1,1,2445.54,-0.0357483,-0.0361011,11.6772,2,-0.00247469,10,-0.000421561,-1.93266,-3.30356,-0.0178595,-0.0454428,
2,1,0,1,1,2445.55,-0.0337507,-0.0341238,11.6644,2,-0.00235797,10,-0.000398033,-1.93314,-2.87045,-0.0205543,-0.0434553,
2,1,0,1,1,2445.56,-0.0317622,-0.0321224,11.6398,2,-0.00224256,10,-0.000373897,-1.93406,-2.71134,-0.0217605,-0.0414342,
2,1,0,1,1,2445.57,-0.0297646,-0.0300809,11.6241,2,-0.00212625,10,-0.000349662,-1.93464,-2.15099,-0.0274293,-0.0393801,
2,1,0,1,1,2445.58,-0.027767,-0.0280823,11.589,2,-0.00201018,10,-0.000325446,-1.93595,-1.55539,-0.0379327,-0.0373535,
2,1,0,1,1,2445.59,-0.0257694,-0.026133,11.5554,2,-0.00189448,10,-0.000301977,-1.93722,-2.51326,-0.0234755,-0.0353773,
2,1,0,1,1,2445.6,-0.0237809,-0.0241567,11.5471,2,-0.00178013,10,-0.000278939,-1.93753,-2.55623,-0.0230809,-0.0333944,
2,1,0,1,1,2445.61,-0.0217833,-0.0221413,11.5136,2,-0.00166478,10,-0.000254925,-1.93879,-1.41628,-0.0416583,-0.0313521,
2,1,0,1,1,2445.62,-0.0197858,-0.0201189,11.4704,2,-0.00154977,10,-0.000230771,-1.94042,-1.49908,-0.0393575,-0.0292952,
2,1,0,1,1,2445.63,-0.0177882,-0.0181277,11.4418,2,-0.00143521,10,-0.000207414,-1.94151,-2.18054,-0.0270575,-0.0272812,
2,1,0,1,1,2445.64,-0.0157815,-0.0161452,11.4219,2,-0.00132087,10,-0.000184409,-1.94226,-2.08861,-0.0282485,-0.0252827,
2,1,0,1,1,2445.65,-0.0137839,-0.0141541,11.3913,2,-0.00120678,10,-0.000161233,-1.94343,-1.2824,-0.0460075,-0.0232671,
2,1,0,1,1,2445.66,-0.0117863,-0.0121412,11.3387,2,-0.00109315,10,-0.000137666,-1.94544,-1.47101,-0.0401086,-0.0212122,
2,1,0,1,1,2445.67,-0.00978874,-0.0101432,11.319,2,-0.000979877,10,-0.00011481,-1.94619,-2.25463,-0.0261684,-0.0191983,
2,1,0,1,1,2445.68,-0.00778207,-0.00811209,11.2917,2,-0.000866838,10,-9.15992e-05,-1.94724,-1.45707,-0.0404923,-0.0171454,
2,1,0,1,1,2445.69,-0.00578449,-0.00615216,11.2468,2,-0.000754208,10,-6.9192e-05,-1.94897,-1.1264,-0.0523791,-0.0151496,
2,1,0,1,1,2445.7,-0.0037869,-0.00416968,11.1994,2,-0.000641948,10,-4.66978e-05,-1.95081,-1.373,-0.0429716,-0.0131292,
2,1,0,1,1,2445.71,-0.00178931,-0.00214903,11.1704,2,-0.000530103,10,-2.40055e-05,-1.95193,-1.04355,-0.0565377,-0.0110853,
2,1,0,1,1,2445.72,-2.55332e-05,-0.000306236,11.1024,2,-0.000433137,10,-3.39996e-06,-1.95458, , ,-0.00918816,