File: Figure_codes/Fig_S3_S4/20221101_1-115_002_TrumpetPlot_ParaChange_05_CV_C01_1.csv
mode,ox/red,error,control changes,counter inc.,time/s,control/V,Ewe/V,<I>/mA,cycle number,(Q-Qo)/C,I Range,P/W,log(|I|),Tafel slope mV/dec,alpha_eff,E-IR/V,
2,1,0,1,0,2190.51,2.44065e-05,-0.000325324,0.0686023,2,0.0000000E+000,11,-2.23179e-08,-4.16366, , ,-0.000380205,
2,1,0,0,0,2190.77,0.00129787,0.000951406,0.168696,2,4.51173e-05,11,1.60498e-07,-3.7729, , ,0.000816449,
2,1,0,0,0,2191.07,0.00279606,0.00252187,0.189262,2,0.00010738,11,4.77294e-07,-3.72294,0.0470624,1.25366,0.00237046,
2,1,0,1,0,2191.37,0.00429469,0.00401126,0.19653,2,0.000171371,11,7.88334e-07,-3.70657,0.384406,0.153484,0.00385404,
2,1,0,1,0,2191.67,0.00579255,0.0055249,0.202908,2,0.000237752,11,1.12104e-06,-3.6927,0.0938382,0.628742,0.00536257,
2,1,0,1,0,2191.97,0.0072904,0.0069669,0.210833,2,0.00030634,11,1.46885e-06,-3.67606,0.121713,0.484746,0.00679824,
2,1,0,1,0,2192.27,0.00878882,0.0085418,0.215373,2,0.000376674,11,1.83967e-06,-3.66681,0.166147,0.355108,0.0083695,
2,1,0,1,0,2192.57,0.010287,0.00998395,0.220095,2,0.000448356,11,2.19741e-06,-3.65739,0.183216,0.322024,0.00980787,
2,1,0,1,0,2192.87,0.0117852,0.0114834,0.22197,2,0.000521059,11,2.54896e-06,-3.65371,0.218277,0.270298,0.0113058,
2,1,0,1,0,2193.17,0.0132836,0.0129545,0.226693,2,0.000594786,11,2.93668e-06,-3.64456,0.217039,0.271841,0.0127731,
2,1,0,1,0,2193.47,0.0147815,0.0144757,0.228421,2,0.0006695,11,3.30655e-06,-3.64126,0.344389,0.171318,0.014293,
2,1,0,1,0,2193.77,0.0162793,0.0159536,0.233617,2,0.000745456,11,3.72704e-06,-3.63149,0.464126,0.127121,0.0157667,
2,1,0,0,0,2194.07,0.017778,0.0175012,0.234076,2,0.000821941,11,4.09661e-06,-3.63064,0.388187,0.151989,0.0173139,
2,1,0,0,0,2194.37,0.0192761,0.0189635,0.239004,2,0.000898695,11,4.53235e-06,-3.62159,0.448228,0.13163,0.0187723,
2,1,0,1,0,2194.66,0.0207747,0.0205332,0.240194,2,0.000976665,11,4.93196e-06,-3.61944,0.370033,0.159445,0.0203411,
2,1,0,1,0,2194.96,0.0222725,0.0219866,0.240971,2,0.00105525,11,5.29815e-06,-3.61803,0.425993,0.1385,0.0217939,
2,1,0,1,0,2195.26,0.0237704,0.0234602,0.244825,2,0.00113426,11,5.74365e-06,-3.61114,0.395394,0.149218,0.0232644,
2,1,0,1,0,2195.56,0.0252689,0.0249876,0.244652,2,0.00121359,11,6.11329e-06,-3.61145,0.518935,0.113694,0.0247919,
2,1,0,1,0,2195.86,0.0267671,0.0264627,0.246036,2,0.00129378,11,6.51076e-06,-3.609,0.267045,0.220937,0.0262658,
2,1,0,1,0,2196.16,0.0282657,0.0279807,0.249505,2,0.00137467,11,6.98131e-06,-3.60292,0.609678,0.0967723,0.0277811,
2,1,0,1,0,2196.46,0.0297635,0.0294965,0.253112,2,0.00145603,11,7.46592e-06,-3.59669,0.447989,0.1317,0.0292941,
2,1,0,1,0,2196.76,0.0312613,0.0309785,0.249755,2,0.00153777,11,7.73706e-06,-3.60249,0.359074,0.164312,0.0307787,
2,1,0,0,0,2197.06,0.0327598,0.032455,0.256488,2,0.00162015,11,8.32432e-06,-3.59093,0.439266,0.134315,0.0322498,
2,1,0,0,0,2197.36,0.034258,0.0339703,0.257267,2,0.00170326,11,8.73945e-06,-3.58962,0.396052,0.14897,0.0337645,
2,1,0,1,0,2197.66,0.0357567,0.0354914,0.259164,2,0.00178687,11,9.19809e-06,-3.58643,1.71985,0.0343053,0.0352841,
2,1,0,1,0,2197.96,0.0372545,0.0369556,0.261035,2,0.00187104,11,9.6467e-06,-3.5833,0.353081,0.1671,0.0367468,
2,1,0,1,0,2198.26,0.0387524,0.0384451,0.260859,2,0.00195566,11,1.00287e-05,-3.58359,0.279867,0.210814,0.0382364,
2,1,0,1,0,2198.56,0.0402508,0.039916,0.266209,2,0.00204107,11,1.0626e-05,-3.57478,0.459946,0.128276,0.0397031,
2,1,0,1,0,2198.86,0.041749,0.0414314,0.267804,2,0.00212763,11,1.10955e-05,-3.57218,0.590302,0.0999488,0.0412171,
2,1,0,1,0,2199.16,0.0432472,0.0429891,0.271838,2,0.00221461,11,1.16861e-05,-3.56569,0.349744,0.168695,0.0427716,
2,1,0,1,0,2199.46,0.0447456,0.0444263,0.273213,2,0.00230201,11,1.21378e-05,-3.5635,0.412939,0.142878,0.0442077,
2,1,0,1,0,2199.76,0.0462435,0.0459135,0.276689,2,0.00239066,11,1.27037e-05,-3.55801,0.270747,0.217916,0.0456921,
2,1,0,1,0,2200.06,0.0477413,0.0474349,0.279197,2,0.00248019,11,1.32437e-05,-3.55409,0.371323,0.158891,0.0472115,
2,1,0,0,0,2200.36,0.0492399,0.0489666,0.281334,2,0.00257057,11,1.3776e-05,-3.55078,0.333683,0.176815,0.0487415,
2,1,0,0,0,2200.66,0.0507381,0.0504353,0.284949,2,0.0026616,11,1.43715e-05,-3.54523,0.281262,0.209769,0.0502073,
2,1,0,1,0,2200.96,0.0522367,0.051952,0.287891,2,0.00275408,11,1.49565e-05,-3.54077,0.205112,0.287648,0.0517217,
2,1,0,1,0,2201.26,0.0537345,0.0534618,0.294266,2,0.00284775,11,1.5732e-05,-3.53126,0.227996,0.258777,0.0532264,
2,1,0,1,0,2201.56,0.0552323,0.0549365,0.297544,2,0.00294253,11,1.6346e-05,-3.52645,0.254629,0.23171,0.0546985,
2,1,0,1,0,2201.86,0.0567309,0.0564276,0.299426,2,0.00303853,11,1.68959e-05,-3.52371,0.237674,0.248239,0.0561881,
2,1,0,1,0,2202.16,0.0582291,0.0579366,0.306045,2,0.00313566,11,1.77312e-05,-3.51421,0.228695,0.257985,0.0576918,
2,1,0,1,0,2202.46,0.0597277,0.0593961,0.3126,2,0.0032345,11,1.85672e-05,-3.50501,0.198949,0.296558,0.0591461,
2,1,0,1,0,2202.76,0.0612255,0.0609005,0.315946,2,0.00333479,11,1.92413e-05,-3.50039,0.26017,0.226775,0.0606477,
2,1,0,1,0,2203.05,0.0627233,0.0624091,0.321427,2,0.00343677,11,2.006e-05,-3.49292,0.217586,0.271157,0.062152,
2,1,0,0,0,2203.35,0.0642218,0.0639056,0.326819,2,0.00353996,11,2.08856e-05,-3.48569,0.171009,0.34501,0.0636442,
2,1,0,0,0,2203.65,0.06572,0.0653743,0.332738,2,0.00364524,11,2.17525e-05,-3.4779,0.1731,0.340843,0.0651081,
2,1,0,1,0,2203.95,0.0672187,0.0669389,0.340192,2,0.00375251,11,2.27721e-05,-3.46828,0.20565,0.286896,0.0666667,
2,1,0,1,0,2204.25,0.0687165,0.0684069,0.347242,2,0.00386153,11,2.37538e-05,-3.45937,0.175222,0.336715,0.0681291,
2,1,0,1,0,2204.55,0.0702144,0.0699274,0.354271,2,0.00397194,11,2.47733e-05,-3.45066,0.179638,0.328438,0.0696439,
2,1,0,1,0,2204.85,0.0717128,0.071426,0.359352,2,0.00408483,11,2.56671e-05,-3.44448,0.162149,0.363863,0.0711385,
2,1,0,1,0,2205.15,0.073211,0.0728883,0.366056,2,0.00419961,11,2.66812e-05,-3.43645,0.184506,0.319773,0.0725955,
2,1,0,1,0,2205.45,0.0747092,0.0744111,0.371983,2,0.00431636,11,2.76797e-05,-3.42948,0.194531,0.303293,0.0741135,
2,1,0,1,0,2205.75,0.0762076,0.0759192,0.378119,2,0.00443487,11,2.87065e-05,-3.42237,0.186537,0.316291,0.0756167,
2,1,0,1,0,2206.05,0.0777054,0.0774023,0.387167,2,0.00455578,11,2.99676e-05,-3.4121,0.16486,0.357879,0.0770926,
2,1,0,1,0,2206.35,0.0792033,0.0788821,0.396178,2,0.0046788,11,3.12513e-05,-3.40211,0.185154,0.318653,0.0785651,
2,1,0,0,0,2206.65,0.0807019,0.0803928,0.399853,2,0.00480395,11,3.21453e-05,-3.3981,0.192249,0.306894,0.0800729,
2,1,0,0,0,2206.95,0.0822001,0.0819092,0.403805,2,0.00493088,11,3.30753e-05,-3.39383,0.218324,0.27024,0.0815862,
2,1,0,1,0,2207.25,0.0836986,0.0834046,0.413516,2,0.00505975,11,3.44891e-05,-3.38351,0.198572,0.297121,0.0830738,
2,1,0,1,0,2207.55,0.0851965,0.0848677,0.419553,2,0.00519086,11,3.56065e-05,-3.37721,0.228651,0.258035,0.0845321,
2,1,0,1,0,2207.85,0.0866944,0.0863975,0.426179,2,0.00532406,11,3.68208e-05,-3.37041,0.281875,0.209312,0.0860565,
2,1,0,1,0,2208.15,0.0881929,0.0879068,0.433633,2,0.00545929,11,3.81193e-05,-3.36288,0.240052,0.24578,0.0875599,
2,1,0,1,0,2208.45,0.0896911,0.0894285,0.440919,2,0.00559591,11,3.94307e-05,-3.35564,0.2294,0.257193,0.0890758,
2,1,0,1,0,2208.75,0.0911897,0.0908753,0.448093,2,0.00573498,11,4.07206e-05,-3.34863,0.205614,0.286946,0.0905168,
2,1,0,1,0,2209.05,0.0926875,0.0924061,0.454598,2,0.00587654,11,4.20077e-05,-3.34237,0.218986,0.269423,0.0920425,
2,1,0,1,0,2209.35,0.0941853,0.0939446,0.460414,2,0.00601964,11,4.32534e-05,-3.33685,0.243289,0.24251,0.0935763,
2,1,0,0,0,2209.65,0.0956838,0.0953923,0.466188,2,0.00616441,11,4.44707e-05,-3.33144,0.214096,0.275578,0.0950193,
2,1,0,0,0,2209.95,0.097182,0.0968811,0.473782,2,0.0063114,11,4.59005e-05,-3.32442,0.195636,0.301581,0.096502,
2,1,0,1,0,2210.25,0.0986806,0.0984148,0.480769,2,0.00646087,11,4.73148e-05,-3.31806,0.212947,0.277064,0.0980302,
2,1,0,1,0,2210.55,0.100179,0.09988,0.488999,2,0.00661233,11,4.88412e-05,-3.31069,0.209748,0.28129,0.0994888,
2,1,0,1,0,2210.85,0.101676,0.10139,0.493298,2,0.00676589,11,5.00153e-05,-3.30689,0.198991,0.296497,0.100995,
2,1,0,1,0,2211.14,0.103175,0.102885,0.506045,2,0.0069223,11,5.20644e-05,-3.29581,0.199164,0.296238,0.10248,
2,1,0,1,0,2211.44,0.104673,0.104408,0.519514,2,0.00708168,11,5.42413e-05,-3.2844,0.176239,0.334772,0.103992,
2,1,0,1,0,2211.74,0.106171,0.105849,0.526142,2,0.00724406,11,5.56916e-05,-3.2789,0.182289,0.323662,0.105428,
2,1,0,1,0,2212.04,0.10767,0.107371,0.533425,2,0.00740952,11,5.72743e-05,-3.27293,0.1588,0.371537,0.106944,
2,1,0,1,0,2212.34,0.109167,0.108892,0.546909,2,0.00757801,11,5.95541e-05,-3.26208,0.14609,0.40386,0.108455,
2,1,0,1,0,2212.64,0.110665,0.110328,0.560916,2,0.00775084,11,6.18845e-05,-3.2511,0.135946,0.433997,0.109879,
2,1,0,0,0,2212.94,0.112164,0.111876,0.577939,2,0.00792809,11,6.46577e-05,-3.23812,0.13783,0.428064,0.111414,
2,1,0,0,0,2213.24,0.113662,0.113399,0.593896,2,0.00810982,11,6.73472e-05,-3.22629,0.127194,0.463857,0.112924,
2,1,0,1,0,2213.54,0.115161,0.114822,0.612788,2,0.00829613,11,7.03617e-05,-3.21269,0.10942,0.539207,0.114332,
2,1,0,1,0,2213.84,0.116658,0.116336,0.632978,2,0.00848855,11,7.36383e-05,-3.19861,0.102759,0.574159,0.11583,
2,1,0,1,0,2214.14,0.118156,0.117834,0.650984,2,0.00868737,11,7.67082e-05,-3.18643,0.100335,0.588032,0.117313,
2,1,0,1,0,2214.44,0.119655,0.119378,0.674308,2,0.00889239,11,8.04972e-05,-3.17114,0.101662,0.580353,0.118838,
2,1,0,1,0,2214.74,0.121153,0.120866,0.694731,2,0.00910354,11,8.39696e-05,-3.15818,0.099913,0.590514,0.120311,
2,1,0,1,0,2215.04,0.122652,0.122308,0.721408,2,0.00932262,11,8.82341e-05,-3.14182,0.0887725,0.66462,0.121731,
2,1,0,1,0,2215.34,0.124149,0.123832,0.747376,2,0.00954918,11,9.25494e-05,-3.12646,0.0958289,0.615681,0.123235,
2,1,0,1,0,2215.64,0.125647,0.125346,0.773826,2,0.00978348,11,9.69963e-05,-3.11136,0.105143,0.56114,0.124727,
2,1,0,0,0,2215.94,0.127146,0.126844,0.792691,2,0.0100252,11,0.000100548,-3.1009,0.107736,0.547636,0.12621,
2,1,0,0,0,2216.24,0.128644,0.12835,0.825858,2,0.0102744,11,0.000105999,-3.08309,0.111296,0.530118,0.127689,
2,1,0,1,0,2216.54,0.130143,0.12983,0.854792,2,0.010532,11,0.000110978,-3.06814,0.115273,0.511829,0.129147,
2,1,0,1,0,2216.84,0.13164,0.131387,0.873214,2,0.0107969,11,0.000114729,-3.05888,0.149251,0.395308,0.130688,
2,1,0,1,0,2217.14,0.133138,0.132888,0.893996,2,0.0110683,11,0.000118801,-3.04866,0.149603,0.394378,0.132173,
2,1,0,1,0,2217.44,0.134637,0.134345,0.912068,2,0.0113449,11,0.000122532,-3.03997,0.170229,0.346593,0.133616,
2,1,0,1,0,2217.74,0.136135,0.135829,0.931304,2,0.0116278,11,0.000126498,-3.03091,0.204678,0.288258,0.135084,
2,1,0,1,0,2218.04,0.137633,0.137325,0.946634,2,0.0119154,11,0.000129996,-3.02382,0.295643,0.199565,0.136568,
2,1,0,1,0,2218.34,0.139132,0.138852,0.958372,2,0.0122067,11,0.000133072,-3.01847,0.39508,0.149337,0.138085,
2,1,0,1,0,2218.64,0.140629,0.140317,0.962894,2,0.0124998,11,0.000135111,-3.01642,0.627813,0.0939771,0.139547,
2,1,0,1,0,2218.94,0.142127,0.141814,0.96652,2,0.012795,11,0.000137066,-3.01479,0.776003,0.0760307,0.141041,
2,1,0,0,0,2219.24,0.143626,0.143355,0.968683,2,0.0130917,11,0.000138866,-3.01382,-3.41301,-0.0172868,0.142581,
2,1,0,0,0,2219.53,0.145124,0.144844,0.961526,2,0.0133871,11,0.000139272,-3.01704,-0.353566,-0.166871,0.144075,
2,1,0,1,0,2219.83,0.146623,0.14631,0.948246,2,0.0136799,11,0.000138738,-3.02308,-0.323508,-0.182376,0.145551,
2,1,0,1,0,2220.13,0.14812,0.147844,0.939649,2,0.0139696,11,0.000138922,-3.02703,-0.238986,-0.246877,0.147092,
2,1,0,1,0,2220.43,0.149618,0.149334,0.922685,2,0.014255,11,0.000137788,-3.03495,-0.164205,-0.359306,0.148596,
2,1,0,1,0,2220.73,0.151117,0.150872,0.901394,2,0.0145344,11,0.000135995,-3.04509,-0.12572,-0.469298,0.150151,
2,1,0,1,0,2221.03,0.152615,0.152344,0.86795,2,0.0148063,11,0.000132227,-3.06151,-0.104407,-0.565096,0.151649,
2,1,0,1,0,2221.33,0.154114,0.153825,0.843183,2,0.0150694,11,0.000129703,-3.07408,-0.0952219,-0.619606,0.153151,
2,1,0,1,0,2221.63,0.155612,0.155338,0.812604,2,0.0153233,11,0.000126229,-3.09012,-0.0839707,-0.702626,0.154688,
2,1,0,1,0,2221.93,0.157109,0.156827,0.775556,2,0.0155675,11,0.000121628,-3.11039,-0.0717798,-0.821958,0.156206,
2,1,0,0,0,2222.23,0.158608,0.158303,0.738337,2,0.0158007,11,0.000116881,-3.13175,-0.0706756,-0.834801,0.157712,
2,1,0,0,0,2222.53,0.160106,0.159803,0.702483,2,0.0160219,11,0.000112259,-3.15336,-0.0691228,-0.853553,0.159241,
2,1,0,1,0,2222.83,0.161605,0.161299,0.668365,2,0.0162332,11,0.000107807,-3.17499,-0.0680519,-0.866985,0.160764,
2,1,0,1,0,2223.13,0.163102,0.162802,0.632456,2,0.0164341,11,0.000102965,-3.19897,-0.0654791,-0.901051,0.162296,
2,1,0,1,0,2223.43,0.1646,0.164321,0.602329,2,0.016625,11,9.89756e-05,-3.22017,-0.0669055,-0.881841,0.16384,
2,1,0,1,0,2223.73,0.166099,0.16576,0.570875,2,0.0168063,11,9.46282e-05,-3.24346,-0.071068,-0.830191,0.165303,
2,1,0,1,0,2224.03,0.167597,0.167299,0.544591,2,0.0169793,11,9.11098e-05,-3.26393,-0.0764538,-0.771708,0.166864,
2,1,0,1,0,2224.33,0.169095,0.168821,0.52037,2,0.0171451,11,8.78494e-05,-3.28369,-0.0824044,-0.715981,0.168405,
2,1,0,1,0,2224.63,0.170594,0.170318,0.498393,2,0.0173038,11,8.48851e-05,-3.30243,-0.0796435,-0.740801,0.169919,
2,1,0,1,0,2224.93,0.172091,0.171789,0.475797,2,0.0174559,11,8.17367e-05,-3.32258,-0.09197,-0.641514,0.171408,
2,1,0,1,0,2225.23,0.173589,0.173274,0.461041,2,0.0176026,11,7.98867e-05,-3.33626,-0.103255,-0.571404,0.172906,
2,1,0,0,0,2225.53,0.175088,0.17479,0.446298,2,0.0177446,11,7.80084e-05,-3.35038,-0.10176,-0.579797,0.174433,
2,1,0,0,0,2225.83,0.176586,0.176266,0.430968,2,0.0178821,11,7.59651e-05,-3.36556,-0.106194,-0.555587,0.175921,
2,1,0,1,0,2226.13,0.178085,0.177768,0.415864,2,0.0180155,11,7.39274e-05,-3.38105,-0.116168,-0.507885,0.177436,
2,1,0,1,0,2226.43,0.179582,0.179296,0.408157,2,0.0181451,11,7.31808e-05,-3.38917,-0.138089,-0.427261,0.178969,
2,1,0,1,0,2226.73,0.18108,0.180799,0.395378,2,0.0182717,11,7.14839e-05,-3.40299,-0.14464,-0.40791,0.180483,
2,1,0,1,0,2227.03,0.182579,0.182284,0.386516,2,0.0183956,11,7.04557e-05,-3.41283,-0.122589,-0.481283,0.181975,
2,1,0,1,0,2227.33,0.184077,0.183835,0.379217,2,0.0185166,11,6.97135e-05,-3.42111,-0.160911,-0.366662,0.183532,
2,1,0,1,0,2227.63,0.185576,0.185278,0.371145,2,0.0186348,11,6.87651e-05,-3.43046,-0.182639,-0.323041,0.184981,
2,1,0,1,0,2227.92,0.187074,0.186851,0.36304,2,0.0187511,11,6.78345e-05,-3.44005,-0.196166,-0.300766,0.186561,
2,1,0,1,0,2228.22,0.188571,0.188278,0.357428,2,0.0188654,11,6.72959e-05,-3.44681,-0.178693,-0.330175,0.187992,
2,1,0,0,0,2228.52,0.19007,0.189757,0.350932,2,0.0189777,11,6.65917e-05,-3.45478,-0.215283,-0.274058,0.189476,
2,1,0,0,0,2228.82,0.191568,0.1913,0.346227,2,0.019088,11,6.6233e-05,-3.46064,-0.24846,-0.237463,0.191023,
2,1,0,1,0,2229.12,0.193067,0.192723,0.340044,2,0.019197,11,6.55343e-05,-3.46847,-0.277204,-0.212839,0.192451,
2,1,0,1,0,2229.42,0.194564,0.194288,0.334799,2,0.0193046,11,6.50474e-05,-3.47522,-0.285451,-0.206691,0.19402,
2,1,0,1,0,2229.72,0.196062,0.195751,0.330598,2,0.0194106,11,6.47149e-05,-3.4807,-0.264179,-0.223334,0.195487,
2,1,0,1,0,2230.02,0.197561,0.197236,0.325844,2,0.0195153,11,6.42682e-05,-3.48699,-0.269887,-0.21861,0.196975,
2,1,0,1,0,2230.32,0.199059,0.198731,0.323312,2,0.0196188,11,6.42521e-05,-3.49038,-0.324084,-0.182052,0.198472,
2,1,0,1,0,2230.62,0.200557,0.20027,0.318394,2,0.0197212,11,6.37646e-05,-3.49704,-0.309108,-0.190872,0.200015,
2,1,0,1,0,2230.92,0.202056,0.201771,0.316347,2,0.0198227,11,6.38299e-05,-3.49984,-0.282522,-0.208833,0.201518,
2,1,0,1,0,2231.22,0.203553,0.203265,0.310349,2,0.019923,11,6.3083e-05,-3.50815,-0.340929,-0.173057,0.203017,
2,1,0,1,0,2231.52,0.205051,0.204755,0.309756,2,0.0200223,11,6.3424e-05,-3.50898,-0.622337,-0.0948039,0.204507,
2,1,0,0,0,2231.82,0.20655,0.206265,0.305976,2,0.020121,11,6.31122e-05,-3.51431,-0.448121,-0.131661,0.20602,
2,1,0,0,0,2232.12,0.208048,0.207748,0.303243,2,0.0202193,11,6.29979e-05,-3.51821,-0.306144,-0.19272,0.207505,
2,1,0,1,0,2232.42,0.209547,0.209257,0.302595,2,0.0203164,11,6.33201e-05,-3.51914,-0.344588,-0.171219,0.209015,
2,1,0,1,0,2232.72,0.211044,0.210764,0.300884,2,0.0204126,11,6.34157e-05,-3.5216,-0.485728,-0.121467,0.210524,
2,1,0,1,0,2233.02,0.212542,0.212248,0.297195,2,0.0205083,11,6.30789e-05,-3.52696,-0.574699,-0.102662,0.21201,
2,1,0,1,0,2233.32,0.214041,0.213772,0.295567,2,0.0206035,11,6.3184e-05,-3.52934,-0.450447,-0.130981,0.213535,
2,1,0,1,0,2233.62,0.215539,0.215265,0.29325,2,0.0206979,11,6.31265e-05,-3.53276,-0.531309,-0.111047,0.21503,
2,1,0,1,0,2233.92,0.217038,0.216712,0.291044,2,0.0207917,11,6.30726e-05,-3.53604,-0.818204,-0.0721092,0.216479,
2,1,0,1,0,2234.22,0.218535,0.218254,0.289312,2,0.0208851,11,6.31436e-05,-3.53863,-0.877339,-0.0672488,0.218023,
2,1,0,1,0,2234.52,0.220033,0.219728,0.288426,2,0.0209781,11,6.33753e-05,-3.53997,-0.649825,-0.0907936,0.219497,
2,1,0,0,0,2234.82,0.221532,0.221268,0.287322,2,0.0210707,11,6.35751e-05,-3.54163,-0.665219,-0.0886927,0.221038,
2,1,0,0,0,2235.12,0.22303,0.222731,0.283238,2,0.0211626,11,6.3086e-05,-3.54785,-0.615142,-0.0959129,0.222505,
2,1,0,1,0,2235.42,0.224529,0.224275,0.283657,2,0.021254,11,6.36171e-05,-3.54721,-0.941435,-0.0626703,0.224048,
2,1,0,1,0,2235.72,0.226026,0.225754,0.282781,2,0.0213452,11,6.3839e-05,-3.54855,-0.856629,-0.0688746,0.225528,
2,1,0,1,0,2236.01,0.227524,0.227238,0.282622,2,0.021436,11,6.42224e-05,-3.54879,-0.664798,-0.0887488,0.227011,
2,1,0,1,0,2236.31,0.229023,0.228711,0.277274,2,0.0215264,11,6.34156e-05,-3.55709,-0.908478,-0.0649438,0.228489,
2,1,0,1,0,2236.61,0.230521,0.230267,0.279016,2,0.0216163,11,6.42483e-05,-3.55437,-1.38431,-0.0426204,0.230044,
2,1,0,1,0,2236.91,0.232019,0.231773,0.276364,2,0.021706,11,6.40538e-05,-3.55852,-0.444638,-0.132692,0.231552,
2,1,0,1,0,2237.21,0.233518,0.233225,0.275941,2,0.0217955,11,6.43564e-05,-3.55918,-0.500202,-0.117952,0.233005,
2,1,0,1,0,2237.51,0.235015,0.234735,0.276827,2,0.0218846,11,6.4981e-05,-3.55779,-0.952836,-0.0619204,0.234513,
2,1,0,1,0,2237.81,0.236513,0.236256,0.274925,2,0.0219731,11,6.49528e-05,-3.56079,-1.18563,-0.0497626,0.236036,
2,1,0,0,0,2238.11,0.238012,0.237742,0.274577,2,0.0220617,11,6.52785e-05,-3.56134,-0.672018,-0.0877952,0.237523,
2,1,0,0,0,2238.41,0.23951,0.239261,0.274757,2,0.02215,11,6.57385e-05,-3.56105,-1.73857,-0.0339359,0.239041,
2,1,0,1,0,2238.71,0.241009,0.24071,0.271864,2,0.0222381,11,6.54403e-05,-3.56565,-2.68411,-0.0219812,0.240492,
2,1,0,1,0,2239.01,0.242506,0.242216,0.271274,2,0.0223256,11,6.57069e-05,-3.56659,-0.745965,-0.0790922,0.241999,
2,1,0,1,0,2239.31,0.244004,0.24372,0.269125,2,0.0224131,11,6.55912e-05,-3.57005,9.3063,0.00633979,0.243505,
2,1,0,1,0,2239.61,0.245503,0.245253,0.270111,2,0.0225005,11,6.62456e-05,-3.56846,10.1712,0.0058007,0.245037,
2,1,0,1,0,2239.91,0.247001,0.246697,0.268764,2,0.0225875,11,6.63033e-05,-3.57063,-0.743213,-0.079385,0.246482,
2,1,0,1,0,2240.21,0.2485,0.248202,0.265479,2,0.0226744,11,6.58924e-05,-3.57597,-1.19405,-0.0494117,0.247989,
2,1,0,1,0,2240.51,0.249997,0.24973,0.268631,2,0.0227609,11,6.70852e-05,-3.57084,-1.99472,-0.0295781,0.249515,
2,1,0,1,0,2240.81,0.251495,0.251205,0.26571,2,0.0228474,11,6.67476e-05,-3.57559,-1.23789,-0.0476617,0.250992,
2,1,0,0,0,2241.11,0.252994,0.252648,0.265307,2,0.0229337,11,6.70294e-05,-3.57625,-0.474987,-0.124214,0.252436,
2,1,0,0,0,2241.41,0.254492,0.254185,0.264121,2,0.0230197,11,6.71357e-05,-3.5782,-1.193,-0.049455,0.253974,
2,1,0,1,0,2241.71,0.255991,0.255733,0.264693,2,0.0231054,11,6.76907e-05,-3.57726,-2.3271,-0.0253534,0.255521,
2,1,0,1,0,2242.01,0.257488,0.257229,0.264789,2,0.0231911,11,6.81116e-05,-3.5771,-1.98953,-0.0296552,0.257018,
2,1,0,1,0,2242.31,0.258986,0.258743,0.263819,2,0.0232768,11,6.82615e-05,-3.57869,-3.71143,-0.0158969,0.258532,
2,1,0,1,0,2242.61,0.260485,0.260225,0.263653,2,0.0233622,11,6.86091e-05,-3.57897,-2.3219,-0.0254102,0.260014,
2,1,0,1,0,2242.91,0.261983,0.26171,0.263613,2,0.0234472,11,6.89901e-05,-3.57903,-1.11181,-0.0530665,0.261499,
2,1,0,1,0,2243.21,0.263481,0.263201,0.26231,2,0.0235323,11,6.904e-05,-3.58119,-2.14738,-0.0274754,0.262991,
2,1,0,1,0,2243.51,0.264979,0.2647,0.262176,2,0.0236172,11,6.9398e-05,-3.58141,-6.1213,-0.00963848,0.26449,
2,1,0,1,0,2243.81,0.266477,0.266189,0.26025,2,0.0237019,11,6.92756e-05,-3.58461,-17.701,-0.00333314,0.26598,
2,1,0,0,0,2244.11,0.267976,0.26768,0.260619,2,0.0237864,11,6.97624e-05,-3.58399,-1.52173,-0.0387717,0.267471,
2,1,0,0,0,2244.4,0.269474,0.269232,0.259793,2,0.0238709,11,6.99447e-05,-3.58537,1.25076,0.0471714,0.269024,
2,1,0,0,0,2244.7,0.270972,0.27069,0.261711,2,0.0239552,11,7.08425e-05,-3.58218,-3.16314,-0.0186524,0.270481,
2,1,0,1,0,2245,0.27247,0.272175,0.259815,2,0.0240395,11,7.07151e-05,-3.58534,-4.11445,-0.0143397,0.271967,
2,1,0,1,0,2245.3,0.273968,0.27372,0.257828,2,0.0241235,11,7.05725e-05,-3.58867,-3.36211,-0.0175485,0.273513,
2,1,0,1,0,2245.6,0.275466,0.275163,0.259045,2,0.0242074,11,7.12796e-05,-3.58662,9.84692,0.00599172,0.274955,
2,1,0,1,0,2245.9,0.276965,0.276716,0.257183,2,0.0242911,11,7.11668e-05,-3.58976,-1.71274,-0.0344477,0.276511,
2,1,0,1,0,2246.2,0.278463,0.278203,0.255858,2,0.0243748,11,7.11806e-05,-3.592,-0.892579,-0.0661006,0.277998,
2,1,0,1,0,2246.5,0.279961,0.279669,0.256738,2,0.0244584,11,7.18015e-05,-3.59051,-0.815474,-0.0723505,0.279463,
2,1,0,1,0,2246.8,0.281459,0.281158,0.256438,2,0.0245417,11,7.20997e-05,-3.59102,-9.02729,-0.00653574,0.280953,
2,1,0,1,0,2247.1,0.282957,0.282704,0.256265,2,0.0246249,11,7.24473e-05,-3.59131,-2.55082,-0.0231298,0.282499,
2,1,0,0,0,2247.4,0.284456,0.284181,0.256138,2,0.0247082,11,7.27896e-05,-3.59153,-1.4251,-0.0414006,0.283976,
2,1,0,0,0,2247.7,0.285954,0.285647,0.256359,2,0.0247912,11,7.32283e-05,-3.59115,-4.05891,-0.0145359,0.285442,
2,1,0,0,0,2248,0.287452,0.287136,0.254121,2,0.024874,11,7.29673e-05,-3.59496,-5.23178,-0.0112772,0.286933,
2,1,0,1,0,2248.3,0.28895,0.288658,0.254297,2,0.0249569,11,7.34047e-05,-3.59466,3.91883,0.0150555,0.288454,
2,1,0,1,0,2248.6,0.290448,0.290157,0.253729,2,0.0250396,11,7.36211e-05,-3.59563,-2.89913,-0.0203509,0.289954,
2,1,0,1,0,2248.9,0.291947,0.291639,0.252947,2,0.0251223,11,7.37691e-05,-3.59697,-2.26184,-0.026085,0.291436,
2,1,0,1,0,2249.2,0.293445,0.293134,0.253679,2,0.0252046,11,7.43619e-05,-3.59572,-1.40718,-0.0419278,0.292931,
2,1,0,1,0,2249.5,0.294943,0.294636,0.254099,2,0.025287,11,7.48667e-05,-3.595,-36.0565,-0.00163632,0.294433,
2,1,0,1,0,2249.8,0.296441,0.29617,0.254699,2,0.0253694,11,7.54342e-05,-3.59397,-3.64808,-0.0161729,0.295966,
2,1,0,1,0,2250.1,0.297939,0.297704,0.252852,2,0.0254516,11,7.52749e-05,-3.59713,-2.14981,-0.0274443,0.297502,
2,1,0,1,0,2250.4,0.299437,0.299222,0.251523,2,0.0255337,11,7.52611e-05,-3.59942,-0.00177431,-33.2523,0.299021,
2,1,0,1,0,2250.57,0.299737,0.29942,0.0432483,2,0.0255674,11,1.29494e-05,-4.36403,0.000432892,136.293,0.299385,
2,1,0,1,0,2250.87,0.29824,0.29795,0.00429026,2,0.0255663,11,1.27829e-06,-5.36752,0.00311605,18.9342,0.297947,
2,1,0,0,0,2251.17,0.296741,0.296477,-0.0112073,2,0.0255585,11,-3.3227e-06,-4.9505,-0.009288,-6.35228,0.296486,
2,0,0,0,0,2251.47,0.295243,0.29497,-0.0220315,2,0.0255468,11,-6.49864e-06,-4.65696,-0.00699302,-8.43698,0.294988,
2,0,0,1,0,2251.77,0.293744,0.293442,-0.0324241,2,0.0255324,11,-9.51459e-06,-4.48913,-0.012241,-4.81986,0.293468,
2,0,0,1,0,2252.07,0.292246,0.291981,-0.0390467,2,0.0255158,11,-1.14009e-05,-4.40842,-0.0189762,-3.10915,0.292012,
2,0,0,1,0,2252.37,0.290749,0.290448,-0.0447576,2,0.0254972,11,-1.29998e-05,-4.34913,-0.0250456,-2.3557,0.290484,
2,0,0,1,0,2252.67,0.28925,0.288926,-0.0509755,2,0.0254768,11,-1.47281e-05,-4.29264,-0.029197,-2.02076,0.288967,
2,0,0,1,0,2252.96,0.287752,0.287474,-0.0542127,2,0.0254549,11,-1.55848e-05,-4.2659,-0.0399046,-1.47852,0.287518,
2,0,0,1,0,2253.26,0.286253,0.285966,-0.0580891,2,0.0254317,11,-1.66115e-05,-4.23591,-0.0442348,-1.33379,0.286013,
2,0,0,1,0,2253.56,0.284755,0.28449,-0.0629026,2,0.025407,11,-1.78952e-05,-4.20133,-0.0435118,-1.35595,0.284541,
2,0,0,1,0,2253.86,0.283257,0.283006,-0.0680618,2,0.025381,11,-1.92619e-05,-4.1671,-0.0604517,-0.975986,0.28306,
2,0,0,0,0,2254.16,0.281759,0.281481,-0.0710208,2,0.0253539,11,-1.9991e-05,-4.14861,-0.0689525,-0.855662,0.281538,
2,0,0,0,0,2254.46,0.280261,0.279983,-0.0739994,2,0.0253257,11,-2.07185e-05,-4.13077,-0.0706483,-0.835123,0.280042,
2,0,0,0,0,2254.76,0.278763,0.278458,-0.0791357,2,0.0252966,11,-2.20359e-05,-4.10163,-0.0895896,-0.658558,0.278521,
2,0,0,1,0,2255.06,0.277264,0.276959,-0.0826235,2,0.0252662,11,-2.28833e-05,-4.0829,-0.0790848,-0.746035,0.277025,
2,0,0,1,0,2255.36,0.275766,0.275471,-0.0855711,2,0.0252349,11,-2.35723e-05,-4.06767,-0.132629,-0.44485,0.275539,
2,0,0,1,0,2255.66,0.274268,0.273947,-0.0871435,2,0.0252028,11,-2.38727e-05,-4.05976,-0.103357,-0.570837,0.274017,
2,0,0,1,0,2255.96,0.27277,0.272462,-0.0919101,2,0.0251699,11,-2.5042e-05,-4.03664,-0.103713,-0.568877,0.272536,
2,0,0,1,0,2256.26,0.271272,0.271015,-0.0944374,2,0.0251359,11,-2.55939e-05,-4.02486,-0.10514,-0.561158,0.27109,
2,0,0,1,0,2256.56,0.269773,0.269467,-0.0969904,2,0.025101,11,-2.61357e-05,-4.01327,-0.129295,-0.45632,0.269545,
2,0,0,1,0,2256.86,0.268275,0.267997,-0.100613,2,0.0250653,11,-2.69639e-05,-3.99735,-0.0982064,-0.600776,0.268077,
2,0,0,1,0,2257.16,0.266778,0.266453,-0.102112,2,0.025029,11,-2.72081e-05,-3.99092,-0.154777,-0.381194,0.266535,
2,0,0,0,0,2257.46,0.265279,0.264944,-0.104378,2,0.0249918,11,-2.76542e-05,-3.98139,-0.118622,-0.497379,0.265027,
2,0,0,0,0,2257.76,0.263781,0.263484,-0.106433,2,0.0249537,11,-2.80434e-05,-3.97292,-0.141398,-0.417261,0.263569,
2,0,0,1,0,2258.06,0.262282,0.261995,-0.109188,2,0.024915,11,-2.86067e-05,-3.96182,-0.168322,-0.350518,0.262082,
2,0,0,1,0,2258.36,0.260784,0.260533,-0.111567,2,0.0248756,11,-2.90669e-05,-3.95246,-0.132875,-0.444026,0.260622,
2,0,0,1,0,2258.66,0.259286,0.259026,-0.113262,2,0.0248354,11,-2.93378e-05,-3.94591,-0.128359,-0.459648,0.259116,
2,0,0,1,0,2258.96,0.257788,0.257531,-0.118192,2,0.0247943,11,-3.04381e-05,-3.92741,-0.18776,-0.314231,0.257625,
2,0,0,1,0,2259.26,0.25629,0.255936,-0.119591,2,0.0247525,11,-3.06076e-05,-3.9223,-0.181707,-0.324699,0.256031,
2,0,0,1,0,2259.56,0.254791,0.254474,-0.120493,2,0.0247102,11,-3.06622e-05,-3.91904,-0.171177,-0.344672,0.25457,
2,0,0,1,0,2259.86,0.253293,0.252981,-0.123629,2,0.0246672,11,-3.12757e-05,-3.90788,-0.243373,-0.242426,0.25308,
2,0,0,1,0,2260.16,0.251795,0.251505,-0.125562,2,0.0246234,11,-3.15796e-05,-3.90114,-0.192827,-0.305974,0.251606,
2,0,0,0,0,2260.46,0.250297,0.250021,-0.126885,2,0.024579,11,-3.17239e-05,-3.89659,-0.472674,-0.124822,0.250122,
2,0,0,0,0,2260.76,0.248799,0.248533,-0.129893,2,0.0245339,11,-3.22828e-05,-3.88641,-0.192537,-0.306434,0.248637,
2,0,0,0,0,2261.06,0.247301,0.247005,-0.132811,2,0.0244883,11,-3.28049e-05,-3.87677,-0.172318,-0.34239,0.247111,
2,0,0,1,0,2261.35,0.245802,0.245504,-0.135609,2,0.0244418,11,-3.32927e-05,-3.86771,-0.23163,-0.254717,0.245613,
2,0,0,1,0,2261.65,0.244304,0.24401,-0.138414,2,0.0243946,11,-3.37744e-05,-3.85882,-0.224548,-0.26275,0.244121,
2,0,0,1,0,2261.95,0.242806,0.242483,-0.139806,2,0.0243468,11,-3.39006e-05,-3.85447,-0.189254,-0.311751,0.242595,
2,0,0,1,0,2262.25,0.241308,0.241025,-0.141725,2,0.0242985,11,-3.41593e-05,-3.84855,-0.219286,-0.269055,0.241139,
2,0,0,1,0,2262.55,0.23981,0.239557,-0.142672,2,0.0242494,11,-3.4178e-05,-3.84566,-0.174419,-0.338266,0.239671,
2,0,0,1,0,2262.85,0.238311,0.238003,-0.144545,2,0.0241996,11,-3.44022e-05,-3.84,-0.197133,-0.29929,0.238119,
2,0,0,1,0,2263.15,0.236813,0.236522,-0.147893,2,0.0241492,11,-3.49799e-05,-3.83005,-0.246623,-0.239232,0.23664,
2,0,0,1,0,2263.45,0.235316,0.235009,-0.149101,2,0.0240982,11,-3.50401e-05,-3.82652,-0.24575,-0.240082,0.235128,
2,0,0,0,0,2263.75,0.233817,0.233526,-0.153094,2,0.0240465,11,-3.57515e-05,-3.81504,-0.257049,-0.229528,0.233649,
2,0,0,0,0,2264.05,0.232319,0.232038,-0.155721,2,0.023994,11,-3.61332e-05,-3.80765,-0.243571,-0.242229,0.232163,
2,0,0,1,0,2264.35,0.23082,0.230542,-0.157474,2,0.0239408,11,-3.63043e-05,-3.80279,-0.279143,-0.211361,0.230668,
2,0,0,1,0,2264.65,0.229322,0.229034,-0.157857,2,0.023887,11,-3.61547e-05,-3.80174,-0.295017,-0.199989,0.229161,
2,0,0,1,0,2264.95,0.227824,0.227537,-0.161147,2,0.0238327,11,-3.6667e-05,-3.79278,-0.206543,-0.285655,0.227666,
2,0,0,1,0,2265.25,0.226326,0.226056,-0.162507,2,0.0237775,11,-3.67357e-05,-3.78913,-0.328515,-0.179596,0.226186,
2,0,0,1,0,2265.55,0.224828,0.224558,-0.165856,2,0.0237215,11,-3.72443e-05,-3.78027,-0.5605,-0.105263,0.224691,
2,0,0,1,0,2265.85,0.223329,0.223044,-0.168692,2,0.0236649,11,-3.76256e-05,-3.77291,-0.23514,-0.250914,0.223179,
2,0,0,1,0,2266.15,0.221831,0.221551,-0.171282,2,0.0236077,11,-3.79478e-05,-3.76629,-0.206774,-0.285336,0.221688,
2,0,0,1,0,2266.45,0.220333,0.220043,-0.173365,2,0.0235496,11,-3.81479e-05,-3.76104,-0.264704,-0.22289,0.220182,
2,0,0,0,0,2266.75,0.218835,0.218552,-0.175994,2,0.0234905,11,-3.84639e-05,-3.7545,-0.206232,-0.286086,0.218693,
2,0,0,0,0,2267.05,0.217337,0.217059,-0.17903,2,0.0234308,11,-3.886e-05,-3.74708,-0.271815,-0.21706,0.217202,
2,0,0,0,0,2267.35,0.215839,0.21552,-0.18102,2,0.0233705,11,-3.90136e-05,-3.74227,-0.263853,-0.22361,0.215665,
2,0,0,1,0,2267.65,0.21434,0.21406,-0.184237,2,0.0233092,11,-3.94378e-05,-3.73462,-0.145118,-0.406566,0.214207,
2,0,0,1,0,2267.95,0.212842,0.212537,-0.187282,2,0.0232469,11,-3.98043e-05,-3.7275,-0.189581,-0.311213,0.212686,
2,0,0,1,0,2268.25,0.211344,0.211069,-0.189119,2,0.0231839,11,-3.99171e-05,-3.72327,-0.207353,-0.284538,0.21122,
2,0,0,1,0,2268.55,0.209846,0.209572,-0.191265,2,0.0231201,11,-4.00837e-05,-3.71836,-0.215634,-0.273612,0.209725,
2,0,0,1,0,2268.85,0.208348,0.20811,-0.196579,2,0.0230553,11,-4.09102e-05,-3.70646,-0.203516,-0.289904,0.208268,
2,0,0,1,0,2269.15,0.206849,0.206542,-0.204272,2,0.0229892,11,-4.21907e-05,-3.68979,-0.212515,-0.277627,0.206705,
2,0,0,1,0,2269.45,0.205351,0.205042,-0.203607,2,0.022922,11,-4.1748e-05,-3.69121,-0.235777,-0.250237,0.205205,
2,0,0,1,0,2269.74,0.203854,0.203579,-0.207394,2,0.0228541,11,-4.2221e-05,-3.6832,-0.169152,-0.348799,0.203744,
2,0,0,0,0,2270.04,0.202355,0.20208,-0.210126,2,0.0227853,11,-4.24622e-05,-3.67752,-0.173463,-0.34013,0.202248,
2,0,0,0,0,2270.34,0.200857,0.200572,-0.215012,2,0.022715,11,-4.31254e-05,-3.66754,-0.188607,-0.31282,0.200744,
2,0,0,1,0,2270.64,0.199358,0.199096,-0.21888,2,0.0226436,11,-4.3578e-05,-3.65979,-0.206696,-0.285444,0.199271,
2,0,0,1,0,2270.94,0.19786,0.197557,-0.224116,2,0.022571,11,-4.42756e-05,-3.64953,-0.152611,-0.386603,0.197736,
2,0,0,1,0,2271.24,0.196363,0.196071,-0.229072,2,0.0224972,11,-4.49142e-05,-3.64003,-0.1785,-0.330532,0.196254,
2,0,0,1,0,2271.54,0.194864,0.194559,-0.233547,2,0.0224218,11,-4.54387e-05,-3.63163,-0.17194,-0.343144,0.194746,
2,0,0,1,0,2271.84,0.193366,0.193077,-0.238232,2,0.0223447,11,-4.59972e-05,-3.623,-0.163177,-0.36157,0.193267,
2,0,0,1,0,2272.14,0.191867,0.191583,-0.242638,2,0.0222663,11,-4.64854e-05,-3.61504,-0.179007,-0.329596,0.191777,
2,0,0,1,0,2272.44,0.190369,0.190062,-0.249139,2,0.0221865,11,-4.73519e-05,-3.60356,-0.137124,-0.430268,0.190261,
2,0,0,1,0,2272.74,0.188871,0.188532,-0.254843,2,0.0221046,11,-4.80461e-05,-3.59373,-0.112596,-0.523997,0.188736,
2,0,0,0,0,2273.04,0.187373,0.187137,-0.261633,2,0.0220209,11,-4.89611e-05,-3.58231,-0.141854,-0.415921,0.187346,
2,0,0,0,0,2273.34,0.185875,0.185544,-0.268533,2,0.0219352,11,-4.98246e-05,-3.571,-0.127433,-0.462989,0.185759,
2,0,0,0,0,2273.64,0.184377,0.184079,-0.274443,2,0.0218475,11,-5.05193e-05,-3.56155,-0.129168,-0.45677,0.184299,
2,0,0,1,0,2273.94,0.182878,0.18263,-0.283791,2,0.0217574,11,-5.18287e-05,-3.547,-0.112949,-0.522362,0.182857,
2,0,0,1,0,2274.24,0.181381,0.181101,-0.292688,2,0.0216648,11,-5.30061e-05,-3.5336,-0.115221,-0.512058,0.181335,
2,0,0,1,0,2274.54,0.179882,0.179592,-0.300456,2,0.0215694,11,-5.39593e-05,-3.52222,-0.126502,-0.466395,0.179832,
2,0,0,1,0,2274.84,0.178384,0.17806,-0.312406,2,0.0214714,11,-5.56272e-05,-3.50528,-0.100648,-0.586201,0.17831,
2,0,0,1,0,2275.14,0.176886,0.176576,-0.321606,2,0.0213705,11,-5.67879e-05,-3.49268,-0.0993129,-0.594082,0.176833,
2,0,0,1,0,2275.44,0.175387,0.175124,-0.333185,2,0.0212659,11,-5.83486e-05,-3.47731,-0.0980982,-0.601438,0.17539,
2,0,0,1,0,2275.74,0.173889,0.17359,-0.346723,2,0.0211577,11,-6.01876e-05,-3.46002,-0.0900936,-0.654875,0.173867,
2,0,0,1,0,2276.04,0.172392,0.172111,-0.360823,2,0.0210455,11,-6.21015e-05,-3.44271,-0.0855656,-0.68953,0.172399,
2,0,0,0,0,2276.34,0.170893,0.170614,-0.375711,2,0.0209293,11,-6.41017e-05,-3.42515,-0.0831401,-0.709645,0.170915,
2,0,0,0,0,2276.64,0.169395,0.169067,-0.392396,2,0.0208081,11,-6.63413e-05,-3.40628,-0.070595,-0.835753,0.169381,
2,0,0,1,0,2276.94,0.167896,0.167619,-0.409435,2,0.0206812,11,-6.86292e-05,-3.38782,-0.0708248,-0.833042,0.167947,
2,0,0,1,0,2277.24,0.166398,0.166117,-0.42903,2,0.0205487,11,-7.12693e-05,-3.36751,-0.0750347,-0.786303,0.16646,
2,0,0,1,0,2277.54,0.164901,0.164588,-0.449411,2,0.0204104,11,-7.39679e-05,-3.34736,-0.0634981,-0.929162,0.164948,
2,0,0,1,0,2277.83,0.163402,0.163102,-0.478046,2,0.0202646,11,-7.79705e-05,-3.32053,-0.063307,-0.931967,0.163485,
2,0,0,1,0,2278.13,0.161904,0.161607,-0.505328,2,0.0201112,11,-8.16646e-05,-3.29643,-0.0630542,-0.935703,0.162011,
2,0,0,1,0,2278.43,0.160405,0.160055,-0.534108,2,0.0199494,11,-8.54869e-05,-3.27237,-0.0618147,-0.954465,0.160483,
2,0,0,1,0,2278.73,0.158907,0.158628,-0.561715,2,0.0197787,11,-8.91039e-05,-3.25048,-0.0604441,-0.976108,0.159078,
2,0,0,1,0,2279.03,0.157409,0.157104,-0.596361,2,0.0195987,11,-9.36906e-05,-3.22449,-0.0584328,-1.00971,0.157581,
2,0,0,0,0,2279.33,0.155911,0.155627,-0.629202,2,0.0194084,11,-9.79206e-05,-3.20121,-0.0610804,-0.96594,0.15613,
2,0,0,0,0,2279.63,0.154413,0.154105,-0.666199,2,0.019207,11,-0.000102664,-3.1764,-0.065314,-0.903328,0.154638,
2,0,0,0,0,2279.93,0.152915,0.152623,-0.703217,2,0.0189953,11,-0.000107327,-3.15291,-0.0675398,-0.873559,0.153186,
2,0,0,1,0,2280.23,0.151416,0.151104,-0.73951,2,0.0187736,11,-0.000111743,-3.13106,-0.0715453,-0.824652,0.151695,
2,0,0,1,0,2280.53,0.149919,0.149615,-0.775935,2,0.0185406,11,-0.000116092,-3.11017,-0.0732604,-0.805346,0.150236,
2,0,0,1,0,2280.83,0.14842,0.148127,-0.808048,2,0.0182973,11,-0.000119694,-3.09256,-0.0865911,-0.681363,0.148774,
2,0,0,1,0,2281.13,0.146922,0.146605,-0.840325,2,0.0180443,11,-0.000123196,-3.07555,-0.0933596,-0.631965,0.147277,
2,0,0,1,0,2281.43,0.145424,0.145127,-0.864668,2,0.0177831,11,-0.000125487,-3.06315,-0.107608,-0.548287,0.145819,
2,0,0,1,0,2281.73,0.143925,0.143636,-0.892964,2,0.0175132,11,-0.000128262,-3.04917,-0.114406,-0.515709,0.14435,
2,0,0,1,0,2282.03,0.142427,0.14216,-0.916335,2,0.0172357,11,-0.000130267,-3.03795,-0.149776,-0.393923,0.142894,
2,0,0,1,0,2282.33,0.14093,0.140615,-0.935687,2,0.0169522,11,-0.000131572,-3.02887,-0.210852,-0.279818,0.141364,
2,0,0,0,0,2282.63,0.139431,0.139141,-0.940886,2,0.0166643,11,-0.000130916,-3.02646,-0.25867,-0.22809,0.139894,
2,0,0,0,0,2282.93,0.137933,0.137673,-0.958788,2,0.0163731,11,-0.000131999,-3.01828,-0.423575,-0.13929,0.13844,
2,0,0,1,0,2283.23,0.136434,0.136143,-0.968079,2,0.0160787,11,-0.000131798,-3.01409,-0.693598,-0.0850636,0.136918,
2,0,0,1,0,2283.53,0.134936,0.134649,-0.967788,2,0.0157828,11,-0.000130312,-3.01422,2.41601,0.0244205,0.135424,
2,0,0,1,0,2283.83,0.133439,0.133127,-0.962417,2,0.0154872,11,-0.000128124,-3.01664,0.845996,0.0697403,0.133897,
2,0,0,1,0,2284.13,0.13194,0.131675,-0.956147,2,0.0151932,11,-0.000125901,-3.01948,0.459768,0.128325,0.13244,
2,0,0,1,0,2284.43,0.130442,0.13014,-0.950302,2,0.0149008,11,-0.000123672,-3.02214,0.312092,0.189047,0.1309,
2,0,0,1,0,2284.73,0.128943,0.128632,-0.937465,2,0.0146114,11,-0.000120588,-3.02804,0.198928,0.296589,0.129382,
2,0,0,1,0,2285.03,0.127445,0.127151,-0.922092,2,0.0143267,11,-0.000117245,-3.03523,0.185207,0.318562,0.127889,
2,0,0,1,0,2285.33,0.125947,0.125644,-0.903925,2,0.0140481,11,-0.000113573,-3.04387,0.169656,0.347762,0.126367,
2,0,0,0,0,2285.63,0.124449,0.124149,-0.883652,2,0.0137745,11,-0.000109705,-3.05372,0.15968,0.369488,0.124856,
2,0,0,0,0,2285.93,0.122951,0.122683,-0.85995,2,0.013507,11,-0.000105501,-3.06553,0.1395,0.42294,0.123371,
2,0,0,0,0,2286.22,0.121453,0.121175,-0.83815,2,0.0132464,11,-0.000101563,-3.07668,0.122113,0.483158,0.121846,
2,0,0,1,0,2286.52,0.119954,0.119696,-0.812839,2,0.0129932,11,-9.72933e-05,-3.09,0.121945,0.483824,0.120346,
2,0,0,1,0,2286.82,0.118456,0.118212,-0.791482,2,0.0127466,11,-9.35627e-05,-3.10156,0.136132,0.433403,0.118845,
2,0,0,1,0,2287.12,0.116958,0.116606,-0.769394,2,0.0125062,11,-8.97157e-05,-3.11385,0.126445,0.466607,0.117221,
2,0,0,1,0,2287.42,0.11546,0.115135,-0.746767,2,0.0122728,11,-8.5979e-05,-3.12681,0.117078,0.50394,0.115732,
2,0,0,1,0,2287.72,0.113962,0.113672,-0.721888,2,0.012046,11,-8.20581e-05,-3.14153,0.121595,0.485218,0.114249,
2,0,0,1,0,2288.02,0.112463,0.112165,-0.707914,2,0.0118253,11,-7.94034e-05,-3.15002,0.131789,0.447685,0.112732,
2,0,0,1,0,2288.32,0.110965,0.110678,-0.690163,2,0.0116099,11,-7.6386e-05,-3.16105,0.145188,0.406368,0.11123,
2,0,0,1,0,2288.62,0.109468,0.109183,-0.672797,2,0.0113995,11,-7.34581e-05,-3.17212,0.139621,0.422572,0.109721,
2,0,0,0,0,2288.92,0.107969,0.107703,-0.657803,2,0.0111938,11,-7.0847e-05,-3.1819,0.153406,0.3846,0.108229,
2,0,0,0,0,2289.22,0.106471,0.10615,-0.644112,2,0.010993,11,-6.83725e-05,-3.19104,0.18015,0.327505,0.106665,
2,0,0,1,0,2289.52,0.104972,0.104735,-0.633545,2,0.0107954,11,-6.63545e-05,-3.19822,0.189981,0.310558,0.105242,
2,0,0,1,0,2289.82,0.103474,0.103205,-0.622953,2,0.0106011,11,-6.42921e-05,-3.20554,0.177541,0.332319,0.103704,
2,0,0,1,0,2290.12,0.101977,0.101715,-0.61157,2,0.0104105,11,-6.22057e-05,-3.21355,0.209792,0.281231,0.102204,
2,0,0,1,0,2290.42,0.100478,0.10018,-0.602069,2,0.0102233,11,-6.03153e-05,-3.22035,0.228871,0.257788,0.100662,
2,0,0,1,0,2290.72,0.0989798,0.0986456,-0.593383,2,0.0100382,11,-5.85346e-05,-3.22667,0.31265,0.188709,0.0991203,
2,0,0,1,0,2291.02,0.0974812,0.0971437,-0.586415,2,0.00985552,11,-5.69665e-05,-3.2318,0.254978,0.231392,0.0976128,
2,0,0,1,0,2291.32,0.0959834,0.0956837,-0.57805,2,0.0096752,11,-5.53099e-05,-3.23803,0.285483,0.206667,0.0961461,
2,0,0,1,0,2291.62,0.0944855,0.0942081,-0.568899,2,0.00949751,11,-5.35949e-05,-3.24496,0.282293,0.209003,0.0946632,
2,0,0,0,0,2291.92,0.0929871,0.0927232,-0.563872,2,0.00932142,11,-5.2284e-05,-3.24882,0.365596,0.16138,0.0931743,
2,0,0,0,0,2292.22,0.0914889,0.0911931,-0.561052,2,0.00914701,11,-5.1164e-05,-3.251,0.347379,0.169844,0.0916419,
2,0,0,0,0,2292.52,0.0899907,0.0896947,-0.551956,2,0.00897463,11,-4.95075e-05,-3.2581,0.323858,0.182179,0.0901363,
2,0,0,1,0,2292.82,0.0884923,0.0882248,-0.54192,2,0.00880421,11,-4.78108e-05,-3.26606,0.299263,0.197151,0.0886583,
2,0,0,1,0,2293.12,0.0869945,0.0867024,-0.538566,2,0.00863583,11,-4.6695e-05,-3.26876,0.31739,0.185891,0.0871333,
2,0,0,1,0,2293.42,0.0854961,0.0852113,-0.533149,2,0.00846899,11,-4.54303e-05,-3.27315,0.292797,0.201505,0.0856378,
2,0,0,1,0,2293.72,0.083998,0.0837257,-0.527328,2,0.008304,11,-4.41509e-05,-3.27792,0.235027,0.251035,0.0841475,
2,0,0,1,0,2294.02,0.0824998,0.0822135,-0.521014,2,0.00814078,11,-4.28344e-05,-3.28315,0.276002,0.213767,0.0826303,
2,0,0,1,0,2294.32,0.0810013,0.080698,-0.516072,2,0.00797985,11,-4.1646e-05,-3.28729,0.30219,0.195241,0.0811108,
2,0,0,1,0,2294.61,0.0795035,0.0792074,-0.50974,2,0.00782036,11,-4.03751e-05,-3.29265,0.305457,0.193153,0.0796151,
2,0,0,1,0,2294.91,0.0780056,0.0777126,-0.504134,2,0.00766256,11,-3.91776e-05,-3.29745,0.243728,0.242073,0.0781159,
2,0,0,0,0,2295.21,0.076507,0.0761957,-0.496242,2,0.00750671,11,-3.78115e-05,-3.30431,0.251595,0.234504,0.0765927,
2,0,0,0,0,2295.51,0.0750088,0.0746783,-0.489391,2,0.00735328,11,-3.65469e-05,-3.31034,0.271318,0.217457,0.0750698,
2,0,0,1,0,2295.81,0.0735103,0.0732083,-0.483945,2,0.0072015,11,-3.54288e-05,-3.3152,0.291517,0.20239,0.0735955,
2,0,0,1,0,2296.11,0.0720124,0.0717041,-0.476429,2,0.00705147,11,-3.41619e-05,-3.322,0.2423,0.2435,0.0720852,
2,0,0,1,0,2296.41,0.0705146,0.0701932,-0.469686,2,0.00690342,11,-3.29687e-05,-3.32819,0.23566,0.250361,0.0705689,
2,0,0,1,0,2296.71,0.069016,0.068723,-0.462394,2,0.00675758,11,-3.17771e-05,-3.33499,0.275066,0.214494,0.069093,
2,0,0,1,0,2297.01,0.0675179,0.0672438,-0.458031,2,0.00661332,11,-3.07997e-05,-3.33911,0.296921,0.198706,0.0676102,
2,0,0,1,0,2297.31,0.0660192,0.0657725,-0.455564,2,0.00647068,11,-2.99636e-05,-3.34145,0.243124,0.242674,0.066137,
2,0,0,1,0,2297.61,0.0645214,0.064195,-0.447329,2,0.00632966,11,-2.87163e-05,-3.34937,0.273151,0.215998,0.0645528,
2,0,0,1,0,2297.91,0.0630235,0.0627181,-0.4382,2,0.00619077,11,-2.7483e-05,-3.35833,0.267758,0.220348,0.0630686,
2,0,0,0,0,2298.21,0.0615251,0.0612567,-0.436172,2,0.00605336,11,-2.67184e-05,-3.36034,0.31559,0.186952,0.0616057,
2,0,0,0,0,2298.51,0.0600269,0.0597075,-0.431442,2,0.00591745,11,-2.57603e-05,-3.36508,0.311706,0.189281,0.0600526,
2,0,0,0,0,2298.81,0.0585287,0.0582102,-0.426336,2,0.00578271,11,-2.48171e-05,-3.37025,0.275483,0.21417,0.0585512,
2,0,0,1,0,2299.11,0.0570303,0.0567243,-0.422008,2,0.0056493,11,-2.39381e-05,-3.37468,0.341145,0.172947,0.0570619,
2,0,0,1,0,2299.41,0.0555325,0.0552241,-0.418423,2,0.00551765,11,-2.3107e-05,-3.37838,0.367523,0.160534,0.0555589,
2,0,0,1,0,2299.71,0.0540341,0.0537141,-0.415651,2,0.0053868,11,-2.23263e-05,-3.38127,0.465754,0.126676,0.0540466,
2,0,0,1,0,2300.01,0.052536,0.0522199,-0.412374,2,0.00525667,11,-2.15342e-05,-3.38471,0.484774,0.121706,0.0525498,
2,0,0,1,0,2300.31,0.0510378,0.0507439,-0.40866,2,0.00512772,11,-2.0737e-05,-3.38864,0.433031,0.136249,0.0510708,
2,0,0,1,0,2300.61,0.0495394,0.0492389,-0.407219,2,0.0049999,11,-2.0051e-05,-3.39017,0.459533,0.128391,0.0495647,
2,0,0,1,0,2300.91,0.0480415,0.0477504,-0.40296,2,0.00487257,11,-1.92415e-05,-3.39474,2.53135,0.0233077,0.0480728,
2,0,0,1,0,2301.21,0.0465436,0.0462545,-0.398896,2,0.00474587,11,-1.84508e-05,-3.39914,0.788612,0.074815,0.0465737,
2,0,0,0,0,2301.51,0.045045,0.0447875,-0.398495,2,0.0046198,11,-1.78476e-05,-3.39958,0.677811,0.0870449,0.0451063,
2,0,0,0,0,2301.81,0.0435468,0.0432298,-0.396731,2,0.00449446,11,-1.71506e-05,-3.4015,0.92175,0.0640087,0.0435472,
2,0,0,1,0,2302.11,0.0420483,0.0417556,-0.397874,2,0.00436951,11,-1.66134e-05,-3.40025,2.29378,0.0257217,0.0420739,
2,0,0,1,0,2302.41,0.0405504,0.0402426,-0.398486,2,0.00424466,11,-1.60361e-05,-3.39959,3.43618,0.0171703,0.0405614,
2,0,0,1,0,2302.7,0.0390526,0.0387668,-0.394246,2,0.00411996,11,-1.52837e-05,-3.40423,1.24575,0.0473608,0.0390822,
2,0,0,1,0,2303,0.0375541,0.0372311,-0.391651,2,0.00399573,11,-1.45816e-05,-3.4071,3.5087,0.0168153,0.0375444,
2,0,0,1,0,2303.3,0.0360559,0.0357698,-0.392775,2,0.00387185,11,-1.40495e-05,-3.40586,2.4715,0.0238722,0.0360841,
2,0,0,1,0,2303.6,0.0345572,0.0342415,-0.391876,2,0.00374785,11,-1.34184e-05,-3.40685,2.48244,0.0237669,0.034555,
2,0,0,1,0,2303.9,0.0330594,0.0327657,-0.393893,2,0.0036237,11,-1.29062e-05,-3.40462,1.11417,0.0529541,0.0330808,
2,0,0,1,0,2304.2,0.0315615,0.0312434,-0.394755,2,0.00349959,11,-1.23335e-05,-3.40367,-6.60378,-0.00893428,0.0315592,
2,0,0,0,0,2304.5,0.0300631,0.0297966,-0.394911,2,0.00337578,11,-1.1767e-05,-3.4035,-6.92634,-0.0085182,0.0301125,
2,0,0,0,0,2304.8,0.0285649,0.028277,-0.395805,2,0.00325143,11,-1.11922e-05,-3.40252,-2.2449,-0.0262818,0.0285937,
2,0,0,0,0,2305.1,0.0270667,0.0267362,-0.395747,2,0.00312688,11,-1.05808e-05,-3.40258,-1.44995,-0.0406911,0.0270528,
2,0,0,1,0,2305.4,0.0255683,0.0252515,-0.394997,2,0.00300212,11,-9.97429e-06,-3.40341,-3.62699,-0.0162669,0.0255675,
2,0,0,1,0,2305.7,0.0240706,0.0237906,-0.396521,2,0.00287761,11,-9.43347e-06,-3.40173,-3.14835,-0.01874,0.0241078,
2,0,0,1,0,2306,0.0225722,0.0222295,-0.396653,2,0.00275228,11,-8.8174e-06,-3.40159,-0.501935,-0.117545,0.0225468,
2,0,0,1,0,2306.3,0.021074,0.0207927,-0.397352,2,0.00262668,11,-8.26201e-06,-3.40082,-0.907451,-0.0650173,0.0211106,
2,0,0,1,0,2306.6,0.0195758,0.0192625,-0.399857,2,0.00250073,11,-7.70225e-06,-3.3981,-0.90764,-0.0650038,0.0195824,
2,0,0,1,0,2306.9,0.0180774,0.0177503,-0.399677,2,0.00237443,11,-7.09436e-06,-3.39829,-0.934963,-0.0631041,0.01807,
2,0,0,1,0,2307.2,0.0165795,0.016264,-0.404649,2,0.00224765,11,-6.5812e-06,-3.39292,-0.94511,-0.0624266,0.0165877,
2,0,0,1,0,2307.5,0.0150817,0.0147944,-0.407203,2,0.0021201,11,-6.02431e-06,-3.39019,-0.727099,-0.0811444,0.0151201,
2,0,0,0,0,2307.8,0.013583,0.0132765,-0.408815,2,0.001992,11,-5.42764e-06,-3.38847,-1.8788,-0.0314031,0.0136036,
2,0,0,0,0,2308.1,0.0120848,0.0117623,-0.407255,2,0.00186361,11,-4.79023e-06,-3.39013,-1.26858,-0.0465087,0.0120881,
2,0,0,1,0,2308.4,0.0105863,0.0102635,-0.410875,2,0.00173487,11,-4.21702e-06,-3.38629,-0.630453,-0.0935834,0.0105922,
2,0,0,1,0,2308.7,0.00908845,0.008809,-0.411968,2,0.00160527,11,-3.62903e-06,-3.38514,-0.702939,-0.0839334,0.00913857,
2,0,0,1,0,2309,0.0075906,0.00724841,-0.415091,2,0.00147491,11,-3.00875e-06,-3.38186,-0.882288,-0.0668716,0.00758048,
2,0,0,1,0,2309.3,0.00609208,0.00578474,-0.417269,2,0.00134396,11,-2.41379e-06,-3.37958,-0.627749,-0.0939867,0.00611855,
2,0,0,1,0,2309.6,0.00459389,0.00431714,-0.420266,2,0.00121259,11,-1.81435e-06,-3.37648,-0.539289,-0.109403,0.00465335,
2,0,0,1,0,2309.9,0.00309525,0.00279832,-0.423734,2,0.00108022,11,-1.18574e-06,-3.37291,-0.490889,-0.12019,0.00313731,
2,0,0,1,0,2310.2,0.00159739,0.00127778,-0.426067,2,0.000944591,11,-5.44419e-07,-3.37052, , ,0.00161863,
2,0,0,0,0,2310.48,0.000199195,-0.000151629,-0.42648,2,0.000819475,11,6.46667e-08,-3.3701, , ,0.000189555,