File: Figure_codes/Fig_S3_S4/20221101_1-115_002_TrumpetPlot_ParaChange_09_CV_C01_1.csv
mode,ox/red,error,control changes,counter inc.,time/s,control/V,Ewe/V,<I>/mA,cycle number,(Q-Qo)/C,I Range,P/W,log(|I|),Tafel slope mV/dec,alpha_eff,E-IR/V,
2,0,0,1,0,2415.92,2.44065e-05,-0.000172625,-3.81375,2,0.0000000E+000,11,6.58349e-07,-2.41865, , ,0.00287838,
2,0,0,1,0,2415.94,0.0013005,0.000906311,-0.480102,2,-4.3519e-05,11,-4.35121e-07,-3.31867, , ,0.00129039,
2,1,0,1,0,2415.96,0.00279471,0.00248928,1.43933,2,-2.82951e-05,11,3.58289e-06,-2.84184,0.00691302,8.53462,0.00133782,
2,1,0,1,0,2415.99,0.00429425,0.00398067,2.11411,2,1.74643e-05,11,8.41557e-06,-2.67487,0.00721529,8.17708,0.00228938,
2,1,0,1,0,2416.01,0.00579379,0.00551668,2.36733,2,7.41873e-05,11,1.30598e-05,-2.62574,0.0314455,1.87626,0.00362282,
2,1,0,1,0,2416.04,0.007288,0.00698637,2.4968,2,0.000135147,11,1.74436e-05,-2.60262,0.0891685,0.661668,0.00498894,
2,1,0,1,0,2416.06,0.00878882,0.00852768,2.56286,2,0.000198577,11,2.18552e-05,-2.59128,0.214906,0.274538,0.00647739,
2,1,0,1,0,2416.09,0.0102896,0.00998384,2.59082,2,0.00026297,11,2.58663e-05,-2.58656,0.399546,0.147668,0.00791118,
2,1,0,1,0,2416.11,0.0117838,0.011524,2.59357,2,0.000327646,11,2.98883e-05,-2.5861,0.42912,0.137491,0.00944918,
2,1,0,1,0,2416.14,0.0132834,0.0129811,2.61036,2,0.000392807,11,3.38853e-05,-2.5833,0.62911,0.0937833,0.0108928,
2,1,0,1,0,2416.16,0.0147816,0.0145357,2.63494,2,0.000458531,11,3.83006e-05,-2.57923,0.521155,0.11321,0.0124278,
2,1,0,1,0,2416.19,0.0162811,0.0160178,2.65426,2,0.000524777,11,4.25155e-05,-2.57606,0.540138,0.109231,0.0138944,
2,1,0,1,0,2416.21,0.0177753,0.0175012,2.66402,2,0.000591088,11,4.66237e-05,-2.57446,0.699825,0.0843068,0.01537,
2,1,0,1,0,2416.24,0.0192761,0.0189752,2.67051,2,0.000657823,11,5.06734e-05,-2.57341,0.779213,0.0757174,0.0168388,
2,1,0,1,0,2416.26,0.020777,0.0204924,2.6988,2,0.000724991,11,5.53049e-05,-2.56883,0.573914,0.102803,0.0183334,
2,1,0,1,0,2416.29,0.0222712,0.0219911,2.71109,2,0.000792358,11,5.96199e-05,-2.56686,0.490428,0.120303,0.0198222,
2,1,0,1,0,2416.31,0.0237707,0.0235222,2.71763,2,0.000860352,11,6.39248e-05,-2.56581,0.621554,0.0949233,0.0213481,
2,1,0,1,0,2416.34,0.0252703,0.0250188,2.72282,2,0.000928651,11,6.81215e-05,-2.56498,0.700821,0.084187,0.0228405,
2,1,0,1,0,2416.36,0.0267645,0.0264914,2.75724,2,0.000996965,11,7.30429e-05,-2.55953,0.632777,0.0932398,0.0242856,
2,1,0,1,0,2416.39,0.0282653,0.0280156,2.77932,2,0.00106613,11,7.78642e-05,-2.55606,0.467643,0.126165,0.0257921,
2,1,0,1,0,2416.41,0.0297648,0.0295094,2.78302,2,0.00113567,11,8.21253e-05,-2.55548,0.652928,0.0903622,0.027283,
2,1,0,1,0,2416.44,0.031259,0.0309823,2.78465,2,0.00120524,11,8.62747e-05,-2.55523,0.763681,0.0772574,0.0287545,
2,1,0,1,0,2416.46,0.0327585,0.0324876,2.81291,2,0.00127532,11,9.13848e-05,-2.55084,0.735406,0.0802278,0.0302373,
2,1,0,1,0,2416.49,0.034258,0.0340086,2.83746,2,0.00134598,11,9.64982e-05,-2.54707,0.450573,0.130944,0.0317387,
2,1,0,1,0,2416.51,0.0357576,0.0354866,2.84172,2,0.0014171,11,0.000100843,-2.54642,0.575452,0.102528,0.0332132,
2,1,0,1,0,2416.54,0.0372518,0.0369801,2.85882,2,0.00148834,11,0.000105719,-2.54381,0.80887,0.0729413,0.034693,
2,1,0,1,0,2416.56,0.0387526,0.0384583,2.88293,2,0.00156016,11,0.000110873,-2.54017,0.583947,0.101037,0.036152,
2,1,0,1,0,2416.59,0.0402534,0.0399537,2.90787,2,0.00163254,11,0.00011618,-2.53642,0.380704,0.154976,0.0376274,
2,1,0,1,0,2416.61,0.0417476,0.0414976,2.93298,2,0.00170535,11,0.000121712,-2.53269,0.357227,0.165161,0.0391512,
2,1,0,1,0,2416.64,0.0432472,0.042974,2.94742,2,0.00177899,11,0.000126663,-2.53056,0.541233,0.10901,0.0406161,
2,1,0,1,0,2416.66,0.0447467,0.0444605,2.97033,2,0.00185302,11,0.000132062,-2.52719,0.472393,0.124896,0.0420842,
2,1,0,1,0,2416.69,0.0462463,0.0459867,3.00208,2,0.00192768,11,0.000138056,-2.52258,0.287041,0.205546,0.043585,
2,1,0,1,0,2416.71,0.0477391,0.0474608,3.0252,2,0.00200285,11,0.000143578,-2.51925,0.2784,0.211925,0.0450406,
2,1,0,1,0,2416.74,0.0492399,0.0489649,3.05275,2,0.00207906,11,0.000149477,-2.51531,0.399462,0.147699,0.0465227,
2,1,0,1,0,2416.76,0.0507408,0.0504874,3.08137,2,0.00215594,11,0.00015557,-2.51126,0.376877,0.15655,0.0480223,
2,1,0,1,0,2416.79,0.052235,0.0519592,3.12635,2,0.0022333,11,0.000162443,-2.50496,0.26081,0.226218,0.0494581,
2,1,0,1,0,2416.81,0.0537345,0.0534465,3.17003,2,0.00231195,11,0.000169427,-2.49894,0.251854,0.234263,0.0509105,
2,1,0,1,0,2416.84,0.0552341,0.054951,3.20467,2,0.00239172,11,0.0001761,-2.49422,0.311888,0.189171,0.0523873,
2,1,0,1,0,2416.86,0.0567283,0.0564296,3.2399,2,0.00247208,11,0.000182826,-2.48947,0.298316,0.197777,0.0538376,
2,1,0,1,0,2416.89,0.0582291,0.0579005,3.28894,2,0.00255356,11,0.000190431,-2.48294,0.247777,0.238117,0.0552694,
2,1,0,1,0,2416.91,0.0597299,0.0594293,3.334,2,0.00263638,11,0.000198137,-2.47703,0.20174,0.292456,0.0567621,
2,1,0,1,0,2416.94,0.0612228,0.0609256,3.37468,2,0.00272005,11,0.000205604,-2.47177,0.236742,0.249216,0.0582259,
2,1,0,1,0,2416.96,0.0627223,0.0624701,3.43604,2,0.00280539,11,0.00021465,-2.46394,0.231927,0.25439,0.0597213,
2,1,0,1,0,2416.99,0.0642218,0.0639533,3.49066,2,0.0028919,11,0.000223239,-2.45709,0.209196,0.282032,0.0611608,
2,1,0,1,0,2417.01,0.0657214,0.0654594,3.53794,2,0.00297987,11,0.000231592,-2.45125,0.176687,0.333924,0.062629,
2,1,0,1,0,2417.04,0.0672156,0.0669617,3.60308,2,0.00306903,11,0.000241268,-2.44333,0.205385,0.287265,0.0640793,
2,1,0,1,0,2417.06,0.0687164,0.0684084,3.67431,2,0.00316009,11,0.000251354,-2.43482,0.231568,0.254785,0.0654689,
2,1,0,1,0,2417.09,0.0702172,0.0699353,3.72722,2,0.00325249,11,0.000260664,-2.42861,0.201338,0.29304,0.0669536,
2,1,0,1,0,2417.11,0.0717114,0.0714324,3.78724,2,0.00334612,11,0.000270532,-2.42168,0.167355,0.352543,0.0684026,
2,1,0,1,0,2417.14,0.073211,0.0729326,3.85422,2,0.00344182,11,0.000281098,-2.41406,0.188096,0.31367,0.0698492,
2,1,0,1,0,2417.16,0.0747105,0.074443,3.92982,2,0.00353929,11,0.000292547,-2.40563,0.210124,0.280787,0.0712992,
2,1,0,1,0,2417.19,0.0762101,0.0759342,3.99275,2,0.00363842,11,0.000303186,-2.39873,0.190483,0.309739,0.07274,
2,1,0,1,0,2417.21,0.0777042,0.0774608,4.06748,2,0.00373875,11,0.00031507,-2.39067,0.175004,0.337135,0.0742068,
2,1,0,1,0,2417.24,0.0792037,0.0789561,4.13272,2,0.00384138,11,0.000326304,-2.38376,0.190963,0.308961,0.0756499,
2,1,0,1,0,2417.26,0.0807046,0.0804291,4.21083,2,0.00394587,11,0.000338673,-2.37563,0.217534,0.271222,0.0770604,
2,1,0,1,0,2417.29,0.0821988,0.0819426,4.27726,2,0.00405162,11,0.00035049,-2.36883,0.210148,0.280754,0.0785207,
2,1,0,1,0,2417.31,0.0836983,0.083444,4.34066,2,0.00415939,11,0.000362202,-2.36244,0.199049,0.296409,0.0799715,
2,1,0,1,0,2417.34,0.0851979,0.0849292,4.4083,2,0.00426897,11,0.000374394,-2.35573,0.204401,0.288648,0.0814026,
2,1,0,1,0,2417.36,0.0866921,0.0863801,4.49388,2,0.00437998,11,0.000388181,-2.34738,0.22253,0.265133,0.082785,
2,1,0,1,0,2417.39,0.0881929,0.0879111,4.56758,2,0.00449322,11,0.000401541,-2.34031,0.227805,0.258994,0.084257,
2,1,0,1,0,2417.41,0.0896937,0.0894175,4.63027,2,0.00460805,11,0.000414027,-2.33439,0.20688,0.285189,0.0857132,
2,1,0,1,0,2417.44,0.0911879,0.0908672,4.6883,2,0.00472413,11,0.000426013,-2.32898,0.203698,0.289644,0.0871165,
2,1,0,1,0,2417.46,0.0926861,0.0924225,4.77284,2,0.00484262,11,0.000441118,-2.32122,0.226232,0.260794,0.0886043,
2,1,0,1,0,2417.49,0.0941856,0.0938925,4.84417,2,0.00496293,11,0.000454831,-2.31478,0.248995,0.236952,0.0900172,
2,1,0,1,0,2417.51,0.0956852,0.0954019,4.89568,2,0.00508474,11,0.000467057,-2.31019,0.231363,0.255011,0.0914854,
2,1,0,1,0,2417.54,0.0971794,0.0968758,4.96119,2,0.0052077,11,0.00048062,-2.30441,0.216103,0.273018,0.0929069,
2,1,0,1,0,2417.56,0.0986802,0.098335,5.04422,2,0.00533305,11,0.000496024,-2.29721,0.236443,0.249532,0.0942996,
2,1,0,1,0,2417.59,0.100181,0.0998954,5.1367,2,0.00546038,11,0.000513133,-2.28932,0.238582,0.247295,0.095786,
2,1,0,1,0,2417.61,0.101675,0.101406,5.19312,2,0.00558903,11,0.000526612,-2.28457,0.2223,0.265408,0.0972512,
2,1,0,1,0,2417.64,0.103175,0.102935,5.26841,2,0.00571993,11,0.000542304,-2.27832,0.212676,0.277417,0.0987203,
2,1,0,1,0,2417.66,0.104674,0.104424,5.3627,2,0.00585297,11,0.000559996,-2.27062,0.210239,0.280634,0.100134,
2,1,0,1,0,2417.69,0.106169,0.105926,5.45369,2,0.00598771,11,0.000577688,-2.26331,0.216611,0.272378,0.101563,
2,1,0,1,0,2417.71,0.107668,0.107379,5.53545,2,0.00612509,11,0.000594394,-2.25685,0.187189,0.31519,0.102951,
2,1,0,1,0,2417.74,0.109169,0.108861,5.62679,2,0.00626464,11,0.000612536,-2.24974,0.17108,0.344868,0.104359,
2,1,0,1,0,2417.76,0.110663,0.110352,5.74582,2,0.0064064,11,0.000634064,-2.24065,0.158699,0.371772,0.105756,
2,1,0,1,0,2417.79,0.112163,0.111862,5.87783,2,0.00655178,11,0.000657507,-2.23078,0.156996,0.375807,0.10716,
2,1,0,1,0,2417.81,0.113662,0.113419,5.99782,2,0.00670026,11,0.000680266,-2.22201,0.147083,0.401134,0.108621,
2,1,0,1,0,2417.84,0.115162,0.11486,6.11456,2,0.00685176,11,0.000702318,-2.21363,0.138956,0.424595,0.109968,
2,1,0,1,0,2417.86,0.116656,0.116387,6.26991,2,0.00700615,11,0.000729733,-2.20274,0.130538,0.451975,0.111371,
2,1,0,1,0,2417.89,0.118157,0.117906,6.44823,2,0.00716523,11,0.000760287,-2.19056,0.125526,0.470023,0.112748,
2,1,0,1,0,2417.91,0.119657,0.11937,6.61149,2,0.00732844,11,0.000789212,-2.1797,0.119958,0.491841,0.114081,
2,1,0,1,0,2417.94,0.121152,0.120871,6.76953,2,0.00749513,11,0.000818237,-2.16944,0.112384,0.524984,0.115455,
2,1,0,1,0,2417.96,0.122651,0.122321,6.96798,2,0.00766704,11,0.000852332,-2.15689,0.110466,0.534103,0.116747,
2,1,0,1,0,2417.99,0.124151,0.12385,7.18056,2,0.00784397,11,0.000889313,-2.14384,0.103613,0.569426,0.118106,
2,1,0,1,0,2418.01,0.125649,0.125346,7.38179,2,0.00802605,11,0.000925278,-2.13184,0.105042,0.561678,0.119441,
2,1,0,1,0,2418.04,0.127143,0.126846,7.5865,2,0.00821273,11,0.000962315,-2.11996,0.104308,0.565632,0.120776,
2,1,0,1,0,2418.06,0.128644,0.128341,7.82018,2,0.00840551,11,0.00100365,-2.10678,0.10637,0.554666,0.122085,
2,1,0,1,0,2418.09,0.130145,0.129891,8.06059,2,0.00860406,11,0.00104699,-2.09363,0.107799,0.547316,0.123442,
2,1,0,1,0,2418.11,0.131639,0.131366,8.28816,2,0.00880772,11,0.00108878,-2.08154,0.109742,0.537627,0.124735,
2,1,0,1,0,2418.14,0.133139,0.132856,8.50762,2,0.00901793,11,0.00113029,-2.07019,0.115159,0.512334,0.12605,
2,1,0,1,0,2418.16,0.134638,0.134384,8.7288,2,0.00923354,11,0.00117301,-2.05905,0.12383,0.476459,0.127401,
2,1,0,1,0,2418.19,0.136132,0.135811,8.96364,2,0.0094539,11,0.00121736,-2.04752,0.124695,0.473155,0.12864,
2,1,0,1,0,2418.21,0.137633,0.137382,9.18763,2,0.00968072,11,0.00126221,-2.0368,0.132783,0.444333,0.130032,
2,1,0,1,0,2418.24,0.139133,0.138886,9.37136,2,0.00991278,11,0.00130155,-2.0282,0.149201,0.39544,0.131389,
2,1,0,1,0,2418.26,0.140627,0.140353,9.55173,2,0.0101485,11,0.00134061,-2.01992,0.171653,0.343716,0.132711,
2,1,0,1,0,2418.29,0.142126,0.141823,9.73248,2,0.0103896,11,0.00138028,-2.01178,0.180177,0.327456,0.134037,
2,1,0,1,0,2418.31,0.143626,0.143354,9.89876,2,0.0106351,11,0.00141903,-2.00442,0.200329,0.294516,0.135435,
2,1,0,1,0,2418.34,0.145125,0.144867,10.0239,2,0.0108844,11,0.00145214,-1.99896,0.262498,0.224763,0.136848,
2,1,0,1,0,2418.36,0.14662,0.146354,10.1295,2,0.0111356,11,0.00148249,-1.99441,0.360193,0.163801,0.13825,
2,1,0,1,0,2418.39,0.14812,0.147854,10.2273,2,0.0113902,11,0.00151215,-1.99024,0.491312,0.120087,0.139672,
2,1,0,1,0,2418.41,0.149621,0.14934,10.2876,2,0.0116467,11,0.00153634,-1.98769,0.709727,0.0831306,0.14111,
2,1,0,1,0,2418.44,0.151116,0.150812,10.307,2,0.0119033,11,0.00155442,-1.98687,4.30885,0.0136928,0.142566,
2,1,0,1,0,2418.46,0.152615,0.152371,10.2933,2,0.0121612,11,0.0015684,-1.98745,-1.02431,-0.0575997,0.144136,
2,1,0,1,0,2418.49,0.154115,0.153845,10.253,2,0.0124181,11,0.00157737,-1.98915,-0.519636,-0.113541,0.145642,
2,1,0,1,0,2418.51,0.155614,0.155325,10.1696,2,0.0126735,11,0.0015796,-1.99269,-0.337896,-0.17461,0.14719,
2,1,0,1,0,2418.54,0.157107,0.156826,10.0179,2,0.0129251,11,0.00157106,-1.99923,-0.22472,-0.262549,0.148812,
2,1,0,1,0,2418.56,0.158608,0.158341,9.82947,2,0.0131735,11,0.00155641,-2.00747,-0.163966,-0.35983,0.150477,
2,1,0,1,0,2418.59,0.160109,0.159819,9.57805,2,0.0134162,11,0.00153075,-2.01872,-0.13301,-0.443577,0.152156,
2,1,0,1,0,2418.61,0.161603,0.161355,9.27833,2,0.013651,11,0.00149711,-2.03253,-0.113018,-0.522041,0.153933,
2,1,0,1,0,2418.64,0.163102,0.162823,8.91048,2,0.0138785,11,0.00145083,-2.0501,-0.0959856,-0.614676,0.155695,
2,1,0,1,0,2418.66,0.164602,0.164322,8.49956,2,0.0140963,11,0.00139666,-2.0706,-0.083251,-0.708701,0.157522,
2,1,0,1,0,2418.69,0.166096,0.165844,8.05297,2,0.0143025,11,0.00133554,-2.09404,-0.0748879,-0.787844,0.159401,
2,1,0,1,0,2418.71,0.167597,0.167303,7.5858,2,0.014498,11,0.00126913,-2.12,-0.0692456,-0.85204,0.161235,
2,1,0,1,0,2418.74,0.169098,0.168816,7.11305,2,0.0146817,11,0.0012008,-2.14794,-0.0663905,-0.888682,0.163125,
2,1,0,1,0,2418.76,0.170592,0.170317,6.638,2,0.014853,11,0.00113056,-2.17796,-0.0614293,-0.960454,0.165006,
2,1,0,1,0,2418.79,0.17209,0.171831,6.18641,2,0.0150133,11,0.00106301,-2.20856,-0.0609377,-0.968202,0.166882,
2,1,0,1,0,2418.81,0.17359,0.173321,5.7844,2,0.0151629,11,0.00100256,-2.23774,-0.0644109,-0.915994,0.168693,
2,1,0,1,0,2418.84,0.175089,0.174816,5.42964,2,0.015303,11,0.000949186,-2.26523,-0.0680961,-0.866423,0.170472,
2,1,0,1,0,2418.86,0.176583,0.176331,5.11823,2,0.0154344,11,0.000902501,-2.29088,-0.0709026,-0.832127,0.172236,
2,1,0,1,0,2418.89,0.178084,0.177805,4.85818,2,0.0155592,11,0.000863808,-2.31353,-0.0769789,-0.766444,0.173918,
2,1,0,1,0,2418.91,0.179585,0.179322,4.64216,2,0.0156778,11,0.000832443,-2.33328,-0.0880579,-0.670014,0.175609,
2,1,0,1,0,2418.94,0.181079,0.180833,4.45179,2,0.0157909,11,0.000805029,-2.35147,-0.10236,-0.576397,0.177271,
2,1,0,1,0,2418.96,0.182579,0.182311,4.29963,2,0.0159004,11,0.000783871,-2.36657,-0.108276,-0.544906,0.178872,
2,1,0,1,0,2418.99,0.184078,0.183829,4.16205,2,0.0160063,11,0.000765103,-2.38069,-0.113803,-0.51844,0.180499,
2,1,0,1,0,2419.01,0.185578,0.185345,4.03214,2,0.0161087,11,0.000747338,-2.39446,-0.127815,-0.461605,0.182119,
2,1,0,1,0,2419.04,0.187072,0.186827,3.92953,2,0.0162079,11,0.000734143,-2.40566,-0.145711,-0.404912,0.183683,
2,1,0,1,0,2419.06,0.188573,0.188292,3.83049,2,0.0163049,11,0.000721248,-2.41675,-0.146346,-0.403154,0.185227,
2,1,0,1,0,2419.09,0.190072,0.189779,3.74295,2,0.0163996,11,0.000710334,-2.42679,-0.146661,-0.402287,0.186785,
2,1,0,1,0,2419.11,0.191567,0.191298,3.64916,2,0.0164917,11,0.000698077,-2.43781,-0.167963,-0.351268,0.188379,
2,1,0,1,0,2419.14,0.193066,0.192802,3.56954,2,0.0165822,11,0.000688216,-2.44739,-0.196468,-0.300303,0.189947,
2,1,0,1,0,2419.16,0.194566,0.194322,3.50496,2,0.0166708,11,0.000681091,-2.45532,-0.173022,-0.340998,0.191518,
2,1,0,1,0,2419.19,0.19606,0.195751,3.44815,2,0.0167575,11,0.000674978,-2.46241,-0.175198,-0.336762,0.192993,
2,1,0,1,0,2419.21,0.197561,0.197227,3.37281,2,0.0168428,11,0.000665209,-2.47201,-0.201558,-0.29272,0.194529,
2,1,0,1,0,2419.24,0.199062,0.198812,3.32218,2,0.0169265,11,0.000660488,-2.47858,-0.229896,-0.256638,0.196154,
2,1,0,1,0,2419.26,0.200556,0.200289,3.26613,2,0.0170087,11,0.000654172,-2.48597,-0.236439,-0.249536,0.197676,
2,1,0,1,0,2419.29,0.202055,0.20178,3.22705,2,0.01709,11,0.000651155,-2.49119,-0.218059,-0.270569,0.199199,
2,1,0,1,0,2419.31,0.203553,0.203339,3.17475,2,0.0171701,11,0.000645551,-2.49829,-0.26771,-0.220388,0.200799,
2,1,0,1,0,2419.34,0.205053,0.204784,3.12547,2,0.0172489,11,0.000640045,-2.50509,-0.3479,-0.169589,0.202283,
2,1,0,1,0,2419.36,0.206547,0.206257,3.09086,2,0.0173265,11,0.000637512,-2.50992,-0.3065,-0.192496,0.203785,
2,1,0,1,0,2419.38,0.208048,0.207781,3.06768,2,0.0174038,11,0.000637407,-2.51319,-0.259707,-0.227179,0.205327,
2,1,0,1,0,2419.41,0.209549,0.209296,3.03867,2,0.0174801,11,0.00063598,-2.51732,-0.271878,-0.217009,0.206865,
2,1,0,1,0,2419.43,0.211043,0.210794,2.99062,2,0.0175551,11,0.000630407,-2.52424,-0.356745,-0.165384,0.208402,
2,1,0,1,0,2419.46,0.212543,0.212315,2.9558,2,0.0176296,11,0.000627561,-2.52932,-0.364504,-0.161864,0.20995,
2,1,0,1,0,2419.48,0.214042,0.213805,2.94184,2,0.0177034,11,0.000628982,-2.53138,-0.33518,-0.176025,0.211452,
2,1,0,1,0,2419.51,0.215536,0.215288,2.91942,2,0.0177764,11,0.000628514,-2.5347,-0.419735,-0.140565,0.212952,
2,1,0,1,0,2419.53,0.217036,0.216759,2.87438,2,0.0178489,11,0.000623047,-2.54146,-0.494545,-0.119302,0.214459,
2,1,0,1,0,2419.56,0.218537,0.218264,2.85676,2,0.0179208,11,0.000623527,-2.54413,-0.572802,-0.103003,0.215978,
2,1,0,1,0,2419.58,0.220031,0.219734,2.85191,2,0.017992,11,0.000626662,-2.54486,-0.434642,-0.135744,0.217453,
2,1,0,1,0,2419.61,0.22153,0.221295,2.83133,2,0.0180631,11,0.00062656,-2.54801,-0.476612,-0.12379,0.21903,
2,1,0,1,0,2419.63,0.22303,0.222747,2.79409,2,0.0181336,11,0.000622374,-2.55376,-0.558762,-0.105591,0.220511,
2,1,0,1,0,2419.66,0.224529,0.224274,2.77762,2,0.0182034,11,0.00062295,-2.55633,-0.482467,-0.122288,0.222052,
2,1,0,1,0,2419.68,0.226024,0.22579,2.77341,2,0.0182727,11,0.000626207,-2.55699,-0.509089,-0.115893,0.223571,
2,1,0,1,0,2419.71,0.227525,0.227255,2.76251,2,0.0183418,11,0.000627794,-2.5587,-0.487856,-0.120937,0.225044,
2,1,0,1,0,2419.73,0.229025,0.228778,2.73882,2,0.0184106,11,0.000626581,-2.56244,-0.814324,-0.0724527,0.226587,
2,1,0,1,0,2419.76,0.23052,0.230195,2.71682,2,0.0184785,11,0.000625399,-2.56594,-0.620699,-0.0950541,0.228022,
2,1,0,1,0,2419.78,0.232019,0.23177,2.71554,2,0.0185465,11,0.000629382,-2.56614,-0.71122,-0.082956,0.229598,
2,1,0,1,0,2419.81,0.233519,0.233258,2.70721,2,0.0186142,11,0.000631479,-2.56748,-0.68091,-0.0866488,0.231092,
2,1,0,1,0,2419.83,0.235018,0.234744,2.68672,2,0.0186817,11,0.000630692,-2.57078,-1.05058,-0.0561593,0.232595,
2,1,0,1,0,2419.86,0.236511,0.236234,2.66163,2,0.0187483,11,0.000628768,-2.57485,-0.824474,-0.0715608,0.234105,
2,1,0,1,0,2419.88,0.238012,0.237763,2.65894,2,0.018815,11,0.000632195,-2.57529,-0.721159,-0.0818128,0.235635,
2,1,0,1,0,2419.91,0.239513,0.239197,2.6559,2,0.0188815,11,0.000635283,-2.57579,-0.946566,-0.0623306,0.237072,
2,1,0,1,0,2419.93,0.241007,0.240756,2.63834,2,0.0189474,11,0.000635197,-2.57867,-1.0032,-0.0588116,0.238645,
2,1,0,1,0,2419.96,0.242506,0.242237,2.61541,2,0.0190133,11,0.000633547,-2.58246,-0.786507,-0.0750153,0.240144,
2,1,0,1,0,2419.98,0.244006,0.243744,2.61391,2,0.0190789,11,0.000637125,-2.58271,-0.903289,-0.0653169,0.241653,
2,1,0,1,0,2420.01,0.2455,0.245253,2.62434,2,0.0191441,11,0.000643625,-2.58098,-0.890568,-0.0662499,0.243153,
2,1,0,1,0,2420.03,0.247001,0.246721,2.60337,2,0.0192094,11,0.000642306,-2.58446,-0.995326,-0.0592771,0.244638,
2,1,0,1,0,2420.06,0.248502,0.24824,2.578,2,0.0192744,11,0.000639962,-2.58872,-1.10793,-0.0532527,0.246178,
2,1,0,1,0,2420.08,0.249995,0.249714,2.57744,2,0.0193387,11,0.000643624,-2.58881,-0.829615,-0.0711173,0.247652,
2,1,0,1,0,2420.11,0.251494,0.251215,2.57529,2,0.0194032,11,0.000646951,-2.58917,-1.2594,-0.0468479,0.249155,
2,1,0,1,0,2420.13,0.252994,0.252771,2.56193,2,0.0194676,11,0.000647582,-2.59143,-1.02544,-0.0575361,0.250722,
2,1,0,1,0,2420.16,0.254493,0.254193,2.54592,2,0.0195317,11,0.000647153,-2.59416,-0.843485,-0.0699479,0.252156,
2,1,0,1,0,2420.18,0.255988,0.255734,2.54181,2,0.0195952,11,0.000650028,-2.59486,-0.911444,-0.0647325,0.253701,
2,1,0,1,0,2420.21,0.257488,0.257194,2.55016,2,0.0196589,11,0.000655887,-2.59343,-1.45138,-0.0406509,0.255154,
2,1,0,1,0,2420.23,0.258989,0.258755,2.5382,2,0.0197225,11,0.000656771,-2.59547,-1.90697,-0.0309391,0.256725,
2,1,0,1,0,2420.26,0.260483,0.260231,2.52443,2,0.0197857,11,0.000656934,-2.59784,-0.814202,-0.0724636,0.258211,
2,1,0,1,0,2420.28,0.261983,0.261746,2.51249,2,0.0198487,11,0.000657633,-2.5999,-0.795566,-0.074161,0.259736,
2,1,0,1,0,2420.31,0.263482,0.263213,2.51514,2,0.0199116,11,0.000662016,-2.59944,-3.38064,-0.0174523,0.261201,
2,1,0,1,0,2420.33,0.264982,0.264722,2.50586,2,0.0199745,11,0.000663357,-2.60104,-16.8276,-0.00350615,0.262717,
2,1,0,1,0,2420.36,0.266476,0.266192,2.48976,2,0.0200369,11,0.000662755,-2.60384,-1.07973,-0.0546435,0.2642,
2,1,0,1,0,2420.38,0.267976,0.267695,2.48092,2,0.0200993,11,0.00066413,-2.60539,-0.793053,-0.074396,0.265711,
2,1,0,1,0,2420.41,0.269477,0.269194,2.48788,2,0.0201615,11,0.00066972,-2.60417,-1.90266,-0.0310093,0.267203,
2,1,0,1,0,2420.43,0.270971,0.270708,2.48322,2,0.0202233,11,0.000672229,-2.60498,-2.88186,-0.0204729,0.268722,
2,1,0,1,0,2420.46,0.27247,0.272237,2.46493,2,0.0202854,11,0.000671045,-2.6082,-1.11527,-0.0529022,0.270265,
2,1,0,1,0,2420.48,0.27397,0.273677,2.45412,2,0.0203472,11,0.000671637,-2.6101,-0.665367,-0.0886729,0.271713,
2,1,0,1,0,2420.51,0.275464,0.275206,2.46325,2,0.0204085,11,0.0006779,-2.60849,-1.03413,-0.057053,0.273235,
2,1,0,1,0,2420.53,0.276965,0.276709,2.44971,2,0.0204699,11,0.000677855,-2.61089,-2.38882,-0.0246984,0.274749,
2,1,0,1,0,2420.56,0.278466,0.278199,2.44293,2,0.0205312,11,0.000679619,-2.61209,-1.17799,-0.0500852,0.276244,
2,1,0,1,0,2420.58,0.27996,0.279762,2.43792,2,0.0205921,11,0.000682038,-2.61298,-0.849228,-0.0694749,0.277812,
2,1,0,1,0,2420.61,0.281458,0.281171,2.43418,2,0.020653,11,0.000684419,-2.61365,-1.89288,-0.0311695,0.279223,
2,1,0,1,0,2420.63,0.282958,0.282676,2.42732,2,0.0207138,11,0.000686145,-2.61487,2.16814,0.0272123,0.280734,
2,1,0,1,0,2420.66,0.284457,0.284216,2.4169,2,0.0207746,11,0.000686924,-2.61674,-1.33754,-0.0441109,0.282283,
2,1,0,1,0,2420.68,0.285951,0.28572,2.41275,2,0.020835,11,0.00068937,-2.61749,-0.64749,-0.0911211,0.28379,
2,1,0,1,0,2420.71,0.287452,0.287202,2.41013,2,0.0208953,11,0.000692194,-2.61796,-0.893994,-0.065996,0.285274,
2,1,0,1,0,2420.73,0.288953,0.288706,2.4035,2,0.0209555,11,0.000693905,-2.61916,37.393,0.00157783,0.286783,
2,1,0,1,0,2420.76,0.290447,0.290189,2.39433,2,0.0210154,11,0.000694808,-2.62082,-1.96512,-0.0300236,0.288274,
2,1,0,1,0,2420.78,0.291947,0.291717,2.3924,2,0.0210754,11,0.000697904,-2.62117,-0.648582,-0.0909677,0.289803,
2,1,0,1,0,2420.81,0.293446,0.293189,2.3856,2,0.0211352,11,0.000699432,-2.6224,-1.12988,-0.0522181,0.29128,
2,1,0,1,0,2420.83,0.29494,0.294699,2.38588,2,0.0211945,11,0.000703115,-2.62235,21.005,0.00280886,0.29279,
2,1,0,1,0,2420.86,0.29644,0.296194,2.37687,2,0.0212541,11,0.000704015,-2.62399,-4.01986,-0.0146771,0.294292,
2,1,0,1,0,2420.88,0.297941,0.297686,2.36999,2,0.0213136,11,0.000705514,-2.62525,-0.744809,-0.0792149,0.29579,
2,1,0,1,0,2420.91,0.29944,0.299182,2.369,2,0.0213729,11,0.000708762,-2.62544,-0.00417256,-14.14,0.297287,
2,1,0,1,0,2420.92,0.299736,0.299518,1.50391,2,0.021402,11,0.000450449,-2.82278,-0.00242825,-24.2973,0.298315,
2,0,0,1,0,2420.95,0.298238,0.297959,-0.553249,2,0.0214064,11,-0.000164846,-3.25708,0.00264985,22.2654,0.298402,
2,0,0,1,0,2420.97,0.296744,0.296467,-0.858005,2,0.0213876,11,-0.00025437,-3.06651,-0.00582929,-10.1213,0.297153,
2,0,0,1,0,2421,0.295243,0.294932,-0.941483,2,0.0213648,11,-0.000277674,-3.02619,-0.0496482,-1.18836,0.295685,
2,0,0,1,0,2421.02,0.293742,0.293446,-0.979272,2,0.0213409,11,-0.000287363,-3.0091,-0.0795091,-0.742054,0.294229,
2,0,0,1,0,2421.05,0.292248,0.291946,-1.00435,2,0.0213162,11,-0.000293215,-2.99812,-0.0790425,-0.746434,0.292749,
2,0,0,1,0,2421.07,0.290748,0.290419,-1.04678,2,0.0212904,11,-0.000304004,-2.98015,-0.085087,-0.693408,0.291256,
2,0,0,1,0,2421.1,0.289249,0.288996,-1.09357,2,0.0212634,11,-0.000316037,-2.96115,-0.105856,-0.557361,0.289871,
2,0,0,1,0,2421.12,0.287754,0.287455,-1.1348,2,0.0212356,11,-0.000326204,-2.94508,-0.104335,-0.565485,0.288363,
2,0,0,1,0,2421.15,0.286254,0.285918,-1.15584,2,0.0212069,11,-0.000330474,-2.9371,-0.108967,-0.541447,0.286843,
2,0,0,1,0,2421.17,0.284754,0.284474,-1.19068,2,0.0211774,11,-0.000338716,-2.92421,-0.120964,-0.487747,0.285426,
2,0,0,1,0,2421.2,0.28326,0.282998,-1.23321,2,0.0211471,11,-0.000348995,-2.90896,-0.150538,-0.391927,0.283984,
2,0,0,1,0,2421.22,0.28176,0.28148,-1.26029,2,0.021116,11,-0.000354746,-2.89953,-0.15331,-0.384842,0.282488,
2,0,0,1,0,2421.25,0.280261,0.280007,-1.27182,2,0.0210841,11,-0.000356118,-2.89558,-0.144626,-0.40795,0.281025,
2,0,0,1,0,2421.27,0.278761,0.278469,-1.30005,2,0.0210518,11,-0.000362022,-2.88604,-0.197762,-0.298338,0.279509,
2,0,0,1,0,2421.3,0.277267,0.276966,-1.33581,2,0.0210188,11,-0.000369976,-2.87425,-0.217696,-0.27102,0.278035,
2,0,0,1,0,2421.32,0.275766,0.275458,-1.36644,2,0.020985,11,-0.000376398,-2.86441,-0.2285,-0.258206,0.276551,
2,0,0,1,0,2421.35,0.274265,0.273954,-1.38336,2,0.0209506,11,-0.000378977,-2.85906,-0.19822,-0.297649,0.275061,
2,0,0,1,0,2421.37,0.272771,0.272471,-1.39589,2,0.020916,11,-0.000380339,-2.85515,-0.21876,-0.269702,0.273588,
2,0,0,1,0,2421.4,0.271272,0.271015,-1.42838,2,0.0208806,11,-0.000387112,-2.84516,-0.255929,-0.230533,0.272158,
2,0,0,1,0,2421.42,0.269772,0.269424,-1.45857,2,0.0208445,11,-0.000392975,-2.83607,-0.221251,-0.266666,0.270591,
2,0,0,1,0,2421.45,0.268273,0.267957,-1.4642,2,0.020808,11,-0.000392341,-2.8344,-0.256323,-0.230178,0.269128,
2,0,0,1,0,2421.47,0.26678,0.26653,-1.47399,2,0.0207712,11,-0.000392861,-2.83151,-0.269619,-0.218828,0.267709,
2,0,0,1,0,2421.5,0.265279,0.265046,-1.50878,2,0.0207338,11,-0.000399894,-2.82138,-0.260864,-0.226171,0.266253,
2,0,0,1,0,2421.52,0.263778,0.263461,-1.53161,2,0.0206958,11,-0.00040352,-2.81485,-0.265676,-0.222075,0.264686,
2,0,0,1,0,2421.55,0.262284,0.261994,-1.54518,2,0.0206575,11,-0.000404829,-2.81102,-0.264599,-0.222979,0.26323,
2,0,0,1,0,2421.57,0.260784,0.260506,-1.54778,2,0.0206186,11,-0.000403207,-2.81029,-0.291534,-0.202378,0.261744,
2,0,0,1,0,2421.6,0.259285,0.25896,-1.58036,2,0.0205793,11,-0.000409252,-2.80124,-0.325499,-0.18126,0.260225,
2,0,0,1,0,2421.62,0.257791,0.257494,-1.61142,2,0.0205397,11,-0.000414931,-2.79279,-0.316603,-0.186353,0.258783,
2,0,0,1,0,2421.65,0.25629,0.255986,-1.61873,2,0.0204993,11,-0.000414373,-2.79082,-0.282347,-0.208963,0.257281,
2,0,0,1,0,2421.67,0.254789,0.254507,-1.62725,2,0.0204586,11,-0.000414146,-2.78855,-0.352318,-0.167462,0.255809,
2,0,0,1,0,2421.7,0.253296,0.252968,-1.65001,2,0.0204178,11,-0.000417399,-2.78251,-0.351017,-0.168083,0.254288,
2,0,0,1,0,2421.72,0.251797,0.25153,-1.66515,2,0.0203763,11,-0.000418836,-2.77855,-0.273464,-0.21575,0.252862,
2,0,0,1,0,2421.75,0.250297,0.250024,-1.68335,2,0.0203343,11,-0.000420878,-2.77383,-0.334772,-0.176239,0.251371,
2,0,0,1,0,2421.77,0.248797,0.248506,-1.69485,2,0.0202919,11,-0.000421181,-2.77087,-0.353796,-0.166763,0.249862,
2,0,0,1,0,2421.8,0.247303,0.247081,-1.71375,2,0.0202494,11,-0.000423435,-2.76605,-0.420366,-0.140354,0.248452,
2,0,0,1,0,2421.82,0.245802,0.245539,-1.74005,2,0.0202061,11,-0.000427249,-2.75944,-0.300814,-0.196135,0.246931,
2,0,0,1,0,2421.85,0.244302,0.243976,-1.75692,2,0.0201624,11,-0.000428646,-2.75525,-0.310806,-0.189829,0.245382,
2,0,0,1,0,2421.87,0.242807,0.242503,-1.7626,2,0.0201184,11,-0.000427436,-2.75385,-0.526583,-0.112043,0.243913,
2,0,0,1,0,2421.9,0.241308,0.241007,-1.77834,2,0.020074,11,-0.000428591,-2.74999,-0.501049,-0.117753,0.242429,
2,0,0,1,0,2421.92,0.239808,0.239507,-1.80479,2,0.0200292,11,-0.00043226,-2.74357,-0.286378,-0.206022,0.240951,
2,0,0,1,0,2421.95,0.238309,0.238002,-1.82069,2,0.0199839,11,-0.000433327,-2.73977,-0.305239,-0.193291,0.239459,
2,0,0,1,0,2421.97,0.236815,0.236531,-1.83439,2,0.0199383,11,-0.000433892,-2.73651,-0.351618,-0.167796,0.237999,
2,0,0,1,0,2422,0.235315,0.235033,-1.8429,2,0.0198921,11,-0.000433141,-2.7345,-0.433533,-0.136091,0.236507,
2,0,0,1,0,2422.02,0.233814,0.233512,-1.87805,2,0.0198455,11,-0.000438549,-2.72629,-0.316453,-0.186442,0.235015,
2,0,0,1,0,2422.05,0.23232,0.232033,-1.8918,2,0.0197986,11,-0.00043896,-2.72312,-0.304635,-0.193674,0.233546,
2,0,0,1,0,2422.07,0.230821,0.230529,-1.90009,2,0.019751,11,-0.000438027,-2.72123,-0.478214,-0.123376,0.232049,
2,0,0,1,0,2422.1,0.229321,0.229024,-1.91699,2,0.019703,11,-0.000439037,-2.71738,-0.495707,-0.119022,0.230557,
2,0,0,1,0,2422.12,0.227827,0.227552,-1.94469,2,0.0196549,11,-0.000442518,-2.71115,-0.460855,-0.128023,0.229108,
2,0,0,1,0,2422.15,0.226326,0.226053,-1.96622,2,0.0196061,11,-0.00044447,-2.70637,-0.281495,-0.209595,0.227626,
2,0,0,1,0,2422.17,0.224825,0.224547,-1.97776,2,0.0195567,11,-0.000444101,-2.70383,-0.359049,-0.164323,0.226129,
2,0,0,1,0,2422.2,0.223331,0.222981,-2.00869,2,0.019507,11,-0.000447899,-2.69709,-0.517013,-0.114117,0.224587,
2,0,0,1,0,2422.22,0.221831,0.221523,-2.02526,2,0.0194567,11,-0.000448643,-2.69352,-0.318384,-0.185311,0.223144,
2,0,0,1,0,2422.25,0.220333,0.220058,-2.04312,2,0.0194059,11,-0.000449606,-2.68971,-0.227693,-0.259121,0.221693,
2,0,0,1,0,2422.27,0.218834,0.218539,-2.05903,2,0.0193543,11,-0.000449978,-2.68634,-0.290036,-0.203423,0.220187,
2,0,0,1,0,2422.3,0.217339,0.217031,-2.08273,2,0.0193025,11,-0.000452016,-2.68137,-0.486779,-0.121205,0.218697,
2,0,0,1,0,2422.32,0.215839,0.215551,-2.10841,2,0.0192501,11,-0.00045447,-2.67604,-0.345035,-0.170997,0.217237,
2,0,0,1,0,2422.35,0.214338,0.214,-2.12947,2,0.019197,11,-0.000455708,-2.67173,-0.235116,-0.25094,0.215704,
2,0,0,1,0,2422.37,0.212844,0.212554,-2.15196,2,0.0191435,11,-0.000457408,-2.66717,-0.27648,-0.213397,0.214276,
2,0,0,1,0,2422.4,0.211344,0.211066,-2.18302,2,0.0190892,11,-0.000460761,-2.66094,-0.381694,-0.154574,0.212813,
2,0,0,1,0,2422.42,0.209845,0.209534,-2.2034,2,0.0190342,11,-0.000461688,-2.65691,-0.292222,-0.201901,0.211297,
2,0,0,1,0,2422.44,0.20835,0.208021,-2.24043,2,0.0189788,11,-0.000466056,-2.64967,-0.192871,-0.305904,0.209813,
2,0,0,1,0,2422.47,0.206851,0.206547,-2.26803,2,0.0189224,11,-0.000468455,-2.64435,-0.229793,-0.256752,0.208361,
2,0,0,1,0,2422.49,0.20535,0.205023,-2.30318,2,0.018865,11,-0.000472203,-2.63767,-0.325126,-0.181468,0.206865,
2,0,0,1,0,2422.52,0.203856,0.203561,-2.33428,2,0.0188072,11,-0.000475169,-2.63185,-0.290463,-0.203124,0.205429,
2,0,0,1,0,2422.54,0.202356,0.202042,-2.35915,2,0.0187486,11,-0.000476647,-2.62724,-0.21746,-0.271315,0.203929,
2,0,0,1,0,2422.57,0.200857,0.200521,-2.39097,2,0.018689,11,-0.00047944,-2.62143,-0.199767,-0.295344,0.202434,
2,0,0,1,0,2422.59,0.199357,0.199035,-2.43186,2,0.0186285,11,-0.000484025,-2.61406,-0.238336,-0.24755,0.20098,
2,0,0,1,0,2422.62,0.197863,0.197528,-2.48116,2,0.0185673,11,-0.000490098,-2.60535,-0.236732,-0.249227,0.199513,
2,0,0,1,0,2422.64,0.196362,0.196071,-2.51395,2,0.0185049,11,-0.000492913,-2.59964,-0.190019,-0.310496,0.198083,
2,0,0,1,0,2422.67,0.194861,0.194485,-2.55223,2,0.0184415,11,-0.000496371,-2.59308,-0.167768,-0.351676,0.196527,
2,0,0,1,0,2422.69,0.193367,0.193112,-2.60807,2,0.0183772,11,-0.00050365,-2.58368,-0.18666,-0.316083,0.195199,
2,0,0,1,0,2422.72,0.191868,0.191538,-2.66399,2,0.0183112,11,-0.000510257,-2.57447,-0.191172,-0.308623,0.193669,
2,0,0,1,0,2422.74,0.190368,0.190062,-2.69798,2,0.0182442,11,-0.000512782,-2.56896,-0.163004,-0.361954,0.19222,
2,0,0,1,0,2422.77,0.18887,0.188571,-2.75446,2,0.0181758,11,-0.000519411,-2.55996,-0.145883,-0.404433,0.190774,
2,0,0,1,0,2422.79,0.187376,0.187083,-2.82022,2,0.0181062,11,-0.000527614,-2.54972,-0.156203,-0.377714,0.189339,
2,0,0,1,0,2422.82,0.185875,0.185594,-2.89202,2,0.0180347,11,-0.000536742,-2.5388,-0.162319,-0.363482,0.187908,
2,0,0,1,0,2422.84,0.184374,0.184076,-2.94983,2,0.0179617,11,-0.000542992,-2.5302,-0.135225,-0.436311,0.186436,
2,0,0,1,0,2422.87,0.18288,0.182583,-3.01796,2,0.0178873,11,-0.000551028,-2.52029,-0.126211,-0.467472,0.184997,
2,0,0,1,0,2422.89,0.18138,0.181066,-3.10192,2,0.0178106,11,-0.000561651,-2.50837,-0.130543,-0.451958,0.183547,
2,0,0,1,0,2422.92,0.179881,0.179577,-3.19253,2,0.0177317,11,-0.000573305,-2.49586,-0.131857,-0.447454,0.182131,
2,0,0,1,0,2422.94,0.178387,0.178127,-3.28409,2,0.0176511,11,-0.000584984,-2.48358,-0.11421,-0.516592,0.180754,
2,0,0,1,0,2422.97,0.176886,0.176578,-3.36745,2,0.017568,11,-0.000594619,-2.4727,-0.106934,-0.551742,0.179272,
2,0,0,1,0,2422.99,0.175385,0.175077,-3.48361,2,0.0174823,11,-0.000609898,-2.45797,-0.10632,-0.554927,0.177863,
2,0,0,1,0,2423.02,0.173892,0.173612,-3.59893,2,0.0173941,11,-0.000624816,-2.44383,-0.0973931,-0.605792,0.176491,
2,0,0,1,0,2423.04,0.172392,0.172091,-3.72164,2,0.0173026,11,-0.000640459,-2.42927,-0.0909094,-0.648998,0.175068,
2,0,0,1,0,2423.07,0.170893,0.170587,-3.8332,2,0.0172081,11,-0.000653896,-2.41644,-0.0902602,-0.653666,0.173654,
2,0,0,1,0,2423.09,0.169393,0.169093,-3.98134,2,0.0171102,11,-0.000673216,-2.39997,-0.0817495,-0.721717,0.172278,
2,0,0,1,0,2423.12,0.167899,0.167562,-4.15779,2,0.0170087,11,-0.00069669,-2.38114,-0.0805924,-0.732079,0.170889,
2,0,0,1,0,2423.14,0.166398,0.166058,-4.32692,2,0.0169026,11,-0.000718519,-2.36382,-0.0782327,-0.75416,0.169519,
2,0,0,1,0,2423.17,0.164898,0.164599,-4.48628,2,0.0167923,11,-0.000738436,-2.34811,-0.0736701,-0.800868,0.168188,
2,0,0,1,0,2423.19,0.163403,0.163128,-4.69156,2,0.0166778,11,-0.000765327,-2.32868,-0.0717836,-0.821915,0.166882,
2,0,0,1,0,2423.22,0.161904,0.161567,-4.9133,2,0.0165577,11,-0.000793826,-2.30863,-0.0686562,-0.859355,0.165497,
2,0,0,1,0,2423.24,0.160404,0.160096,-5.13784,2,0.0164321,11,-0.000822547,-2.28922,-0.0656889,-0.898173,0.164206,
2,0,0,1,0,2423.27,0.158905,0.158588,-5.36343,2,0.0163006,11,-0.000850578,-2.27056,-0.0646776,-0.912216,0.162879,
2,0,0,1,0,2423.29,0.157411,0.15713,-5.62551,2,0.0161636,11,-0.000883934,-2.24984,-0.0659901,-0.894074,0.16163,
2,0,0,1,0,2423.32,0.155911,0.155652,-5.89446,2,0.0160194,11,-0.000917487,-2.22956,-0.0645943,-0.913393,0.160368,
2,0,0,1,0,2423.34,0.15441,0.154128,-6.18303,2,0.0158685,11,-0.00095298,-2.2088,-0.0627672,-0.939982,0.159075,
2,0,0,1,0,2423.37,0.152916,0.152643,-6.47317,2,0.0157109,11,-0.000988084,-2.18888,-0.0623307,-0.946564,0.157822,
2,0,0,1,0,2423.39,0.151417,0.151126,-6.76789,2,0.0155452,11,-0.00102281,-2.16955,-0.065199,-0.904922,0.156541,
2,0,0,1,0,2423.42,0.149917,0.149628,-7.07785,2,0.015372,11,-0.00105904,-2.1501,-0.068212,-0.864951,0.15529,
2,0,0,1,0,2423.44,0.148423,0.148137,-7.39016,2,0.0151918,11,-0.00109475,-2.13135,-0.0695384,-0.848452,0.154049,
2,0,0,1,0,2423.47,0.146922,0.146647,-7.68435,2,0.0150033,11,-0.00112689,-2.11439,-0.0754176,-0.78231,0.152794,
2,0,0,1,0,2423.49,0.145421,0.14515,-7.96938,2,0.0148074,11,-0.00115675,-2.09858,-0.0815612,-0.723383,0.151525,
2,0,0,1,0,2423.52,0.143927,0.143649,-8.27058,2,0.0146051,11,-0.00118806,-2.08246,-0.084259,-0.700222,0.150266,
2,0,0,1,0,2423.54,0.142429,0.142125,-8.55835,2,0.0143947,11,-0.00121635,-2.06761,-0.0883377,-0.667891,0.148971,
2,0,0,1,0,2423.57,0.140929,0.140591,-8.81979,2,0.0141773,11,-0.00123999,-2.05454,-0.0995695,-0.592551,0.147647,
2,0,0,1,0,2423.59,0.13943,0.139149,-9.05703,2,0.0139535,11,-0.00126028,-2.04301,-0.115941,-0.508878,0.146395,
2,0,0,1,0,2423.62,0.137935,0.137674,-9.30076,2,0.0137248,11,-0.00128047,-2.03148,-0.129405,-0.455933,0.145115,
2,0,0,1,0,2423.64,0.136435,0.136135,-9.53107,2,0.0134893,11,-0.00129751,-2.02086,-0.140411,-0.420194,0.14376,
2,0,0,1,0,2423.67,0.134934,0.134612,-9.71251,2,0.0132487,11,-0.00130742,-2.01267,-0.170568,-0.345902,0.142382,
2,0,0,1,0,2423.69,0.13344,0.133137,-9.86398,2,0.0130047,11,-0.00131326,-2.00595,-0.217887,-0.270783,0.141028,
2,0,0,1,0,2423.72,0.13194,0.131644,-10.0047,2,0.0127563,11,-0.00131706,-1.99979,-0.278104,-0.212151,0.139647,
2,0,0,1,0,2423.74,0.13044,0.13011,-10.1239,2,0.0125046,11,-0.00131722,-1.99465,-0.334783,-0.176234,0.138209,
2,0,0,1,0,2423.77,0.128941,0.128671,-10.1934,2,0.0122505,11,-0.00131159,-1.99168,-0.543525,-0.108551,0.136826,
2,0,0,1,0,2423.79,0.127447,0.127143,-10.2399,2,0.0119959,11,-0.00130193,-1.9897,-1.40264,-0.0420635,0.135334,
2,0,0,1,0,2423.82,0.125946,0.125646,-10.2462,2,0.0117398,11,-0.00128739,-1.98944,2.73425,0.0215782,0.133843,
2,0,0,1,0,2423.84,0.124446,0.124161,-10.2259,2,0.0114839,11,-0.00126965,-1.9903,0.953465,0.0618796,0.132341,
2,0,0,1,0,2423.87,0.122952,0.122686,-10.1646,2,0.0112299,11,-0.00124706,-1.99291,0.511583,0.115328,0.130817,
2,0,0,1,0,2423.89,0.121453,0.121178,-10.0619,2,0.0109768,11,-0.00121928,-1.99732,0.306386,0.192568,0.129227,
2,0,0,1,0,2423.92,0.119953,0.119665,-9.92246,2,0.0107267,11,-0.00118737,-2.00338,0.232397,0.253876,0.127603,
2,0,0,1,0,2423.94,0.118459,0.118174,-9.76245,2,0.0104815,11,-0.00115367,-2.01044,0.206047,0.286342,0.125984,
2,0,0,1,0,2423.97,0.116958,0.116673,-9.56966,2,0.0102398,11,-0.00111652,-2.0191,0.17603,0.33517,0.124328,
2,0,0,1,0,2423.99,0.115457,0.115123,-9.33039,2,0.0100035,11,-0.00107414,-2.0301,0.147065,0.401183,0.122587,
2,0,0,1,0,2424.02,0.113963,0.113661,-9.07227,2,0.00977417,11,-0.00103116,-2.04228,0.133332,0.442504,0.120918,
2,0,0,1,0,2424.04,0.112464,0.112126,-8.7981,2,0.00955085,11,-0.000986492,-2.05561,0.123187,0.478946,0.119164,
2,0,0,1,0,2424.07,0.110965,0.110685,-8.49982,2,0.00933453,11,-0.000940807,-2.07059,0.118408,0.498277,0.117485,
2,0,0,1,0,2424.09,0.109466,0.109173,-8.21522,2,0.00912538,11,-0.000896882,-2.08538,0.112723,0.523407,0.115745,
2,0,0,1,0,2424.12,0.107972,0.107677,-7.93938,2,0.00892415,11,-0.000854887,-2.10021,0.110906,0.531982,0.114028,
2,0,0,1,0,2424.14,0.106471,0.106152,-7.66428,2,0.00872916,11,-0.000813581,-2.11553,0.115909,0.509022,0.112284,
2,0,0,1,0,2424.17,0.10497,0.1047,-7.4108,2,0.00854071,11,-0.00077591,-2.13013,0.119724,0.492801,0.110628,
2,0,0,1,0,2424.19,0.103476,0.103167,-7.17999,2,0.00835895,11,-0.000740737,-2.14388,0.121819,0.484327,0.108911,
2,0,0,1,0,2424.22,0.101976,0.10165,-6.96932,2,0.00818202,11,-0.000708433,-2.15681,0.127665,0.462148,0.107226,
2,0,0,1,0,2424.24,0.100477,0.100183,-6.77331,2,0.00801035,11,-0.000678567,-2.1692,0.138379,0.426366,0.105601,
2,0,0,1,0,2424.27,0.0989825,0.0986954,-6.59943,2,0.00784389,11,-0.000651334,-2.18049,0.160365,0.367911,0.103975,
2,0,0,1,0,2424.29,0.0974817,0.0971953,-6.45109,2,0.00768068,11,-0.000627015,-2.19037,0.169868,0.347329,0.102356,
2,0,0,1,0,2424.32,0.0959822,0.0956455,-6.32679,2,0.00752098,11,-0.000605129,-2.19882,0.178627,0.330297,0.100707,
2,0,0,1,0,2424.34,0.094488,0.0942085,-6.19685,2,0.00736508,11,-0.000583796,-2.20783,0.206894,0.28517,0.099166,
2,0,0,1,0,2424.37,0.0929884,0.0926843,-6.08813,2,0.00721144,11,-0.000564274,-2.21552,0.243007,0.242792,0.0975548,
2,0,0,1,0,2424.39,0.0914889,0.0911922,-6.00396,2,0.00706019,11,-0.000547514,-2.22156,0.249447,0.236524,0.0959953,
2,0,0,1,0,2424.42,0.0899894,0.0896716,-5.9223,2,0.00691097,11,-0.000531062,-2.22751,0.241956,0.243846,0.0944095,
2,0,0,1,0,2424.44,0.0884951,0.0882109,-5.83693,2,0.00676451,11,-0.000514881,-2.23382,0.267735,0.220367,0.0928805,
2,0,0,1,0,2424.47,0.0869943,0.0866538,-5.76124,2,0.00661954,11,-0.000499234,-2.23948,0.305546,0.193097,0.0912628,
2,0,0,1,0,2424.49,0.0854935,0.0852062,-5.69102,2,0.00647625,11,-0.00048491,-2.24481,0.299039,0.197299,0.089759,
2,0,0,1,0,2424.52,0.0839993,0.0836589,-5.63279,2,0.00633514,11,-0.000471233,-2.24928,0.280539,0.21031,0.0881651,
2,0,0,1,0,2424.54,0.0824998,0.0822389,-5.57691,2,0.00619508,11,-0.000458639,-2.25361,0.299703,0.196861,0.0867005,
2,0,0,1,0,2424.57,0.0810002,0.0807014,-5.49617,2,0.00605679,11,-0.000443548,-2.25994,0.332401,0.177497,0.0850983,
2,0,0,1,0,2424.59,0.0795007,0.0791831,-5.42988,2,0.00592007,11,-0.000429955,-2.26521,0.332972,0.177192,0.083527,
2,0,0,1,0,2424.62,0.0780078,0.0777172,-5.38555,2,0.00578531,11,-0.00041855,-2.26877,0.295733,0.199505,0.0820256,
2,0,0,1,0,2424.64,0.076507,0.0761641,-5.32308,2,0.0056515,11,-0.000405427,-2.27384,0.285714,0.206501,0.0804225,
2,0,0,1,0,2424.67,0.0750062,0.0746961,-5.24011,2,0.00551944,11,-0.000391416,-2.28066,0.297685,0.198196,0.0788882,
2,0,0,1,0,2424.69,0.073512,0.0732114,-5.17263,2,0.00538962,11,-0.000378696,-2.28629,0.285165,0.206898,0.0773495,
2,0,0,1,0,2424.72,0.0720124,0.0717334,-5.11658,2,0.0052608,11,-0.000367029,-2.29102,0.262071,0.22513,0.0758267,
2,0,0,1,0,2424.74,0.0705129,0.0702361,-5.05204,2,0.0051336,11,-0.000354836,-2.29653,0.24739,0.23849,0.0742777,
2,0,0,1,0,2424.77,0.0690187,0.06872,-4.97261,2,0.00500873,11,-0.000341718,-2.30342,0.261196,0.225884,0.0726981,
2,0,0,1,0,2424.79,0.0675179,0.0671933,-4.90052,2,0.00488522,11,-0.000329282,-2.30976,0.261092,0.225974,0.0711137,
2,0,0,1,0,2424.82,0.066017,0.0657309,-4.84986,2,0.00476333,11,-0.000318785,-2.31427,0.24547,0.240355,0.0696107,
2,0,0,1,0,2424.84,0.0645242,0.0642388,-4.77885,2,0.00464349,11,-0.000306988,-2.32068,0.241918,0.243884,0.0680619,
2,0,0,1,0,2424.87,0.0630246,0.0626876,-4.69414,2,0.00452504,11,-0.000294264,-2.32844,0.244632,0.241178,0.0664429,
2,0,0,1,0,2424.89,0.0615251,0.0611699,-4.62104,2,0.00440848,11,-0.000282669,-2.33526,0.239467,0.246381,0.0648667,
2,0,0,1,0,2424.92,0.0600256,0.0597257,-4.55627,2,0.00429359,11,-0.000272126,-2.34139,0.244004,0.241799,0.0633707,
2,0,0,1,0,2424.94,0.0585314,0.0582218,-4.50612,2,0.00418072,11,-0.000262354,-2.3462,0.239958,0.245877,0.0618266,
2,0,0,1,0,2424.97,0.0570305,0.0567078,-4.43777,2,0.0040689,11,-0.000251656,-2.35284,0.259057,0.227749,0.060258,
2,0,0,1,0,2424.99,0.0555297,0.0552047,-4.36412,2,0.00395886,11,-0.00024092,-2.3601,0.262652,0.224632,0.058696,
2,0,0,1,0,2425.02,0.0540355,0.0537253,-4.31871,2,0.00385067,11,-0.000232024,-2.36465,0.279773,0.210885,0.0571803,
2,0,0,1,0,2425.04,0.052536,0.0521983,-4.27797,2,0.00374319,11,-0.000223303,-2.36876,0.311647,0.189316,0.0556207,
2,0,0,1,0,2425.07,0.0510364,0.0507363,-4.22312,2,0.00363696,11,-0.000214266,-2.37437,0.312933,0.188539,0.0541148,
2,0,0,1,0,2425.09,0.0495369,0.0492241,-4.15576,2,0.00353207,11,-0.000204563,-2.38135,0.324152,0.182014,0.0525487,
2,0,0,1,0,2425.12,0.0480427,0.0477129,-4.12586,2,0.00342874,11,-0.000196857,-2.38449,0.360565,0.163632,0.0510136,
2,0,0,1,0,2425.14,0.0465432,0.0462427,-4.09929,2,0.00332594,11,-0.000189562,-2.38729,0.403906,0.146073,0.0495221,
2,0,0,1,0,2425.17,0.0450424,0.044713,-4.05998,2,0.00322402,11,-0.000181534,-2.39148,0.443295,0.133094,0.0479609,
2,0,0,1,0,2425.19,0.0435482,0.0432474,-4.00913,2,0.00312331,11,-0.000173384,-2.39695,0.492988,0.119678,0.0464547,
2,0,0,1,0,2425.22,0.0420486,0.0417238,-3.99655,2,0.00302309,11,-0.000166751,-2.39831,0.515129,0.114534,0.044921,
2,0,0,1,0,2425.24,0.0405491,0.0402486,-3.98361,2,0.0029233,11,-0.000160335,-2.39972,0.616243,0.0957414,0.0434355,
2,0,0,1,0,2425.27,0.0390549,0.0387313,-3.96263,2,0.00282435,11,-0.000153478,-2.40202,0.63891,0.0923448,0.0419014,
2,0,0,1,0,2425.29,0.0375541,0.0372493,-3.92732,2,0.00272566,11,-0.00014629,-2.4059,0.688481,0.0856959,0.0403912,
2,0,0,1,0,2425.32,0.0360532,0.0357854,-3.91422,2,0.00262758,11,-0.000140072,-2.40736,0.709862,0.0831148,0.0389167,
2,0,0,1,0,2425.34,0.034559,0.034265,-3.91241,2,0.00253012,11,-0.000134059,-2.40756,1.55074,0.0380462,0.037395,
2,0,0,1,0,2425.37,0.0330595,0.0327785,-3.89962,2,0.00243252,11,-0.000127824,-2.40898,2.22557,0.0265101,0.0358982,
2,0,0,1,0,2425.39,0.0315613,0.0312183,-3.87919,2,0.00233517,11,-0.000121102,-2.41126,1.75783,0.0335641,0.0343216,
2,0,0,1,0,2425.42,0.0300618,0.0297576,-3.86775,2,0.0022382,11,-0.000115095,-2.41254,1.24059,0.0475581,0.0328518,
2,0,0,1,0,2425.44,0.0285676,0.0282743,-3.87337,2,0.00214174,11,-0.000109517,-2.41191,-14.2721,-0.00413394,0.031373,
2,0,0,1,0,2425.47,0.0270667,0.0267468,-3.88083,2,0.00204479,11,-0.0001038,-2.41107,-4.04101,-0.0146003,0.0298514,
2,0,0,1,0,2425.49,0.0255659,0.0253059,-3.86553,2,0.00194783,11,-9.78208e-05,-2.41279,3.2236,0.0183025,0.0283984,
2,0,0,1,0,2425.52,0.0240717,0.0237856,-3.85594,2,0.00185151,11,-9.17157e-05,-2.41387,2.22052,0.0265703,0.0268703,
2,0,0,1,0,2425.54,0.0225722,0.022257,-3.87523,2,0.00175476,11,-8.62512e-05,-2.4117,-2.57698,-0.022895,0.0253572,
2,0,0,1,0,2425.57,0.0210726,0.0207695,-3.87706,2,0.00165789,11,-8.05246e-05,-2.4115,-1.60113,-0.0368489,0.0238712,
2,0,0,1,0,2425.59,0.0195784,0.0192507,-3.87799,2,0.00156124,11,-7.46542e-05,-2.41139,-2.92001,-0.0202054,0.0223531,
2,0,0,1,0,2425.62,0.0180789,0.0177576,-3.87497,2,0.00146413,11,-6.88104e-05,-2.41173,-6.64395,-0.00888026,0.0208576,
2,0,0,1,0,2425.64,0.0165781,0.016295,-3.89739,2,0.00136699,11,-6.35078e-05,-2.40923,-1.4151,-0.0416933,0.0194129,
2,0,0,1,0,2425.67,0.0150839,0.0147851,-3.90705,2,0.00126991,11,-5.77662e-05,-2.40815,-0.853799,-0.0691029,0.0179108,
2,0,0,1,0,2425.69,0.0135844,0.0132566,-3.90684,2,0.00117204,11,-5.17914e-05,-2.40817,-1.42137,-0.0415093,0.0163821,
2,0,0,1,0,2425.72,0.0120848,0.0117585,-3.92152,2,0.00107397,11,-4.61112e-05,-2.40655,-3.64545,-0.0161846,0.0148957,
2,0,0,1,0,2425.74,0.0105853,0.0102658,-3.93027,2,0.000975837,11,-4.03474e-05,-2.40558,-2.38326,-0.024756,0.01341,
2,0,0,1,0,2425.77,0.00909108,0.0087954,-3.94558,2,0.000877739,11,-3.4703e-05,-2.40389,-0.663218,-0.0889602,0.0119519,
2,0,0,1,0,2425.79,0.00759027,0.00731362,-3.95582,2,0.000778873,11,-2.89314e-05,-2.40276,-0.941676,-0.0626543,0.0104783,
2,0,0,1,0,2425.82,0.00608945,0.00576654,-3.96914,2,0.000679669,11,-2.28883e-05,-2.4013,-1.57609,-0.0374343,0.00894186,
2,0,0,1,0,2425.84,0.00459524,0.00431289,-3.9852,2,0.000580686,11,-1.71878e-05,-2.39955,-0.89745,-0.0657418,0.00750106,
2,0,0,1,0,2425.87,0.0030957,0.00282976,-4.00738,2,0.000480765,11,-1.13399e-05,-2.39714,-0.312151,-0.189011,0.00603566,
2,0,0,1,0,2425.89,0.00159616,0.00123597,-4.07574,2,0.000379528,11,-5.03748e-06,-2.38979, , ,0.00449656,
2,0,0,0,0,2425.91,0.000199195,-0.00014972,-4.05207,2,0.000284632,11,6.06676e-07,-2.39232, , ,0.00309193,