File: Figure_codes/Fig_S3_S4/20221101_1-115_003_TrumpetPlot_ParaChange_from10_every3_04_CV_C01_16.csv
mode,ox/red,error,control changes,counter inc.,time/s,control/V,Ewe/V,<I>/mA,cycle number,(Q-Qo)/C,I Range,P/W,log(|I|),Tafel slope mV/dec,alpha_eff,dI/d(E-IR),E-IR/V,
2,0,0,1,0,32582.1,2.44065e-05,-0.00042076,-0.384336,17,0.0000000E+000,10,1.61713e-07,-3.41529, , , ,-0.00042076,
2,1,0,1,0,32582.2,0.00129787,0.000948225,0.160307,17,1.42618e-06,10,1.52007e-07,-3.79505, , , ,0.000948225,
2,1,0,1,0,32582.4,0.00279606,0.00247839,0.284272,17,3.93956e-05,10,7.04536e-07,-3.54627,0.00559978,10.5361,65.6971,0.00247839,
2,1,0,1,0,32582.5,0.00429425,0.00399371,0.318199,17,8.73388e-05,10,1.2708e-06,-3.4973,0.0324193,1.8199,21.6731,0.00399371,
2,1,0,1,0,32582.7,0.00579244,0.0055207,0.341073,17,0.000139663,10,1.88296e-06,-3.46715,0.048019,1.22868,16.1402,0.0055207,
2,1,0,1,0,32582.8,0.00729063,0.00696815,0.365586,17,0.000195487,10,2.54746e-06,-3.43701,0.0631851,0.933765,13.1793,0.00696815,
2,1,0,1,0,32583,0.00878882,0.00848241,0.384729,17,0.000254332,10,3.26343e-06,-3.41484,0.0770787,0.765451,11.332,0.00848241,
2,1,0,1,0,32583.1,0.010287,0.0099744,0.39869,17,0.000315657,10,3.97669e-06,-3.39937,0.103543,0.569811,8.83324,0.0099744,
2,1,0,1,0,32583.3,0.0117852,0.0114738,0.411316,17,0.00037917,10,4.71937e-06,-3.38582,0.107951,0.546543,8.74723,0.0114738,
2,1,0,1,0,32583.4,0.0132838,0.0129376,0.424454,17,0.000444411,10,5.49144e-06,-3.37217,0.108333,0.544619,9.08075,0.0129376,
2,1,0,1,0,32583.6,0.0147814,0.0144864,0.436595,17,0.000511705,10,6.3247e-06,-3.35992,0.121308,0.486366,8.27497,0.0144864,
2,1,0,1,0,32583.7,0.0162789,0.0159773,0.44803,17,0.000580974,10,7.15833e-06,-3.34869,0.145075,0.406687,7.10959,0.0159773,
2,1,0,1,0,32583.9,0.017778,0.0174206,0.460417,17,0.000651771,10,8.02073e-06,-3.33685,0.148051,0.398512,7.13422,0.0174206,
2,1,0,1,0,32584,0.0192761,0.0189295,0.469357,17,0.000723906,10,8.88471e-06,-3.3285,0.152797,0.386134,7.08097,0.0189295,
2,1,0,1,0,32584.2,0.0207743,0.0204597,0.480646,17,0.000797827,10,9.83388e-06,-3.31817,0.13951,0.42291,7.89854,0.0204597,
2,1,0,1,0,32584.3,0.0222725,0.021975,0.492304,17,0.000873468,10,1.08184e-05,-3.30777,0.1538,0.383616,7.343,0.021975,
2,1,0,1,0,32584.5,0.0237707,0.0234416,0.501282,17,0.000950716,10,1.17508e-05,-3.29992,0.177951,0.331552,6.49819,0.0234416,
2,1,0,1,0,32584.6,0.0252689,0.0249686,0.511665,17,0.00102922,10,1.27755e-05,-3.29101,0.16734,0.352576,7.07627,0.0249686,
2,1,0,1,0,32584.8,0.0267671,0.0264733,0.521426,17,0.0011094,10,1.38039e-05,-3.28281,0.158829,0.371469,7.57544,0.0264733,
2,1,0,1,0,32584.9,0.0282662,0.0279279,0.533784,17,0.00119128,10,1.49075e-05,-3.27263,0.169039,0.349033,7.25956,0.02792787,
2,1,0,1,0,32585.1,0.0297635,0.0294729,0.543425,17,0.00127472,10,1.60163e-05,-3.26486,0.182299,0.323644,6.8696,0.0294729,
2,1,0,1,0,32585.2,0.031261,0.0309517,0.550481,17,0.00135954,10,1.70383e-05,-3.25926,0.179771,0.328195,7.09308,0.0309517,
2,1,0,1,0,32585.4,0.0327599,0.0324529,0.563799,17,0.00144593,10,1.82969e-05,-3.24888,0.192488,0.306513,6.7464,0.0324529,
2,1,0,1,0,32585.5,0.034258,0.0339025,0.573843,17,0.00153392,10,1.94547e-05,-3.24121,0.182533,0.32323,7.24959,0.0339025,
2,1,0,1,0,32585.7,0.0357562,0.0354114,0.583595,17,0.0016235,10,2.06659e-05,-3.23389,0.232889,0.25334,5.76872,0.0354114,
2,1,0,1,0,32585.8,0.0372544,0.0369278,0.593595,17,0.00171463,10,2.19202e-05,-3.22651,0.212182,0.278064,6.45379,0.0369278,
2,1,0,1,0,32586,0.0387526,0.0384113,0.602735,17,0.00180708,10,2.31519e-05,-3.21987,0.186687,0.316036,7.48571,0.0384113,
2,1,0,1,0,32586.1,0.0402508,0.039898,0.615629,17,0.00190128,10,2.45624e-05,-3.21068,0.195441,0.301882,7.23282,0.039898,
2,1,0,1,0,32586.3,0.041749,0.0414017,0.627125,17,0.00199742,10,2.5964e-05,-3.20265,0.244509,0.2413,5.89012,0.0414017,
2,1,0,1,0,32586.4,0.0432472,0.0429806,0.639606,17,0.00209476,10,2.74906e-05,-3.19409,0.22913,0.257495,6.38767,0.0429806,
2,1,0,1,0,32586.6,0.0447458,0.0443987,0.646904,17,0.00219353,10,2.87217e-05,-3.18916,0.2166,0.272391,6.86425,0.0443987,
2,1,0,1,0,32586.7,0.0462433,0.0459208,0.655385,17,0.00229377,10,3.00958e-05,-3.1835,0.199354,0.295955,7.56421,0.0459208,
2,1,0,1,0,32586.9,0.0477409,0.04743,0.666501,17,0.00239568,10,3.16121e-05,-3.1762,0.220948,0.267031,6.93762,0.04743,
2,1,0,1,0,32587,0.0492399,0.0489019,0.674901,17,0.00249902,10,3.3004e-05,-3.17076,0.253789,0.232476,6.12403,0.0489019,
2,1,0,1,0,32587.2,0.0507381,0.0504119,0.682142,17,0.00260351,10,3.43881e-05,-3.16613,0.266829,0.221116,5.90985,0.0504119,
2,1,0,1,0,32587.3,0.0522363,0.0518795,0.693158,17,0.00270931,10,3.59607e-05,-3.15917,0.228223,0.258519,6.98483,0.0518795,
2,1,0,1,0,32587.5,0.0537345,0.0534627,0.703119,17,0.00281672,10,3.75907e-05,-3.15297,0.264252,0.223272,6.12037,0.0534627,
2,1,0,1,0,32587.6,0.0552327,0.0548943,0.711067,17,0.00292545,10,3.90335e-05,-3.14809,0.326262,0.180836,5.01363,0.0548943,
2,1,0,1,0,32587.8,0.0567309,0.0564138,0.718431,17,0.00303541,10,4.05295e-05,-3.14361,0.352113,0.16756,4.70509,0.0564138,
2,1,0,1,0,32587.9,0.0582291,0.0579313,0.727556,17,0.00314636,10,4.21483e-05,-3.13813,0.303131,0.194636,5.52341,0.0579313,
2,1,0,1,0,32588.1,0.0597282,0.0594412,0.737453,17,0.0032589,10,4.38351e-05,-3.13227,0.336014,0.175588,5.03899,0.0594412,
2,1,0,1,0,32588.2,0.0612255,0.0609172,0.743279,17,0.00337257,10,4.52784e-05,-3.12885,0.360528,0.163649,4.7501,0.0609172,
2,1,0,1,0,32588.4,0.062723,0.0623833,0.752892,17,0.00348747,10,4.69679e-05,-3.12327,0.339807,0.173628,5.09458,0.0623833,
2,1,0,1,0,32588.5,0.0642218,0.063895,0.758522,17,0.00360336,10,4.84658e-05,-3.12003,0.313116,0.188429,5.59338,0.063895,
2,1,0,1,0,32588.7,0.06572,0.0654273,0.767158,17,0.00372054,10,5.01931e-05,-3.11512,0.313225,0.188363,5.63563,0.0654273,
2,1,0,1,0,32588.8,0.0672182,0.0669246,0.775562,17,0.00383902,10,5.19042e-05,-3.11038,0.404848,0.145734,4.39608,0.0669246,
2,1,0,1,0,32589,0.0687164,0.0683816,0.781693,17,0.00395844,10,5.34534e-05,-3.10696,0.474919,0.124232,3.78747,0.0683816,
2,1,0,1,0,32589.1,0.0702146,0.0698937,0.78623,17,0.0040785,10,5.49526e-05,-3.10445,0.421875,0.139852,4.30076,0.0698937,
2,1,0,1,0,32589.3,0.0717128,0.0713635,0.794943,17,0.0041997,10,5.67299e-05,-3.09966,0.35953,0.164103,5.08572,0.0713635,
2,1,0,1,0,32589.4,0.073211,0.0729159,0.8005,17,0.00432195,10,5.83692e-05,-3.09664,0.437297,0.13492,4.21781,0.0729159,
2,1,0,1,0,32589.6,0.0747092,0.0743994,0.807299,17,0.00444518,10,6.00626e-05,-3.09297,0.518927,0.113696,3.57816,0.0743994,
2,1,0,1,0,32589.7,0.0762078,0.0758645,0.809281,17,0.00456906,10,6.13957e-05,-3.0919,0.452849,0.130286,4.12488,0.0758645,
2,1,0,1,0,32589.9,0.0777053,0.07738,0.816624,17,0.00469366,10,6.31904e-05,-3.08798,0.415228,0.142091,4.53095,0.07738,
2,1,0,1,0,32590,0.0792029,0.078887,0.823235,17,0.00481921,10,6.49425e-05,-3.08448,0.488889,0.120682,3.87153,0.078887,
2,1,0,1,0,32590.2,0.0807019,0.0803981,0.829825,17,0.00494588,10,6.67164e-05,-3.08101,0.58241,0.101303,3.26926,0.08039812,
2,1,0,1,0,32590.3,0.0822001,0.0818785,0.8314,17,0.00507313,10,6.80738e-05,-3.08019,0.540992,0.109059,3.54529,0.0818785,
2,1,0,1,0,32590.5,0.0836983,0.0833726,0.839792,17,0.00520109,10,7.00156e-05,-3.07583,0.457951,0.128835,4.23208,0.0833726,
2,1,0,1,0,32590.6,0.0851965,0.0849006,0.845175,17,0.0053302,10,7.17559e-05,-3.07305,0.412275,0.143109,4.72398,0.08490061,
2,1,0,1,0,32590.8,0.0866947,0.0863958,0.85534,17,0.00546045,10,7.38978e-05,-3.06786,0.563994,0.104611,3.48442,0.0863958,
2,1,0,1,0,32590.9,0.0881929,0.0878878,0.861924,17,0.00559174,10,7.57526e-05,-3.06453,0.387698,0.15218,5.11163,0.0878878,
2,1,0,1,0,32591.1,0.0896911,0.0893978,0.868102,17,0.00572392,10,7.76064e-05,-3.06143,0.31709,0.186067,6.33261,0.0893978,
2,1,0,1,0,32591.2,0.0911902,0.0908676,0.880643,17,0.00585769,10,8.00219e-05,-3.0552,0.260416,0.226561,7.77454,0.0908676,
2,1,0,1,0,32591.4,0.0926875,0.092367,0.892164,17,0.0059933,10,8.24065e-05,-3.04956,0.239093,0.246766,8.5824,0.092367,
2,1,0,1,0,32591.5,0.094185,0.0939283,0.902311,17,0.00613053,10,8.47525e-05,-3.04464,0.26699,0.220982,7.78977,0.0939283,
2,1,0,1,0,32591.7,0.0956838,0.0953488,0.914544,17,0.00626938,10,8.72007e-05,-3.0388,0.240794,0.245022,8.77176,0.0953488,
2,1,0,1,0,32591.8,0.097182,0.0968334,0.927135,17,0.00641018,10,8.97776e-05,-3.03286,0.193988,0.304143,11.0094,0.0968334,
2,1,0,1,0,32592,0.0986802,0.0983635,0.94457,17,0.00655341,10,9.29112e-05,-3.02477,0.215238,0.274116,10.112,0.0983635,
2,1,0,1,0,32592.1,0.100178,0.0998502,0.959687,17,0.00669895,10,9.5825e-05,-3.01787,0.218985,0.269425,10.1076,0.0998502,
2,1,0,1,0,32592.3,0.101677,0.101377,0.974051,17,0.00684677,10,9.87466e-05,-3.01142,0.210099,0.28082,10.7219,0.1013772,
2,1,0,1,0,32592.4,0.103175,0.102888,0.993692,17,0.00699715,10,0.000102239,-3.00275,0.192331,0.306764,11.9046,0.102888,
2,1,0,1,0,32592.6,0.104673,0.104363,1.01556,17,0.00715036,10,0.000105987,-2.99329,0.196555,0.30017,11.8635,0.104363,
2,1,0,1,0,32592.7,0.106171,0.105833,1.03049,17,0.00730638,10,0.000109059,-2.98696,0.22983,0.256711,10.2932,0.105833,
2,1,0,1,0,32592.9,0.10767,0.107319,1.04621,17,0.00746489,10,0.000112278,-2.98038,0.221273,0.266638,10.8968,0.1073188,
2,1,0,1,0,32593,0.109167,0.108876,1.06167,17,0.00762541,10,0.00011559,-2.97401,0.227434,0.259416,10.7562,0.108876,
2,1,0,1,0,32593.2,0.110665,0.110303,1.07945,17,0.00778863,10,0.000119067,-2.9668,0.238944,0.24692,10.3836,0.110303,
2,1,0,1,0,32593.3,0.112164,0.111834,1.09116,17,0.00795435,10,0.000122028,-2.96211,0.296,0.199324,8.49082,0.111834,
2,1,0,1,0,32593.5,0.113662,0.113323,1.10654,17,0.008122,10,0.000125396,-2.95603,0.326068,0.180944,7.79836,0.113323,
2,1,0,1,0,32593.6,0.11516,0.11484,1.11527,17,0.00829116,10,0.000128078,-2.95262,0.395174,0.149301,6.50126,0.11484,
2,1,0,1,0,32593.8,0.116658,0.116332,1.12682,17,0.00846211,10,0.000131085,-2.94815,0.343602,0.17171,7.54174,0.116332,
2,1,0,1,0,32593.9,0.118157,0.117827,1.13892,17,0.00863466,10,0.000134196,-2.94351,0.403016,0.146396,6.49705,0.117827,
2,1,0,1,0,32594.1,0.119655,0.119324,1.14597,17,0.00880864,10,0.000136741,-2.94083,0.489149,0.120618,5.3931,0.119324,
2,1,0,1,0,32594.2,0.121153,0.120828,1.15292,17,0.00898373,10,0.000139305,-2.9382,0.494402,0.119336,5.37735,0.120828,
2,1,0,1,0,32594.4,0.122652,0.122337,1.16258,17,0.00916016,10,0.000142226,-2.93458,0.443462,0.133044,6.03075,0.1223372,
2,1,0,1,0,32594.5,0.124149,0.12383,1.17023,17,0.00933777,10,0.00014491,-2.93173,0.518279,0.113838,5.19656,0.12383,
2,1,0,1,0,32594.7,0.125647,0.125315,1.17839,17,0.00951652,10,0.00014767,-2.92871,0.565639,0.104307,4.78788,0.125315,
2,1,0,1,0,32594.8,0.127146,0.126769,1.17932,17,0.00969626,10,0.000149501,-2.92837,0.639678,0.092234,4.25925,0.126769,
2,1,0,1,0,32595,0.128644,0.128368,1.18997,17,0.00987666,10,0.000152753,-2.92447,0.657832,0.0896885,4.16286,0.128368,
2,1,0,1,0,32595.1,0.130142,0.129791,1.19583,17,0.0100582,10,0.000155208,-2.92233,0.921123,0.0640523,2.9819,0.129791,
2,1,0,1,0,32595.3,0.13164,0.13131,1.19863,17,0.0102405,10,0.000157393,-2.92131,88.7301,0.000664938,0.030963,0.13131,
2,1,0,1,0,32595.4,0.133139,0.132803,1.19692,17,0.0104229,10,0.000158955,-2.92193,-1.80522,-0.0326829,-1.52629,0.132803,
2,1,0,1,0,32595.6,0.134637,0.134351,1.19283,17,0.0106047,10,0.000160258,-2.92342,-0.600287,-0.0982863,-4.573,0.134351,
2,1,0,1,0,32595.7,0.136135,0.135798,1.18842,17,0.0107859,10,0.000161386,-2.92503,-0.434529,-0.135779,-6.26224,0.135798,
2,1,0,1,0,32595.9,0.137633,0.137314,1.17576,17,0.0109655,10,0.000161448,-2.92968,-0.241136,-0.244675,-11.1416,0.137314,
2,1,0,1,0,32596,0.139132,0.13883,1.15643,17,0.011143,10,0.000160547,-2.93688,-0.178935,-0.329729,-14.7791,0.13883,
2,1,0,1,0,32596.2,0.140629,0.14031,1.12755,17,0.0113166,10,0.000158207,-2.94786,-0.141207,-0.417826,-18.3082,0.14031,
2,1,0,1,0,32596.3,0.142127,0.141819,1.09838,17,0.0114861,10,0.000155772,-2.95925,-0.120884,-0.488073,-20.8017,0.141819,
2,1,0,1,0,32596.5,0.143626,0.143319,1.06368,17,0.0116509,10,0.000152447,-2.97319,-0.0964358,-0.611806,-25.2373,0.143319,
2,1,0,1,0,32596.6,0.145124,0.1448,1.02109,17,0.0118097,10,0.000147854,-2.99093,-0.0798644,-0.738752,-29.3588,0.1447998,
2,1,0,1,0,32596.8,0.146622,0.146303,0.974672,17,0.0119618,10,0.000142598,-3.01114,-0.0750631,-0.786005,-29.9024,0.146303,
2,1,0,1,0,32596.9,0.14812,0.14778,0.931873,17,0.0121074,10,0.000137712,-3.03064,-0.0746838,-0.789997,-28.6808,0.14778,
2,1,0,1,0,32597.1,0.149619,0.149285,0.887227,17,0.0122463,10,0.00013245,-3.05197,-0.0705513,-0.836271,-28.9894,0.149285,
2,1,0,1,0,32597.2,0.151117,0.15083,0.845796,17,0.0123788,10,0.000127572,-3.07273,-0.0701621,-0.84091,-27.7758,0.15083,
2,1,0,1,0,32597.4,0.152615,0.152271,0.805132,17,0.012505,10,0.000122599,-3.09413,-0.0740103,-0.797186,-25.1219,0.152271,
2,1,0,1,0,32597.5,0.154114,0.153772,0.770344,17,0.0126256,10,0.000118457,-3.11332,-0.0814753,-0.724146,-21.8521,0.153772,
2,1,0,1,0,32597.7,0.155612,0.15526,0.737942,17,0.0127413,10,0.000114573,-3.13198,-0.0886328,-0.665668,-19.2834,0.15526,
2,1,0,1,0,32597.8,0.157109,0.156811,0.711589,17,0.0128527,10,0.000111585,-3.14777,-0.0955717,-0.617338,-17.2031,0.156811,
2,1,0,1,0,32598,0.158608,0.158313,0.690396,17,0.0129603,10,0.000109298,-3.1609,-0.109638,-0.538134,-14.5085,0.158313,
2,1,0,1,0,32598.1,0.160106,0.15978,0.668626,17,0.0130646,10,0.000106833,-3.17482,-0.125041,-0.471845,-12.3749,0.15978,
2,1,0,1,0,32598.3,0.161604,0.161281,0.651665,17,0.0131661,10,0.000105101,-3.18598,-0.145093,-0.406637,-10.3687,0.161281,
2,1,0,1,0,32598.4,0.163102,0.162771,0.636777,17,0.0132655,10,0.000103649,-3.19601,-0.161853,-0.364528,-9.10376,0.162771,
2,1,0,1,0,32598.6,0.164601,0.164279,0.624287,17,0.0133626,10,0.000102557,-3.20462,-0.179526,-0.328643,-8.02971,0.164279,
2,1,0,1,0,32598.7,0.166099,0.16578,0.61474,17,0.0134579,10,0.000101912,-3.21131,-0.207823,-0.283896,-6.79922,0.16578,
2,1,0,1,0,32598.9,0.167597,0.167237,0.603047,17,0.0135517,10,0.000100852,-3.21965,-0.268626,-0.219636,-5.16917,0.167237,
2,1,0,1,0,32599,0.169095,0.168768,0.596537,17,0.0136444,10,0.000100676,-3.22436,-0.259571,-0.227298,-5.30208,0.168768,
2,1,0,1,0,32599.2,0.170594,0.170274,0.588528,17,0.0137358,10,0.000100211,-3.23023,-0.27192,-0.216976,-4.9869,0.170274,
2,1,0,1,0,32599.3,0.172091,0.171739,0.579478,17,0.013826,10,9.95192e-05,-3.23696,-0.339791,-0.173636,-3.95688,0.171739,
2,1,0,1,0,32599.5,0.173589,0.173231,0.574921,17,0.0139154,10,9.9594e-05,-3.24039,-0.44417,-0.132832,-2.98644,0.173231,
2,1,0,1,0,32599.6,0.175088,0.174741,0.571525,17,0.014004,10,9.98692e-05,-3.24296,-0.450047,-0.131097,-2.92634,0.174741,
2,1,0,1,0,32599.8,0.176586,0.176244,0.567353,17,0.0140919,10,9.99925e-05,-3.24615,-0.457536,-0.128952,-2.84351,0.176244,
2,1,0,1,0,32599.9,0.178084,0.177802,0.56147,17,0.014179,10,9.98303e-05,-3.25067,-0.510333,-0.115611,-2.54176,0.177802,
2,1,0,1,0,32600.1,0.179582,0.179244,0.556673,17,0.0142655,10,9.97802e-05,-3.2544,-0.567673,-0.103933,-2.26926,0.179244,
2,1,0,1,0,32600.2,0.181081,0.18078,0.556001,17,0.0143516,10,0.000100514,-3.25492,-0.667473,-0.088393,-1.91988,0.18078,
2,1,0,1,0,32600.4,0.182579,0.182236,0.553281,17,0.0144374,10,0.000100828,-3.25705,-0.494514,-0.119309,-2.5707,0.1822364,
2,1,0,1,0,32600.5,0.184077,0.183775,0.549886,17,0.0145226,10,0.000101055,-3.25973,-0.646173,-0.0913068,-1.96706,0.183775,
2,1,0,1,0,32600.7,0.185576,0.185248,0.547985,17,0.0146072,10,0.000101513,-3.26123,-0.902655,-0.0653627,-1.39622,0.185248,
2,1,0,1,0,32600.8,0.187074,0.186785,0.545143,17,0.0146916,10,0.000101824,-3.26349,-1.29592,-0.0455274,-0.967702,0.186785,
2,1,0,1,0,32601,0.188571,0.18824,0.544342,17,0.0147757,10,0.000102467,-3.26413,-1.58184,-0.0372984,-0.789473,0.18824,
2,1,0,1,0,32601.1,0.19007,0.189747,0.542695,17,0.0148597,10,0.000102975,-3.26544,-1.30533,-0.0451991,-0.955597,0.189747,
2,1,0,1,0,32601.3,0.191568,0.191219,0.53935,17,0.0149431,10,0.000103134,-3.26813,-1.12025,-0.0526667,-1.10951,0.191219,
2,1,0,1,0,32601.4,0.193066,0.192723,0.537271,17,0.0150263,10,0.000103544,-3.26981,-2.5026,-0.0235755,-0.494098,0.192723,
2,1,0,1,0,32601.6,0.194564,0.194249,0.536632,17,0.0151094,10,0.00010424,-3.27032,-1.19446,-0.0493946,-1.03455,0.194249,
2,1,0,1,0,32601.7,0.196063,0.195757,0.533243,17,0.0151921,10,0.000104386,-3.27308,-0.632144,-0.0933332,-1.94997,0.195757,
2,1,0,1,0,32601.9,0.197561,0.197239,0.531511,17,0.0152746,10,0.000104835,-3.27449,-2.08499,-0.0282975,-0.587148,0.197239,
2,1,0,1,0,32602,0.199059,0.198708,0.531511,17,0.0153567,10,0.000105615,-3.27449,-2.58771,-0.0228001,-0.473501,0.198708,
2,1,0,1,0,32602.2,0.200557,0.200237,0.531299,17,0.0154389,10,0.000106386,-3.27466,-1.58334,-0.0372629,-0.771361,0.200237,
2,1,0,1,0,32602.3,0.202056,0.201748,0.529335,17,0.0155209,10,0.000106793,-3.27627,-1.0911,-0.0540739,-1.11391,0.201748,
2,1,0,1,0,32602.5,0.203553,0.203225,0.526199,17,0.0156026,10,0.000106937,-3.27885,-0.93928,-0.062814,-1.29527,0.2032249,
2,1,0,1,0,32602.6,0.205051,0.204723,0.525201,17,0.0156839,10,0.00010752,-3.27967,2.3471,0.0251374,0.520453,0.204723,
2,1,0,1,0,32602.8,0.20655,0.206251,0.525454,17,0.0157653,10,0.000108376,-3.27947,-1.34653,-0.0438163,-0.899056,0.2062514,
2,1,0,1,0,32602.9,0.208048,0.207704,0.523634,17,0.0158469,10,0.000108761,-3.28097,-1.26265,-0.046727,-0.954989,0.207704,
2,1,0,1,0,32603.1,0.209546,0.209248,0.522692,17,0.015928,10,0.000109372,-3.28175,-0.94845,-0.0622067,-1.27019,0.209248,
2,1,0,1,0,32603.2,0.211044,0.210724,0.521458,17,0.0160087,10,0.000109884,-3.28278,-0.92262,-0.0639483,-1.30387,0.210724,
2,1,0,1,0,32603.4,0.212543,0.212211,0.522177,17,0.0160894,10,0.000110812,-3.28218,-4.23817,-0.0139211,-0.282643,0.212211,
2,1,0,1,0,32603.5,0.214041,0.213689,0.52021,17,0.0161701,10,0.000111163,-3.28382,-1.56399,-0.037724,-0.766721,0.213689,
2,1,0,1,0,32603.7,0.215539,0.215214,0.519848,17,0.0162505,10,0.000111878,-3.28412,-1.23301,-0.0478506,-0.969913,0.215214,
2,1,0,1,0,32603.8,0.217038,0.216698,0.517531,17,0.0163307,10,0.000112148,-3.28606,-2.6933,-0.0219062,-0.443066,0.216698,
2,1,0,1,0,32604,0.218535,0.218171,0.516726,17,0.0164109,10,0.000112735,-3.28674,1.77221,0.0332918,0.670693,0.218171,
2,1,0,1,0,32604.1,0.220033,0.219723,0.517135,17,0.0164909,10,0.000113627,-3.2864,-1.51531,-0.038936,-0.785255,0.219723,
2,1,0,1,0,32604.3,0.221532,0.221224,0.51498,17,0.0165709,10,0.000113926,-3.28821,-2.01048,-0.0293463,-0.590778,0.221224,
2,1,0,1,0,32604.4,0.22303,0.222705,0.512601,17,0.0166506,10,0.000114159,-3.29022,-2.48914,-0.023703,-0.475496,0.222705,
2,1,0,1,0,32604.6,0.224528,0.22423,0.514733,17,0.0167301,10,0.000115418,-3.28842,-40.3047,-0.00146385,-0.0293171,0.22423,
2,1,0,1,0,32604.7,0.226026,0.225711,0.512483,17,0.0168096,10,0.000115673,-3.29032,-1.70469,-0.0346103,-0.692005,0.225711,
2,1,0,1,0,32604.9,0.227525,0.227242,0.511276,17,0.0168891,10,0.000116183,-3.29134,-0.841983,-0.0700727,-1.39875,0.227242,
2,1,0,1,0,32605,0.229023,0.228721,0.509924,17,0.0169682,10,0.000116631,-3.29249,-2.98017,-0.0197975,-0.395163,0.228721,
2,1,0,1,0,32605.2,0.230521,0.230186,0.510243,17,0.0170471,10,0.000117451,-3.29222,-1.38012,-0.04275,-0.853793,0.230186,
2,1,0,1,0,32605.3,0.232019,0.231691,0.510066,17,0.017126,10,0.000118177,-3.29237,-2.37656,-0.0248258,-0.493519,0.231691,
2,1,0,1,0,32605.5,0.233518,0.233166,0.510152,17,0.017205,10,0.00011895,-3.2923,-1.40674,-0.041941,-0.83128,0.233166,
2,1,0,1,0,32605.6,0.235015,0.234715,0.508165,17,0.0172837,10,0.000119274,-3.294,-1.71243,-0.0344541,-0.682754,0.234715,
2,1,0,1,0,32605.8,0.236513,0.236177,0.507399,17,0.0173622,10,0.000119836,-3.29465,-4.80755,-0.0122724,-0.242917,0.236177,
2,1,0,1,0,32605.9,0.238012,0.237703,0.506806,17,0.0174407,10,0.000120469,-3.29516,-11.9738,-0.0049274,-0.0970515,0.237703,
2,1,0,1,0,32606.1,0.23951,0.239195,0.505207,17,0.0175191,10,0.000120843,-3.29653,-10.038,-0.00587764,-0.116045,0.239195,
2,1,0,1,0,32606.2,0.241008,0.240741,0.505022,17,0.0175973,10,0.00012158,-3.29669,-1.28477,-0.0459224,-0.906214,0.240741,
2,1,0,1,0,32606.4,0.242506,0.242206,0.503128,17,0.0176755,10,0.00012186,-3.29832,-2.24101,-0.0263274,-0.518651,0.242206,
2,1,0,1,0,32606.5,0.244005,0.243639,0.502551,17,0.0177534,10,0.000122441,-3.29882,-3.58959,-0.0164364,-0.322668,0.243639,
2,1,0,1,0,32606.7,0.245503,0.24518,0.504209,17,0.0178315,10,0.000123622,-3.29739,-1.40977,-0.0418507,-0.822213,0.24518,
2,1,0,1,0,32606.8,0.247001,0.246717,0.501783,17,0.0179094,10,0.000123798,-3.29948,-1.07087,-0.0550955,-1.07529,0.2467165,
2,1,0,1,0,32606.9,0.2485,0.248194,0.500292,17,0.0179871,10,0.00012417,-3.30078,-1.42979,-0.0412649,-0.80731,0.248194,
2,1,0,1,0,32607.1,0.249997,0.249701,0.499887,17,0.0180646,10,0.000124822,-3.30113,-1.20506,-0.0489603,-0.955646,0.249701,
2,1,0,1,0,32607.2,0.251495,0.25118,0.499882,17,0.018142,10,0.000125561,-3.30113,-2.49943,-0.0236054,-0.46089,0.25118,
2,1,0,1,0,32607.4,0.252994,0.252708,0.497911,17,0.0182195,10,0.000125826,-3.30285,-1.024,-0.057617,-1.11945,0.252708,
2,1,0,1,0,32607.5,0.254492,0.254174,0.498408,17,0.0182968,10,0.000126683,-3.30241,-2.74881,-0.0214638,-0.417678,0.254174,
2,1,0,1,0,32607.7,0.25599,0.255687,0.496114,17,0.0183737,10,0.00012685,-3.30442,-4.17538,-0.0141305,-0.274448,0.255687,
2,1,0,1,0,32607.8,0.257488,0.257169,0.496945,17,0.0184507,10,0.000127799,-3.30369,-2.5291,-0.0233285,-0.451754,0.257169,
2,1,0,1,0,32608,0.258987,0.258716,0.49645,17,0.0185277,10,0.00012844,-3.30412,-1.92971,-0.0305745,-0.589937,0.258716,
2,1,0,1,0,32608.1,0.260485,0.260146,0.495888,17,0.0186045,10,0.000129003,-3.30462,-2.36213,-0.0249775,-0.483385,0.260146,
2,1,0,1,0,32608.3,0.261983,0.261682,0.493885,17,0.0186811,10,0.000129241,-3.30637,-2.36755,-0.0249203,-0.480334,0.261682,
2,1,0,1,0,32608.4,0.263481,0.263169,0.495918,17,0.0187576,10,0.00013051,-3.30459,12.3092,0.00479315,0.0924246,0.263169,
2,1,0,1,0,32608.6,0.26498,0.264675,0.491613,17,0.0188342,10,0.000130118,-3.30838,-2.71392,-0.0217398,-0.418259,0.264675,
2,1,0,1,0,32608.7,0.266477,0.266167,0.491456,17,0.0189105,10,0.000130809,-3.30852,-1.8694,-0.0315609,-0.606632,0.266167,
2,1,0,1,0,32608.9,0.267976,0.267646,0.488344,17,0.0189867,10,0.000130703,-3.31127,-1.53549,-0.0384243,-0.735869,0.267646,
2,1,0,1,0,32609,0.269474,0.269134,0.490478,17,0.0190627,10,0.000132004,-3.30938,-12.5681,-0.00469442,-0.0896713,0.269134,
2,1,0,1,0,32609.2,0.270972,0.270645,0.491656,17,0.0191387,10,0.000133064,-3.30834,-1.32997,-0.044362,-0.847186,0.270645,
2,1,0,1,0,32609.3,0.27247,0.272115,0.490411,17,0.0192146,10,0.000133448,-3.30944,-0.875273,-0.0674076,-1.28497,0.272115,
2,1,0,1,0,32609.5,0.273968,0.273625,0.486783,17,0.0192903,10,0.000133196,-3.31266,-2.99069,-0.0197279,-0.375273,0.2736254,
2,1,0,1,0,32609.6,0.275467,0.275149,0.486506,17,0.0193657,10,0.000133862,-3.31291,-1.81917,-0.0324324,-0.617077,0.2751492,
2,1,0,1,0,32609.8,0.276965,0.276661,0.485037,17,0.0194412,10,0.000134191,-3.31423,-3.18111,-0.018547,-0.351785,0.276661,
2,1,0,1,0,32609.9,0.278463,0.278127,0.485696,17,0.0195165,10,0.000135085,-3.31364,-0.713417,-0.0827006,-1.56644,0.278127,
2,1,0,1,0,32610.1,0.279962,0.279643,0.483157,17,0.0195918,10,0.000135112,-3.31591,-2.5226,-0.0233885,-0.442388,0.279643,
2,1,0,1,0,32610.2,0.281459,0.28115,0.484762,17,0.0196667,10,0.000136291,-3.31447,-3.16081,-0.0186661,-0.353333,0.28115,
2,1,0,1,0,32610.4,0.282957,0.282694,0.482811,17,0.0197416,10,0.000136488,-3.31622,-8.23427,-0.00716518,-0.134853,0.282694,
2,1,0,1,0,32610.5,0.284456,0.284131,0.483055,17,0.0198165,10,0.000137251,-3.316,-4.79435,-0.0123062,-0.231686,0.284131,
2,1,0,1,0,32610.7,0.285954,0.285643,0.481282,17,0.0198912,10,0.000137475,-3.3176,-2.21593,-0.0266254,-0.499275,0.285643,
2,1,0,1,0,32610.8,0.287452,0.287137,0.480058,17,0.0199657,10,0.000137842,-3.31871,-1.56923,-0.0375981,-0.705414,0.287137,
2,1,0,1,0,32611,0.28895,0.288664,0.478809,17,0.02004,10,0.000138215,-3.31984,5.54237,0.0106453,0.198711,0.288664,
2,1,0,1,0,32611.1,0.290449,0.290145,0.478803,17,0.0201143,10,0.000138923,-3.31984,-3.28871,-0.0179401,-0.33511,0.290145,
2,1,0,1,0,32611.3,0.291947,0.291618,0.477431,17,0.0201885,10,0.000139228,-3.32109,-2.08563,-0.0282889,-0.52735,0.291618,
2,1,0,1,0,32611.4,0.293445,0.293154,0.475225,17,0.0202625,10,0.000139314,-3.3231,-2.22428,-0.0265255,-0.493468,0.293154,
2,1,0,1,0,32611.6,0.294943,0.294613,0.476484,17,0.0203364,10,0.000140378,-3.32195,-1.99504,-0.0295733,-0.549503,0.294613,
2,1,0,1,0,32611.7,0.296442,0.296157,0.477377,17,0.0204103,10,0.000141379,-3.32114,-1.50335,-0.0392458,-0.727322,0.296157,
2,1,0,1,0,32611.9,0.297939,0.297652,0.473414,17,0.0204841,10,0.000140913,-3.32476,-1.38831,-0.0424977,-0.786874,0.297652,
2,1,0,1,0,32612,0.299437,0.299149,0.471735,17,0.0205576,10,0.000141119,-3.3263,-0.00234467,-25.1635,-215.646,0.299149,
2,1,0,1,0,32612.1,0.299738,0.299423,0.230294,17,0.0205925,10,6.89554e-05,-3.63772,0.000823476,71.6475,411.213,0.299423,
2,1,0,1,0,32612.3,0.29824,0.297955,-0.000354098,17,0.0206005,10,-1.05505e-07,-6.45088,0.0038775,15.216,137.985,0.297955,
2,0,0,1,0,32612.4,0.296741,0.296432,-0.0376283,17,0.0205948,10,-1.11542e-05,-4.42449,-0.0100238,-5.88598,22.8273,0.296432,
2,0,0,1,0,32612.6,0.295243,0.294943,-0.0615148,17,0.0205846,10,-1.81433e-05,-4.21102,-0.0086836,-6.79442,13.0383,0.294943,
2,0,0,1,0,32612.7,0.293745,0.293355,-0.0777778,17,0.0205717,10,-2.28165e-05,-4.10914,-0.0164644,-3.58348,9.99905,0.293355,
2,0,0,1,0,32612.9,0.292246,0.291915,-0.0902069,17,0.0205567,10,-2.63328e-05,-4.04476,-0.0238059,-2.47837,8.4771,0.291915,
2,0,0,1,0,32613,0.290748,0.290384,-0.102353,17,0.0205396,10,-2.97218e-05,-3.9899,-0.0288309,-2.04641,7.94905,0.290384,
2,0,0,1,0,32613.2,0.28925,0.288947,-0.113596,17,0.0205208,10,-3.28232e-05,-3.94464,-0.038895,-1.5169,6.67927,0.288947,
2,0,0,1,0,32613.3,0.287752,0.28742,-0.122474,17,0.0205005,10,-3.52014e-05,-3.91196,-0.0503781,-1.17114,5.53923,0.28742,
2,0,0,1,0,32613.5,0.286253,0.285909,-0.131356,17,0.0204789,10,-3.7556e-05,-3.88155,-0.0585033,-1.00849,5.1673,0.285909,
2,0,0,1,0,32613.6,0.284755,0.284427,-0.138861,17,0.0204561,10,-3.94957e-05,-3.85742,-0.055863,-1.05616,5.68437,0.284427,
2,0,0,1,0,32613.8,0.283258,0.282945,-0.148405,17,0.020432,10,-4.19905e-05,-3.82855,-0.0679216,-0.868649,4.97009,0.282945,
2,0,0,1,0,32613.9,0.281759,0.281412,-0.153816,17,0.0204069,10,-4.32857e-05,-3.813,-0.0834823,-0.706736,4.20984,0.281412,
2,0,0,1,0,32614.1,0.280261,0.27994,-0.158728,17,0.0203808,10,-4.44342e-05,-3.79935,-0.0858693,-0.687091,4.28464,0.27994,
2,0,0,1,0,32614.2,0.278763,0.278488,-0.165309,17,0.0203537,10,-4.60366e-05,-3.7817,-0.0995046,-0.592937,3.83083,0.2784884,
2,0,0,1,0,32614.4,0.277264,0.276904,-0.173044,17,0.0203257,10,-4.79167e-05,-3.76184,-0.104191,-0.566266,3.80856,0.276904,
2,0,0,1,0,32614.5,0.275766,0.275429,-0.177867,17,0.0202968,10,-4.89899e-05,-3.7499,-0.13854,-0.42587,2.93468,0.275429,
2,0,0,1,0,32614.7,0.274268,0.273924,-0.183044,17,0.020267,10,-5.01402e-05,-3.73744,-0.11652,-0.506349,3.65473,0.273924,
2,0,0,1,0,32614.8,0.27277,0.272435,-0.190146,17,0.0202366,10,-5.18024e-05,-3.72091,-0.118102,-0.499568,3.71475,0.272435,
2,0,0,1,0,32615,0.271272,0.270983,-0.195229,17,0.0202053,10,-5.29037e-05,-3.70946,-0.115621,-0.510287,3.86765,0.270983,
2,0,0,1,0,32615.1,0.269773,0.269476,-0.20044,17,0.0201729,10,-5.4014e-05,-3.69801,-0.135761,-0.434588,3.36497,0.269476,
2,0,0,1,0,32615.3,0.268275,0.267948,-0.204046,17,0.0201401,10,-5.46737e-05,-3.69027,-0.169572,-0.347935,2.78269,0.267948,
2,0,0,1,0,32615.4,0.266778,0.266437,-0.209501,17,0.0201066,10,-5.58187e-05,-3.67881,-0.139286,-0.423588,3.46085,0.266437,
2,0,0,1,0,32615.6,0.265279,0.264931,-0.213179,17,0.0200723,10,-5.64777e-05,-3.67126,-0.127982,-0.461002,3.82089,0.264931,
2,0,0,1,0,32615.7,0.263781,0.263482,-0.218526,17,0.0200373,10,-5.75777e-05,-3.6605,-0.189926,-0.310647,2.64389,0.263482,
2,0,0,1,0,32615.9,0.262283,0.261921,-0.222207,17,0.0200017,10,-5.82006e-05,-3.65324,-0.189468,-0.311398,2.70107,0.261921,
2,0,0,1,0,32616,0.260784,0.26046,-0.224557,17,0.0199656,10,-5.84882e-05,-3.64867,-0.185623,-0.317849,2.81526,0.26046,
2,0,0,1,0,32616.2,0.259286,0.259003,-0.231854,17,0.0199288,10,-6.00509e-05,-3.63479,-0.168391,-0.350375,3.14823,0.259003,
2,0,0,1,0,32616.3,0.257788,0.257463,-0.237177,17,0.0198914,10,-6.10643e-05,-3.62493,-0.242871,-0.242927,2.22098,0.257463,
2,0,0,1,0,32616.5,0.25629,0.255966,-0.23799,17,0.0198533,10,-6.09175e-05,-3.62344,-0.250254,-0.23576,2.18478,0.255966,
2,0,0,1,0,32616.6,0.254791,0.254444,-0.241737,17,0.0198147,10,-6.15085e-05,-3.61666,-0.229875,-0.256661,2.42385,0.254444,
2,0,0,1,0,32616.8,0.253293,0.252952,-0.244791,17,0.0197757,10,-6.19204e-05,-3.6112,-0.202303,-0.291641,2.79741,0.252952,
2,0,0,1,0,32616.9,0.251796,0.251473,-0.248379,17,0.019736,10,-6.24605e-05,-3.60489,-0.236118,-0.249875,2.42587,0.2514728,
2,0,0,1,0,32617.1,0.250297,0.249967,-0.252142,17,0.0196957,10,-6.30271e-05,-3.59836,-0.324434,-0.181855,1.78637,0.249967,
2,0,0,1,0,32617.2,0.248799,0.24849,-0.255961,17,0.019655,10,-6.36036e-05,-3.59183,-0.278064,-0.212182,2.12134,0.24849,
2,0,0,1,0,32617.4,0.247301,0.246959,-0.258794,17,0.0196139,10,-6.39115e-05,-3.58705,-0.275342,-0.214279,2.16618,0.246959,
2,0,0,1,0,32617.5,0.245802,0.245509,-0.263935,17,0.0195721,10,-6.47983e-05,-3.5785,-0.250839,-0.23521,2.41116,0.245509,
2,0,0,1,0,32617.7,0.244304,0.243955,-0.267186,17,0.0195297,10,-6.51814e-05,-3.57319,-0.244785,-0.241028,2.50218,0.243955,
2,0,0,1,0,32617.8,0.242806,0.242453,-0.271258,17,0.0194869,10,-6.57672e-05,-3.56662,-0.31404,-0.187874,1.98575,0.242453,
2,0,0,1,0,32618,0.241308,0.241005,-0.271912,17,0.0194438,10,-6.55322e-05,-3.56557,-0.321537,-0.183494,1.95566,0.241005,
2,0,0,1,0,32618.1,0.23981,0.239524,-0.275401,17,0.0194001,10,-6.59651e-05,-3.56003,-0.21479,-0.274687,2.95371,0.239524,
2,0,0,1,0,32618.3,0.238311,0.238036,-0.278676,17,0.0193559,10,-6.63349e-05,-3.5549,-0.283015,-0.20847,2.28129,0.238036,
2,0,0,1,0,32618.4,0.236814,0.236488,-0.281966,17,0.0193112,10,-6.66817e-05,-3.5498,-0.358881,-0.1644,1.81687,0.236488,
2,0,0,1,0,32618.6,0.235316,0.234995,-0.283433,17,0.0192661,10,-6.66052e-05,-3.54755,-0.302824,-0.194832,2.16519,0.234995,
2,0,0,1,0,32618.7,0.233817,0.233538,-0.290268,17,0.0192206,10,-6.77886e-05,-3.5372,-0.302103,-0.195298,2.20148,0.233538,
2,0,0,1,0,32618.9,0.232319,0.231966,-0.291676,17,0.0191745,10,-6.7659e-05,-3.5351,-0.314098,-0.18784,2.13173,0.231966,
2,0,0,1,0,32619,0.230821,0.230459,-0.295,17,0.0191279,10,-6.79856e-05,-3.53018,-0.517313,-0.114051,1.30313,0.230459,
2,0,0,1,0,32619.2,0.229322,0.22899,-0.295472,17,0.019081,10,-6.76599e-05,-3.52948,-0.3547,-0.166338,1.92978,0.22899,
2,0,0,1,0,32619.3,0.227824,0.22754,-0.299364,17,0.0190337,10,-6.81174e-05,-3.5238,-0.304466,-0.193782,2.28,0.22754,
2,0,0,1,0,32619.5,0.226326,0.225995,-0.301894,17,0.0189859,10,-6.82265e-05,-3.52015,-0.460013,-0.128257,1.51218,0.225995,
2,0,0,1,0,32619.6,0.224828,0.224453,-0.305889,17,0.0189375,10,-6.86579e-05,-3.51444,-0.684742,-0.0861639,1.02856,0.2244533,
2,0,0,1,0,32619.8,0.223329,0.222962,-0.309071,17,0.0188889,10,-6.89112e-05,-3.50994,-0.325229,-0.181411,2.18428,0.222962,
2,0,0,1,0,32619.9,0.221831,0.221541,-0.31337,17,0.0188398,10,-6.94244e-05,-3.50394,-0.335067,-0.176084,2.14689,0.2215414,
2,0,0,1,0,32620.1,0.220334,0.220037,-0.314406,17,0.0187902,10,-6.9181e-05,-3.50251,-0.298154,-0.197884,2.42319,0.2200373,
2,0,0,1,0,32620.2,0.218835,0.218494,-0.318481,17,0.01874,10,-6.9586e-05,-3.49692,-0.463557,-0.127277,1.58121,0.2184938,
2,0,0,1,0,32620.4,0.217337,0.217038,-0.320889,17,0.0186894,10,-6.96451e-05,-3.49364,-0.543555,-0.108545,1.3613,0.217038,
2,0,0,1,0,32620.5,0.215839,0.215511,-0.322203,17,0.0186386,10,-6.94382e-05,-3.49187,-0.461971,-0.127714,1.61863,0.215511,
2,0,0,1,0,32620.7,0.21434,0.214021,-0.326042,17,0.0185872,10,-6.97799e-05,-3.48673,-0.28821,-0.204712,2.59686,0.214021,
2,0,0,1,0,32620.8,0.212842,0.212511,-0.332341,17,0.0185353,10,-7.06261e-05,-3.47842,-0.377001,-0.156498,2.01333,0.212511,
2,0,0,1,0,32621,0.211344,0.211027,-0.33093,17,0.018483,10,-6.98354e-05,-3.48026,-0.363053,-0.162511,2.10665,0.211027,
2,0,0,1,0,32621.1,0.209846,0.209519,-0.333124,17,0.0184303,10,-6.97956e-05,-3.47739,-0.42163,-0.139933,1.83284,0.209519,
2,0,0,1,0,32621.3,0.208348,0.208036,-0.338333,17,0.0183771,10,-7.03855e-05,-3.47066,-0.322795,-0.182779,2.415,0.208036,
2,0,0,1,0,32621.4,0.206849,0.206541,-0.34668,17,0.0183233,10,-7.16036e-05,-3.46007,-0.329971,-0.178804,2.38619,0.206541,
2,0,0,1,0,32621.6,0.205352,0.205029,-0.345077,17,0.0182689,10,-7.07507e-05,-3.46208,-0.544945,-0.108268,1.45136,0.205029,
2,0,0,1,0,32621.7,0.203854,0.203522,-0.348258,17,0.0182144,10,-7.08779e-05,-3.4581,-0.372275,-0.158485,2.15884,0.203522,
2,0,0,1,0,32621.9,0.202355,0.202018,-0.350662,17,0.0181594,10,-7.08401e-05,-3.45511,-0.335307,-0.175958,2.40923,0.202018,
2,0,0,1,0,32622,0.200857,0.200552,-0.354048,17,0.0181038,10,-7.1005e-05,-3.45094,-0.343543,-0.17174,2.37852,0.200552,
2,0,0,1,0,32622.2,0.199359,0.199024,-0.357243,17,0.0180478,10,-7.10999e-05,-3.44704,-0.429967,-0.13722,1.90573,0.199024,
2,0,0,1,0,32622.3,0.19786,0.197532,-0.360144,17,0.0179913,10,-7.11398e-05,-3.44352,-0.415756,-0.14191,1.99901,0.197532,
2,0,0,1,0,32622.5,0.196362,0.196043,-0.363992,17,0.0179345,10,-7.13581e-05,-3.43891,-0.394251,-0.149651,2.12301,0.196043,
2,0,0,1,0,32622.6,0.194864,0.194518,-0.36737,17,0.0178771,10,-7.146e-05,-3.4349,-0.294653,-0.200236,2.86413,0.194518,
2,0,0,1,0,32622.8,0.193366,0.19301,-0.373539,17,0.0178189,10,-7.20967e-05,-3.42766,-0.429563,-0.137349,1.99244,0.19301,
2,0,0,1,0,32622.9,0.191867,0.191525,-0.374468,17,0.0177603,10,-7.17202e-05,-3.42658,-0.393635,-0.149885,2.19593,0.191525,
2,0,0,1,0,32623.1,0.190369,0.190007,-0.37832,17,0.0177014,10,-7.18832e-05,-3.42214,-0.309419,-0.19068,2.81419,0.190007,
2,0,0,1,0,32623.2,0.188872,0.188515,-0.381882,17,0.0176418,10,-7.19904e-05,-3.41807,-0.247913,-0.237987,3.54377,0.188515,
2,0,0,1,0,32623.4,0.187373,0.18705,-0.385052,17,0.0175817,10,-7.20238e-05,-3.41448,-0.298468,-0.197676,2.98263,0.18705,
2,0,0,1,0,32623.5,0.185875,0.185531,-0.389704,17,0.017521,10,-7.23023e-05,-3.40926,-0.387734,-0.152166,2.30941,0.185531,
2,0,0,1,0,32623.7,0.184377,0.184052,-0.391645,17,0.0174596,10,-7.20829e-05,-3.40711,-0.313021,-0.188486,2.88945,0.1840518,
2,0,0,1,0,32623.8,0.182878,0.182563,-0.397237,17,0.0173978,10,-7.25207e-05,-3.40095,-0.343445,-0.171789,2.67213,0.182563,
2,0,0,1,0,32624,0.18138,0.181041,-0.403252,17,0.0173353,10,-7.30053e-05,-3.39442,-0.31212,-0.18903,2.97109,0.1810413,
2,0,0,1,0,32624.1,0.179882,0.17955,-0.40595,17,0.0172721,10,-7.28884e-05,-3.39153,-0.52912,-0.111506,1.76621,0.17955,
2,0,0,1,0,32624.3,0.178384,0.178055,-0.409648,17,0.0172082,10,-7.294e-05,-3.38759,-0.349597,-0.168766,2.70864,0.178055,
2,0,0,1,0,32624.4,0.176886,0.176565,-0.416309,17,0.0171439,10,-7.35057e-05,-3.38058,-0.291689,-0.20227,3.28304,0.176565,
2,0,0,1,0,32624.6,0.175387,0.175075,-0.421447,17,0.0170786,10,-7.37847e-05,-3.37526,-0.2622,-0.225019,3.69576,0.175075,
2,0,0,1,0,32624.7,0.17389,0.173579,-0.426206,17,0.0170125,10,-7.39806e-05,-3.37038,-0.278572,-0.211794,3.51272,0.173579,
2,0,0,1,0,32624.9,0.172392,0.172024,-0.430948,17,0.0169457,10,-7.41333e-05,-3.36557,-0.239467,-0.24638,4.14462,0.172024,
2,0,0,1,0,32625,0.170893,0.170567,-0.436865,17,0.0168781,10,-7.45146e-05,-3.35965,-0.23927,-0.246583,4.19674,0.1705666,
2,0,0,1,0,32625.2,0.169395,0.169038,-0.443534,17,0.0168095,10,-7.4974e-05,-3.35307,-0.220459,-0.267624,4.61348,0.169038,
2,0,0,1,0,32625.3,0.167897,0.16754,-0.448729,17,0.0167398,10,-7.51801e-05,-3.34802,-0.207197,-0.284753,4.9992,0.16754,
2,0,0,1,0,32625.5,0.166398,0.166062,-0.457295,17,0.016669,10,-7.59392e-05,-3.3398,-0.231956,-0.254358,4.5399,0.166062,
2,0,0,1,0,32625.6,0.1649,0.164563,-0.459709,17,0.0165975,10,-7.56509e-05,-3.33752,-0.214568,-0.274971,4.99524,0.164563,
2,0,0,1,0,32625.8,0.163402,0.163115,-0.472041,17,0.0165246,10,-7.6997e-05,-3.32602,-0.171214,-0.344599,6.35463,0.163115,
2,0,0,1,0,32625.9,0.161904,0.161551,-0.480377,17,0.0164505,10,-7.76054e-05,-3.31842,-0.168702,-0.349728,6.5746,0.161551,
2,0,0,1,0,32626.1,0.160405,0.160084,-0.491648,17,0.0163747,10,-7.87048e-05,-3.30835,-0.184141,-0.320407,6.14284,0.160084,
2,0,0,1,0,32626.2,0.158907,0.158561,-0.499941,17,0.0162977,10,-7.92711e-05,-3.30108,-0.154331,-0.382295,7.47873,0.158561,
2,0,0,1,0,32626.4,0.15741,0.157079,-0.512811,17,0.0162192,10,-8.05518e-05,-3.29004,-0.134218,-0.439585,8.81515,0.157079,
2,0,0,1,0,32626.5,0.155911,0.155567,-0.525303,17,0.0161386,10,-8.17199e-05,-3.27959,-0.132341,-0.44582,9.16996,0.155567,
2,0,0,1,0,32626.7,0.154413,0.154067,-0.539016,17,0.0160559,10,-8.30444e-05,-3.2684,-0.139798,-0.422038,8.90188,0.1540667,
2,0,0,1,0,32626.8,0.152915,0.152564,-0.553957,17,0.0159711,10,-8.45139e-05,-3.25652,-0.126657,-0.465825,10.1152,0.152564,
2,0,0,1,0,32627,0.151417,0.15112,-0.571459,17,0.015884,10,-8.63588e-05,-3.24301,-0.108388,-0.544339,12.1799,0.15112,
2,0,0,1,0,32627.1,0.149918,0.149658,-0.592378,17,0.0157941,10,-8.86538e-05,-3.2274,-0.099299,-0.594165,13.7088,0.149658,
2,0,0,1,0,32627.3,0.14842,0.148085,-0.61344,17,0.0157011,10,-9.08413e-05,-3.21223,-0.0943116,-0.625586,14.9938,0.148085,
2,0,0,1,0,32627.4,0.146922,0.146552,-0.638782,17,0.0156047,10,-9.36144e-05,-3.19465,-0.0887898,-0.664491,16.5589,0.146552,
2,0,0,1,0,32627.6,0.145424,0.145098,-0.661794,17,0.0155048,10,-9.60247e-05,-3.17928,-0.084697,-0.696601,18.0633,0.145098,
2,0,0,1,0,32627.7,0.143925,0.143583,-0.690292,17,0.0154005,10,-9.91139e-05,-3.16097,-0.0734698,-0.803051,21.7048,0.143583,
2,0,0,1,0,32627.9,0.142428,0.142118,-0.724925,17,0.0152915,10,-0.000103025,-3.13971,-0.0769675,-0.766558,21.7082,0.142118,
2,0,0,1,0,32628,0.14093,0.140619,-0.758018,17,0.0151777,10,-0.000106592,-3.12032,-0.078414,-0.752417,22.2757,0.140619,
2,0,0,1,0,32628.2,0.139431,0.139128,-0.789851,17,0.0150588,10,-0.00010989,-3.10245,-0.0751116,-0.785498,24.3183,0.139128,
2,0,0,1,0,32628.3,0.137933,0.137611,-0.828245,17,0.0149346,10,-0.000113976,-3.08184,-0.0755211,-0.781238,25.2746,0.1376113,
2,0,0,1,0,32628.5,0.136435,0.136084,-0.869243,17,0.0148045,10,-0.00011829,-3.06086,-0.0804018,-0.733814,24.7657,0.136084,
2,0,0,1,0,32628.6,0.134936,0.134614,-0.905282,17,0.0146688,10,-0.000121863,-3.04322,-0.0873095,-0.675757,23.7984,0.134614,
2,0,0,1,0,32628.8,0.133438,0.13311,-0.941227,17,0.0145275,10,-0.000125287,-3.02631,-0.0883967,-0.667445,24.5634,0.13311,
2,0,0,1,0,32628.9,0.13194,0.131628,-0.979191,17,0.0143809,10,-0.000128889,-3.00913,-0.0935159,-0.630908,24.1039,0.131628,
2,0,0,1,0,32629.1,0.130442,0.130095,-1.01556,17,0.0142288,10,-0.00013212,-2.99329,-0.102637,-0.574839,22.726,0.130095,
2,0,0,1,0,32629.2,0.128943,0.128602,-1.04724,17,0.0140712,10,-0.000134677,-2.97995,-0.115454,-0.511025,20.7738,0.128602,
2,0,0,1,0,32629.4,0.127445,0.127123,-1.07827,17,0.013909,10,-0.000137073,-2.96727,-0.125843,-0.468838,19.678,0.127123,
2,0,0,1,0,32629.5,0.125948,0.125578,-1.10412,17,0.0137428,10,-0.000138653,-2.95699,-0.141373,-0.417336,17.9593,0.125578,
2,0,0,1,0,32629.7,0.124449,0.124102,-1.13071,17,0.0135724,10,-0.000140323,-2.94665,-0.16482,-0.357967,15.7377,0.124102,
2,0,0,1,0,32629.8,0.122951,0.122565,-1.15126,17,0.0133984,10,-0.000141104,-2.93883,-0.196825,-0.299759,13.4502,0.122565,
2,0,0,1,0,32630,0.121453,0.121115,-1.17067,17,0.0132215,10,-0.000141785,-2.93156,-0.251829,-0.234286,10.678,0.121115,
2,0,0,1,0,32630.1,0.119955,0.119591,-1.1823,17,0.0130422,10,-0.000141392,-2.92727,-0.298815,-0.197447,9.11201,0.119591,
2,0,0,1,0,32630.3,0.118456,0.11811,-1.19694,17,0.0128607,10,-0.000141371,-2.92193,-0.337232,-0.174954,8.16976,0.11811,
2,0,0,1,0,32630.4,0.116958,0.116642,-1.20954,17,0.0126775,10,-0.000141083,-2.91738,-0.590213,-0.0999639,4.69756,0.116642,
2,0,0,1,0,32630.6,0.11546,0.11516,-1.21327,17,0.012493,10,-0.000139721,-2.91604,-1.38204,-0.0426906,2.01701,0.11516,
2,0,0,1,0,32630.7,0.113962,0.113631,-1.21067,17,0.0123083,10,-0.00013757,-2.91697,-73.2847,-0.000805079,0.0381335,0.113631,
2,0,0,1,0,32630.9,0.112463,0.112134,-1.21574,17,0.0121234,10,-0.000136325,-2.91516,3.86589,0.0152617,-0.722884,0.112134,
2,0,0,1,0,32631,0.110966,0.110604,-1.21491,17,0.0119386,10,-0.000134374,-2.91545,2.02704,0.0291065,-1.37705,0.110604,
2,0,0,1,0,32631.2,0.109468,0.109132,-1.21128,17,0.0117541,10,-0.00013219,-2.91675,0.667813,0.0883481,-4.16282,0.109132,
2,0,0,1,0,32631.3,0.107969,0.107629,-1.20438,17,0.0115701,10,-0.000129626,-2.91924,0.752273,0.078429,-3.68711,0.107629,
2,0,0,1,0,32631.5,0.106471,0.106152,-1.19725,17,0.0113874,10,-0.00012709,-2.92182,0.677194,0.0871243,-4.07975,0.106152,
2,0,0,1,0,32631.6,0.104973,0.10465,-1.19163,17,0.0112053,10,-0.000124704,-2.92386,0.699574,0.0843371,-3.9208,0.10465,
2,0,0,1,0,32631.8,0.103474,0.10315,-1.18534,17,0.0110242,10,-0.000122268,-2.92616,0.467001,0.126338,-5.84219,0.1031502,
2,0,0,1,0,32631.9,0.101976,0.10168,-1.17788,17,0.0108443,10,-0.000119767,-2.9289,0.46493,0.126901,-5.82792,0.10168,
2,0,0,1,0,32632.1,0.100478,0.100133,-1.17057,17,0.010666,10,-0.000117213,-2.9316,0.496652,0.118795,-5.41771,0.100133,
2,0,0,1,0,32632.2,0.0989799,0.0986244,-1.16179,17,0.0104887,10,-0.000114581,-2.93487,0.577682,0.102132,-4.62245,0.0986244,
2,0,0,1,0,32632.4,0.0974808,0.0971525,-1.15345,17,0.0103124,10,-0.000112061,-2.938,0.522519,0.112915,-5.08081,0.0971525,
2,0,0,1,0,32632.5,0.0959833,0.0956808,-1.14479,17,0.0101375,10,-0.000109535,-2.94127,0.492369,0.119829,-5.35567,0.0956808,
2,0,0,1,0,32632.7,0.0944857,0.0941101,-1.13193,17,0.00996405,10,-0.000106526,-2.94618,0.509614,0.115774,-5.1372,0.0941101,
2,0,0,1,0,32632.8,0.0929871,0.0926734,-1.12642,17,0.00979166,10,-0.000104389,-2.9483,0.635029,0.0929091,-4.09297,0.0926734,
2,0,0,1,0,32633,0.0914889,0.0911549,-1.12348,17,0.00962038,10,-0.00010241,-2.94944,0.505938,0.116615,-5.10072,0.0911549,
2,0,0,1,0,32633.1,0.0899907,0.0896226,-1.11504,17,0.00945007,10,-9.99328e-05,-2.95271,0.42546,0.138673,-6.01713,0.0896226,
2,0,0,1,0,32633.3,0.0884925,0.0881889,-1.1028,17,0.00928115,10,-9.72544e-05,-2.9575,0.498797,0.118285,-5.10406,0.0881889,
2,0,0,1,0,32633.4,0.0869943,0.0866312,-1.09761,17,0.00911346,10,-9.50873e-05,-2.95955,0.510122,0.115659,-4.96262,0.0866312,
2,0,0,1,0,32633.6,0.0854962,0.0851954,-1.09085,17,0.00894673,10,-9.29354e-05,-2.96223,0.46561,0.126715,-5.39441,0.0851954,
2,0,0,1,0,32633.7,0.083998,0.0836992,-1.08425,17,0.00878091,10,-9.07512e-05,-2.96487,0.459737,0.128334,-5.42143,0.0836992,
2,0,0,1,0,32633.9,0.0824998,0.0821605,-1.07619,17,0.00861635,10,-8.84203e-05,-2.96811,0.510102,0.115663,-4.86556,0.0821605,
2,0,0,1,0,32634,0.0810011,0.0806755,-1.06882,17,0.00845303,10,-8.62278e-05,-2.97109,0.60245,0.0979334,-4.09131,0.0806755,
2,0,0,1,0,32634.2,0.0795036,0.0791981,-1.06281,17,0.00829055,10,-8.41728e-05,-2.97354,0.667523,0.0883865,-3.66432,0.07919807,
2,0,0,1,0,32634.3,0.0780061,0.0776675,-1.05605,17,0.00812891,10,-8.20204e-05,-2.97632,0.562331,0.10492,-4.32566,0.0776675,
2,0,0,1,0,32634.5,0.076507,0.0761713,-1.04982,17,0.00796824,10,-7.99664e-05,-2.97888,0.544021,0.108452,-4.43475,0.0761713,
2,0,0,1,0,32634.6,0.0750088,0.0746698,-1.04165,17,0.00780894,10,-7.77799e-05,-2.98228,0.538627,0.109538,-4.45366,0.0746698,
2,0,0,1,0,32634.8,0.0735106,0.0732064,-1.03469,17,0.0076506,10,-7.57463e-05,-2.98519,0.584654,0.100914,-4.07157,0.0732064,
2,0,0,1,0,32634.9,0.0720124,0.0716911,-1.02877,17,0.00749308,10,-7.37538e-05,-2.98768,0.549757,0.10732,-4.31339,0.0716911,
2,0,0,1,0,32635.1,0.0705142,0.0701822,-1.02288,17,0.00733654,10,-7.17879e-05,-2.99018,0.48989,0.120435,-4.80647,0.0701822,
2,0,0,1,0,32635.2,0.0690161,0.0687283,-1.01374,17,0.00718122,10,-6.96729e-05,-2.99407,0.542257,0.108804,-4.32135,0.0687283,
2,0,0,1,0,32635.4,0.0675179,0.0671791,-1.00992,17,0.00702676,10,-6.78456e-05,-2.99571,0.728047,0.0810387,-3.19202,0.0671791,
2,0,0,1,0,32635.5,0.0660188,0.0656925,-1.00949,17,0.00687293,10,-6.63161e-05,-2.9959,0.554013,0.106496,-4.16735,0.0656925,
2,0,0,1,0,32635.7,0.0645213,0.0642055,-0.997898,17,0.00672011,10,-6.40706e-05,-3.00091,0.505461,0.116725,-4.53415,0.0642055,
2,0,0,1,0,32635.8,0.0630237,0.0626823,-0.988537,17,0.00656844,10,-6.19638e-05,-3.00501,0.49599,0.118954,-4.60289,0.0626823,
2,0,0,1,0,32636,0.0615251,0.0611995,-0.983107,17,0.0064178,10,-6.01656e-05,-3.0074,0.54384,0.108488,-4.17245,0.0611995,
2,0,0,1,0,32636.1,0.0600269,0.0596863,-0.979203,17,0.00626793,10,-5.8445e-05,-3.00913,0.591615,0.0997271,-3.80921,0.0596863,
2,0,0,1,0,32636.2,0.0585287,0.0582006,-0.969595,17,0.00611907,10,-5.6431e-05,-3.01341,0.413444,0.142704,-5.40496,0.0582006,
2,0,0,1,0,32636.4,0.0570305,0.0567012,-0.966367,17,0.0059711,10,-5.47942e-05,-3.01486,0.412216,0.143129,-5.3912,0.0567012,
2,0,0,1,0,32636.5,0.0555323,0.0551976,-0.95723,17,0.00582447,10,-5.28368e-05,-3.01898,0.502619,0.117385,-4.3922,0.0551976,
2,0,0,1,0,32636.7,0.0540342,0.0536992,-0.953161,17,0.00567865,10,-5.1184e-05,-3.02083,0.567971,0.103879,-3.85443,0.0536992,
2,0,0,1,0,32636.8,0.052536,0.0521849,-0.947604,17,0.00553354,10,-4.94507e-05,-3.02337,0.494996,0.119193,-4.39435,0.0521849,
2,0,0,1,0,32637,0.0510378,0.050712,-0.939092,17,0.00538958,10,-4.76233e-05,-3.02729,0.463796,0.127211,-4.66557,0.050712,
2,0,0,1,0,32637.1,0.0495391,0.0492357,-0.930189,17,0.00524687,10,-4.57985e-05,-3.03143,0.514063,0.114772,-4.17292,0.0492357,
2,0,0,1,0,32637.3,0.0480416,0.04776,-0.923815,17,0.00510508,10,-4.41214e-05,-3.03441,0.688479,0.0856962,-3.09052,0.04776,
2,0,0,1,0,32637.4,0.0465441,0.0462252,-0.918158,17,0.00496432,10,-4.2442e-05,-3.03708,0.507449,0.116268,-4.16465,0.0462252,
2,0,0,1,0,32637.6,0.045045,0.0446985,-0.911931,17,0.00482435,10,-4.07619e-05,-3.04004,0.46865,0.125893,-4.47475,0.0446985,
2,0,0,1,0,32637.7,0.0435468,0.0432627,-0.900835,17,0.00468575,10,-3.89726e-05,-3.04535,0.426134,0.138454,-4.8795,0.04326269,
2,0,0,1,0,32637.9,0.0420486,0.0416975,-0.897965,17,0.0045482,10,-3.74429e-05,-3.04674,0.516069,0.114326,-4.00516,0.0416975,
2,0,0,1,0,32638,0.0405504,0.0402596,-0.891595,17,0.00441165,10,-3.58953e-05,-3.04983,0.463493,0.127294,-4.41821,0.0402596,
2,0,0,1,0,32638.2,0.0390523,0.0387093,-0.885992,17,0.00427583,10,-3.42961e-05,-3.05257,0.404916,0.145709,-5.01492,0.0387093,
2,0,0,1,0,32638.3,0.0375541,0.0371929,-0.873574,17,0.00414135,10,-3.24908e-05,-3.0587,0.360549,0.163639,-5.5991,0.0371929,
2,0,0,1,0,32638.5,0.0360559,0.0357253,-0.871525,17,0.00400811,10,-3.11355e-05,-3.05972,0.450212,0.131049,-4.45456,0.0357253,
2,0,0,1,0,32638.6,0.0345568,0.0341987,-0.861685,17,0.0038757,10,-2.94685e-05,-3.06465,0.477221,0.123632,-4.16208,0.0341987,
2,0,0,1,0,32638.8,0.0330593,0.0326934,-0.85683,17,0.00374425,10,-2.80127e-05,-3.06711,0.403071,0.146376,-4.88425,0.0326934,
2,0,0,1,0,32638.9,0.0315618,0.0312245,-0.848426,17,0.0036139,10,-2.64917e-05,-3.07139,0.382607,0.154205,-5.10051,0.03122448,
2,0,0,1,0,32639.1,0.0300631,0.0297277,-0.84182,17,0.00348473,10,-2.50253e-05,-3.07478,0.500257,0.117939,-3.87447,0.02972766,
2,0,0,1,0,32639.2,0.0285649,0.0282251,-0.836013,17,0.00335644,10,-2.35965e-05,-3.07779,0.595038,0.0991533,-3.22756,0.0282251,
2,0,0,1,0,32639.4,0.0270667,0.0267129,-0.829182,17,0.00322896,10,-2.21499e-05,-3.08135,0.440031,0.134082,-4.34161,0.0267129,
2,0,0,1,0,32639.5,0.0255685,0.0252464,-0.823181,17,0.00310242,10,-2.07823e-05,-3.0845,0.408518,0.144424,-4.6355,0.02524638,
2,0,0,1,0,32639.7,0.0240704,0.0237035,-0.814588,17,0.00297699,10,-1.93086e-05,-3.08906,0.449204,0.131343,-4.19483,0.0237035,
2,0,0,1,0,32639.8,0.0225722,0.0222476,-0.809244,17,0.00285244,10,-1.80037e-05,-3.09192,0.666374,0.0885389,-2.80041,0.0222476,
2,0,0,1,0,32640,0.021074,0.0207418,-0.806338,17,0.00272856,10,-1.67249e-05,-3.09348,0.565352,0.10436,-3.28463,0.0207418,
2,0,0,1,0,32640.1,0.0195758,0.0192911,-0.801617,17,0.0026054,10,-1.54641e-05,-3.09603,0.492534,0.119789,-3.74309,0.0192911,
2,0,0,1,0,32640.3,0.0180772,0.0177593,-0.794748,17,0.00248294,10,-1.41142e-05,-3.09977,0.622232,0.0948199,-2.94842,0.0177593,
2,0,0,1,0,32640.4,0.0165796,0.0162413,-0.792045,17,0.00236148,10,-1.28639e-05,-3.10125,0.76926,0.076697,-2.3748,0.0162413,
2,0,0,1,0,32640.6,0.0150821,0.0147534,-0.790883,17,0.00224034,10,-1.16683e-05,-3.10189,0.949047,0.0621676,-1.91357,0.0147534,
2,0,0,1,0,32640.7,0.013583,0.0132712,-0.784115,17,0.00211953,10,-1.04062e-05,-3.10562,0.639748,0.0922239,-2.82111,0.0132712,
2,0,0,1,0,32640.9,0.0120848,0.011723,-0.781668,17,0.00199943,10,-9.1635e-06,-3.10698,0.987442,0.0597504,-1.82866,0.011723,
2,0,0,1,0,32641,0.0105866,0.0102851,-0.778538,17,0.00187997,10,-8.00734e-06,-3.10872,1.19567,0.0493446,-1.50082,0.0102851,
2,0,0,1,0,32641.2,0.00908846,0.0087666,-0.776936,17,0.00176064,10,-6.81109e-06,-3.10961,2.48357,0.0237561,-0.721414,0.0087666,
2,0,0,1,0,32641.3,0.00759027,0.00728203,-0.776259,17,0.00164149,10,-5.65274e-06,-3.10999,1.18459,0.0498064,-1.50703,0.00728203,
2,0,0,1,0,32641.5,0.00609208,0.00575929,-0.775331,17,0.00152246,10,-4.46536e-06,-3.11051,1.96444,0.030034,-0.908806,0.005759289,
2,0,0,1,0,32641.6,0.00459389,0.00426518,-0.774389,17,0.00140387,10,-3.30291e-06,-3.11104,2.30173,0.0256329,-0.77436,0.00426518,
2,0,0,1,0,32641.8,0.0030948,0.00282396,-0.773756,17,0.00128514,10,-2.18505e-06,-3.1114,-1.06749,-0.0552699,1.67336,0.00282396,
2,0,0,1,0,32641.9,0.00159728,0.00121849,-0.78445,17,0.00116487,10,-9.55845e-07,-3.10543, , , ,0.00121849,
2,0,0,1,0,32642.1,0.000199195,-0.000174534,-0.776037,17,0.00105325,10,1.35445e-07,-3.11012, , , ,-0.000174534,