File: Figure_codes/Fig_S3_S4/20221101_1-115_003_TrumpetPlot_ParaChange_from10_every3_06_CV_C01_16.csv
mode,ox/red,error,control changes,counter inc.,time/s,control/V,Ewe/V,<I>/mA,cycle number,(Q-Qo)/C,I Range,P/W,log(|I|),Tafel slope mV/dec,alpha_eff,dI/d(E-IR),E-IR/V,
2,0,0,0,0,32672.1,2.44065e-05,-0.000248974,-1.41789,17,0.0000000E+000,10,3.53018e-07,-2.84836, , , ,-0.000248974,
2,0,0,1,0,32672.1,0.00129787,0.000923533,-0.187728,17,-2.07543e-05,10,-1.73373e-07,-3.72647, , , ,0.000923533,
2,1,0,1,0,32672.2,0.00279427,0.00243893,0.509164,17,-1.2697e-05,10,1.24181e-06,-3.29314,0.0162406,3.63287,362.309,0.00243893,
2,1,0,1,0,32672.2,0.00429425,0.00395911,0.861373,17,1.43522e-05,10,3.41027e-06,-3.06481,0.00740861,7.96371,205.09,0.00395911,
2,1,0,1,0,32672.2,0.00579422,0.00545132,1.08239,17,5.20022e-05,10,5.90046e-06,-2.96562,0.0174142,3.38804,132.647,0.00545132,
2,1,0,1,0,32672.3,0.00729063,0.0069616,1.23919,17,9.64087e-05,10,8.62676e-06,-2.90686,0.0310482,1.90027,88.462,0.0069616,
2,1,0,1,0,32672.3,0.00878703,0.00844973,1.35645,17,0.000145735,10,1.14616e-05,-2.8676,0.0465037,1.26872,65.4773,0.00844973,
2,1,0,1,0,32672.4,0.010287,0.00995973,1.44126,17,0.0001988,10,1.43546e-05,-2.84126,0.0661287,0.892199,49.1436,0.00995973,
2,1,0,1,0,32672.4,0.011787,0.0114592,1.50381,17,0.000254677,10,1.72325e-05,-2.82281,0.0843112,0.699788,40.6744,0.01145922,
2,1,0,1,0,32672.4,0.0132825,0.0129417,1.5595,17,0.000312521,10,2.01826e-05,-2.80701,0.0954128,0.618366,37.5305,0.0129417,
2,1,0,1,0,32672.5,0.014778,0.0144575,1.60595,17,0.000372439,10,2.3218e-05,-2.79427,0.110423,0.534307,33.5112,0.0144575,
2,1,0,1,0,32672.5,0.0162816,0.0159747,1.64994,17,0.000434557,10,2.63574e-05,-2.78253,0.133762,0.441083,28.4702,0.0159747,
2,1,0,1,0,32672.5,0.017778,0.0174158,1.69166,17,0.000497969,10,2.94616e-05,-2.77169,0.147741,0.399347,26.4109,0.0174158,
2,1,0,1,0,32672.6,0.0192744,0.0189619,1.73345,17,0.000562742,10,3.28694e-05,-2.76109,0.16564,0.356193,24.0766,0.0189619,
2,1,0,1,0,32672.6,0.0207743,0.0204743,1.77426,17,0.000629132,10,3.63268e-05,-2.75098,0.15961,0.369651,25.4797,0.0204743,
2,1,0,1,0,32672.7,0.0222743,0.021954,1.81335,17,0.000696948,10,3.98103e-05,-2.74152,0.17235,0.342327,24.0652,0.021954,
2,1,0,1,0,32672.7,0.0237707,0.0234234,1.84569,17,0.00076597,10,4.32324e-05,-2.73384,0.191328,0.308371,22.1521,0.02342339,
2,1,0,1,0,32672.7,0.0252671,0.0249303,1.87523,17,0.000836192,10,4.675e-05,-2.72695,0.194541,0.303278,22.2397,0.0249303,
2,1,0,1,0,32672.8,0.0267671,0.0264024,1.91278,17,0.000907905,10,5.05021e-05,-2.71833,0.178496,0.33054,24.6657,0.0264024,
2,1,0,1,0,32672.8,0.0282671,0.0279058,1.94208,17,0.000980984,10,5.41955e-05,-2.71173,0.18657,0.316235,24.0973,0.02790584,
2,1,0,1,0,32672.8,0.0297626,0.0294008,1.98182,17,0.00105523,10,5.82671e-05,-2.70294,0.206927,0.285125,22.0612,0.02940079,
2,1,0,1,0,32672.9,0.0312581,0.0309576,2.01034,17,0.00113075,10,6.22352e-05,-2.69673,0.204091,0.289086,22.7668,0.0309576,
2,1,0,1,0,32672.9,0.0327616,0.0324278,2.05361,17,0.00120779,10,6.6594e-05,-2.68748,0.219002,0.269404,21.5365,0.0324278,
2,1,0,1,0,32673,0.034258,0.0338976,2.08843,17,0.00128582,10,7.07928e-05,-2.68018,0.190778,0.309259,25.1332,0.0338976,
2,1,0,1,0,32673,0.0357545,0.0354689,2.12211,17,0.00136519,10,7.52688e-05,-2.67323,0.222428,0.265254,21.8995,0.03546885,
2,1,0,1,0,32673,0.0372544,0.0369249,2.15475,17,0.00144612,10,7.95641e-05,-2.6666,0.218207,0.270386,22.7371,0.0369249,
2,1,0,1,0,32673.1,0.0387544,0.0384138,2.18496,17,0.0015282,10,8.39325e-05,-2.66056,0.214213,0.275426,23.5974,0.0384138,
2,1,0,1,0,32673.1,0.0402508,0.0399186,2.21962,17,0.00161144,10,8.86042e-05,-2.65372,0.214612,0.274914,23.8997,0.0399186,
2,1,0,1,0,32673.1,0.0417472,0.0414377,2.26711,17,0.00169612,10,9.39439e-05,-2.64453,0.219641,0.26862,23.6925,0.04143773,
2,1,0,1,0,32673.2,0.0432472,0.042965,2.30021,17,0.00178232,10,9.88286e-05,-2.63823,0.241033,0.24478,21.92,0.04296504,
2,1,0,1,0,32673.2,0.0447472,0.0443886,2.33441,17,0.00186967,10,0.000103621,-2.63182,0.237053,0.24889,22.6026,0.0443886,
2,1,0,1,0,32673.3,0.0462427,0.0459372,2.36971,17,0.00195812,10,0.000108858,-2.6253,0.220281,0.267839,24.6449,0.0459372,
2,1,0,1,0,32673.3,0.0477382,0.0474061,2.39975,17,0.00204786,10,0.000113763,-2.61983,0.225786,0.261309,24.4336,0.0474061,
2,1,0,1,0,32673.3,0.0492417,0.0489072,2.4291,17,0.00213936,10,0.0001188,-2.61456,0.263124,0.224229,21.2666,0.0489072,
2,1,0,1,0,32673.4,0.0507381,0.0503767,2.45412,17,0.00223156,10,0.000123631,-2.6101,0.262043,0.225154,21.6619,0.0503767,
2,1,0,1,0,32673.4,0.0522345,0.051871,2.49318,17,0.00232496,10,0.000129324,-2.60325,0.259343,0.227498,22.1867,0.051871,
2,1,0,1,0,32673.4,0.0537345,0.0533994,2.53016,17,0.00241988,10,0.000135109,-2.59685,0.268538,0.219709,21.7028,0.05339944,
2,1,0,1,0,32673.5,0.0552345,0.0548842,2.5655,17,0.00251606,10,0.000140805,-2.59083,0.300206,0.196532,19.6197,0.0548842,
2,1,0,1,0,32673.5,0.0567309,0.056425,2.59182,17,0.00261316,10,0.000146244,-2.58639,0.302585,0.194987,19.7129,0.056425,
2,1,0,1,0,32673.6,0.0582273,0.0579077,2.62499,17,0.00271128,10,0.000152007,-2.58087,0.309377,0.190706,19.5096,0.0579077,
2,1,0,1,0,32673.6,0.0597309,0.0593948,2.65751,17,0.00281121,10,0.000157842,-2.57553,0.276299,0.213537,22.09,0.0593948,
2,1,0,1,0,32673.6,0.0612264,0.0608744,2.68199,17,0.00291173,10,0.000163265,-2.57154,0.339058,0.174012,18.2369,0.06087441,
2,1,0,1,0,32673.7,0.0627219,0.062362,2.71106,17,0.00301337,10,0.000169067,-2.56686,0.330439,0.17855,18.9219,0.062362,
2,1,0,1,0,32673.7,0.0642218,0.0638995,2.73623,17,0.00311623,10,0.000174844,-2.56285,0.321912,0.18328,19.6306,0.06389948,
2,1,0,1,0,32673.7,0.0657218,0.0654078,2.76905,17,0.00322023,10,0.000181118,-2.55767,0.329126,0.179263,19.3705,0.06540782,
2,1,0,1,0,32673.8,0.0672182,0.0669425,2.80226,17,0.0033251,10,0.00018759,-2.55249,0.338845,0.174121,19.0035,0.0669425,
2,1,0,1,0,32673.8,0.0687146,0.0684105,2.8289,17,0.00343099,10,0.000193527,-2.54838,0.390015,0.151276,16.6552,0.0684105,
2,1,0,1,0,32673.9,0.0702146,0.0699019,2.84932,17,0.00353802,10,0.000199173,-2.54526,0.383696,0.153768,17.0868,0.0699019,
2,1,0,1,0,32673.9,0.0717146,0.0713748,2.87606,17,0.00364603,10,0.000205278,-2.5412,0.369374,0.15973,17.8943,0.0713748,
2,1,0,1,0,32673.9,0.073211,0.0729042,2.90059,17,0.00375471,10,0.000211465,-2.53751,0.422777,0.139553,15.8038,0.0729042,
2,1,0,1,0,32674,0.0747074,0.0744058,2.91958,17,0.00386422,10,0.000217234,-2.53468,0.531327,0.111043,12.6665,0.0744058,
2,1,0,1,0,32674,0.0762109,0.0758724,2.93473,17,0.0039751,10,0.000222665,-2.53243,0.47195,0.125013,14.3614,0.0758724,
2,1,0,1,0,32674,0.0777064,0.0773836,2.95715,17,0.0040861,10,0.000228835,-2.52913,0.419273,0.14072,16.275,0.0773836,
2,1,0,1,0,32674.1,0.079202,0.0788599,2.9872,17,0.00419801,10,0.00023557,-2.52474,0.461531,0.127835,14.8889,0.0788599,
2,1,0,1,0,32674.1,0.0807019,0.0803616,3.01091,17,0.00431108,10,0.000241961,-2.5213,0.541761,0.108904,12.7423,0.08036162,
2,1,0,1,0,32674.2,0.0822019,0.0818943,3.02862,17,0.00442489,10,0.000248027,-2.51876,0.547254,0.107811,12.7085,0.0818943,
2,1,0,1,0,32674.2,0.0836983,0.0833923,3.04151,17,0.00453901,10,0.000253639,-2.51691,0.5022,0.117483,13.9603,0.0833923,
2,1,0,1,0,32674.2,0.0851947,0.0848643,3.06447,17,0.00465392,10,0.000260064,-2.51364,0.489056,0.120641,14.438,0.0848643,
2,1,0,1,0,32674.3,0.0866947,0.0863817,3.08437,17,0.00477,10,0.000266433,-2.51083,0.579668,0.101782,12.2618,0.0863817,
2,1,0,1,0,32674.3,0.0881947,0.0878433,3.10562,17,0.00488683,10,0.000272808,-2.50785,0.525916,0.112185,13.6269,0.0878433,
2,1,0,1,0,32674.3,0.0896911,0.089357,3.1272,17,0.00500397,10,0.000279437,-2.50484,0.472238,0.124937,15.2807,0.089357,
2,1,0,1,0,32674.4,0.0911875,0.0908696,3.15426,17,0.00512205,10,0.000286626,-2.5011,0.3754,0.157166,19.3411,0.0908696,
2,1,0,1,0,32674.4,0.0926901,0.0924063,3.18721,17,0.00524198,10,0.000294518,-2.49659,0.349894,0.168623,20.9261,0.0924063,
2,1,0,1,0,32674.5,0.0941856,0.0938847,3.21902,17,0.00536238,10,0.000302217,-2.49228,0.352515,0.167369,21.0051,0.0938847,
2,1,0,1,0,32674.5,0.0956821,0.0953137,3.2442,17,0.00548383,10,0.000309217,-2.48889,0.328371,0.179675,22.775,0.0953137,
2,1,0,1,0,32674.5,0.097182,0.0968904,3.28141,17,0.00560691,10,0.000317937,-2.48394,0.282711,0.208694,26.7762,0.0968904,
2,1,0,1,0,32674.6,0.098682,0.0983813,3.32256,17,0.00573146,10,0.000326878,-2.47853,0.276535,0.213355,27.7391,0.0983813,
2,1,0,1,0,32674.6,0.100178,0.0998875,3.36683,17,0.00585734,10,0.000336304,-2.47278,0.258435,0.228297,30.0679,0.0998875,
2,1,0,1,0,32674.6,0.101675,0.101369,3.41415,17,0.00598485,10,0.000346089,-2.46672,0.243474,0.242325,32.3488,0.101369,
2,1,0,1,0,32674.7,0.103175,0.10285,3.47133,17,0.00611452,10,0.000357027,-2.4595,0.21891,0.269517,36.4911,0.10285,
2,1,0,1,0,32674.7,0.104675,0.104387,3.52932,17,0.00624629,10,0.000368413,-2.45231,0.20972,0.281327,38.6649,0.104387,
2,1,0,1,0,32674.8,0.106171,0.105825,3.58823,17,0.00637995,10,0.000379726,-2.44512,0.21376,0.27601,38.5159,0.105825,
2,1,0,1,0,32674.8,0.107667,0.107353,3.64294,17,0.0065158,10,0.00039108,-2.43855,0.200503,0.29426,41.8107,0.107353,
2,1,0,1,0,32674.8,0.10917,0.108828,3.7014,17,0.00665458,10,0.000402816,-2.43163,0.211631,0.278787,40.3296,0.108828,
2,1,0,1,0,32674.9,0.110666,0.110347,3.76397,17,0.00679492,10,0.000415343,-2.42435,0.216889,0.272029,40.0057,0.110347,
2,1,0,1,0,32674.9,0.112162,0.111848,3.82522,17,0.00693759,10,0.000427845,-2.41734,0.228475,0.258233,38.5616,0.111848,
2,1,0,1,0,32674.9,0.113662,0.113342,3.88225,17,0.00708289,10,0.000440023,-2.41092,0.246997,0.238869,36.1882,0.113342,
2,1,0,1,0,32675,0.115162,0.114771,3.93947,17,0.00723017,10,0.000452137,-2.40456,0.25227,0.233876,35.9132,0.114771,
2,1,0,1,0,32675,0.116658,0.116335,3.9923,17,0.00737912,10,0.000464444,-2.39878,0.263619,0.223808,34.7858,0.116335,
2,1,0,1,0,32675.1,0.118155,0.117852,4.04572,17,0.00753011,10,0.000476797,-2.393,0.29023,0.203287,32.0019,0.1178521,
2,1,0,1,0,32675.1,0.119655,0.119327,4.08571,17,0.00768326,10,0.000487535,-2.38873,0.370233,0.159359,25.393,0.119327,
2,1,0,1,0,32675.1,0.121155,0.120856,4.1194,17,0.00783782,10,0.000497854,-2.38517,0.382049,0.154431,24.8544,0.1208558,
2,1,0,1,0,32675.2,0.122651,0.122367,4.15781,17,0.00799334,10,0.00050878,-2.38114,0.387134,0.152402,24.7384,0.122367,
2,1,0,1,0,32675.2,0.124147,0.123779,4.18551,17,0.00815017,10,0.000518079,-2.37825,0.458138,0.128782,21.0715,0.123779,
2,1,0,1,0,32675.2,0.12565,0.125327,4.21865,17,0.00830905,10,0.00052871,-2.37483,0.525987,0.11217,18.462,0.125327,
2,1,0,1,0,32675.3,0.127146,0.126819,4.24261,17,0.00846801,10,0.000538044,-2.37237,0.610479,0.0966454,16.0044,0.126819,
2,1,0,1,0,32675.3,0.128642,0.128346,4.26734,17,0.00862779,10,0.000547698,-2.36984,0.615039,0.0959289,15.9688,0.128346,
2,1,0,1,0,32675.4,0.130142,0.12979,4.29444,17,0.00878897,10,0.000557374,-2.36709,0.644286,0.0915742,15.3188,0.12979,
2,1,0,1,0,32675.4,0.131642,0.131331,4.31451,17,0.00895107,10,0.000566629,-2.36507,0.830398,0.0710503,11.9404,0.1313308,
2,1,0,1,0,32675.4,0.133139,0.132855,4.33345,17,0.00911344,10,0.000575719,-2.36317,0.965034,0.0611378,10.3375,0.132855,
2,1,0,1,0,32675.5,0.134635,0.134251,4.33812,17,0.00927631,10,0.000582398,-2.3627,1.29467,0.0455715,7.7341,0.134251,
2,1,0,1,0,32675.5,0.136135,0.135838,4.35619,17,0.00944017,10,0.000591734,-2.36089,1.7569,0.0335819,5.70926,0.135838,
2,1,0,1,0,32675.5,0.137635,0.13731,4.36489,17,0.00960444,10,0.000599342,-2.36003,8.06802,0.00731282,1.24312,0.13731,
2,1,0,1,0,32675.6,0.13913,0.138828,4.36347,17,0.00976826,10,0.000605773,-2.36017,-1.50242,-0.0392701,-6.66361,0.1388282,
2,1,0,1,0,32675.6,0.140626,0.140327,4.34959,17,0.00993169,10,0.000610363,-2.36155,-0.68615,-0.0859871,-14.5267,0.140327,
2,1,0,1,0,32675.7,0.14213,0.141784,4.31734,17,0.0100952,10,0.000612131,-2.36478,-0.445573,-0.132414,-22.2233,0.141784,
2,1,0,1,0,32675.7,0.143626,0.143277,4.27576,17,0.0102567,10,0.000612617,-2.36899,-0.277105,-0.212916,-35.3696,0.143277,
2,1,0,1,0,32675.7,0.145122,0.1448,4.20686,17,0.0104161,10,0.000609155,-2.37604,-0.199861,-0.295205,-48.342,0.1448,
2,1,0,1,0,32675.8,0.146622,0.146279,4.12235,17,0.0105732,10,0.000603013,-2.38486,-0.154139,-0.382771,-61.4759,0.146279,
2,1,0,1,0,32675.8,0.148122,0.147826,4.02396,17,0.0107269,10,0.000594848,-2.39535,-0.128765,-0.458201,-71.7741,0.147826,
2,1,0,1,0,32675.8,0.149619,0.149311,3.91137,17,0.010876,10,0.00058401,-2.40767,-0.108619,-0.543184,-82.6209,0.149311,
2,1,0,1,0,32675.9,0.151115,0.150781,3.78181,17,0.0110205,10,0.000570227,-2.4223,-0.0920451,-0.64099,-94.0715,0.150781,
2,1,0,1,0,32675.9,0.152615,0.152323,3.63531,17,0.0111602,10,0.000553742,-2.43946,-0.0858516,-0.687233,-97.1675,0.152323,
2,1,0,1,0,32676,0.154115,0.153761,3.48544,17,0.0112942,10,0.000535925,-2.45774,-0.0810167,-0.728245,-98.8501,0.153761,
2,1,0,1,0,32676,0.155611,0.155321,3.33737,17,0.0114223,10,0.000518365,-2.4766,-0.0782015,-0.754462,-98.0996,0.155321,
2,1,0,1,0,32676,0.157106,0.156766,3.18568,17,0.011545,10,0.000499405,-2.4968,-0.0764248,-0.772001,-96.1112,0.156766,
2,1,0,1,0,32676.1,0.15861,0.158313,3.04311,17,0.0116628,10,0.000481764,-2.51668,-0.0778011,-0.758344,-90.4153,0.158313,
2,1,0,1,0,32676.1,0.160106,0.159801,2.91112,17,0.0117747,10,0.000465201,-2.53594,-0.0795341,-0.74182,-84.6886,0.159801,
2,1,0,1,0,32676.1,0.161602,0.16127,2.79292,17,0.0118821,10,0.000450416,-2.55394,-0.08427,-0.70013,-76.5154,0.16127,
2,1,0,1,0,32676.2,0.163102,0.162788,2.6869,17,0.0119855,10,0.000437395,-2.57075,-0.0911557,-0.647244,-67.9958,0.162788,
2,1,0,1,0,32676.2,0.164602,0.164252,2.59238,17,0.012085,10,0.000425803,-2.5863,-0.0967114,-0.610062,-61.722,0.164252,
2,1,0,1,0,32676.3,0.166099,0.165792,2.50151,17,0.0121807,10,0.000414731,-2.6018,-0.101722,-0.580012,-56.7045,0.165792,
2,1,0,1,0,32676.3,0.167595,0.167264,2.42533,17,0.0122734,10,0.000405671,-2.61523,-0.117721,-0.501184,-47.5258,0.167264,
2,1,0,1,0,32676.3,0.169095,0.168796,2.35963,17,0.0123637,10,0.000398297,-2.62716,-0.131435,-0.448891,-41.4151,0.168796,
2,1,0,1,0,32676.4,0.170595,0.170278,2.29173,17,0.0124516,10,0.000390232,-2.63984,-0.137498,-0.429096,-38.564,0.170278,
2,1,0,1,0,32676.4,0.172091,0.171756,2.23383,17,0.012537,10,0.000383673,-2.65095,-0.149105,-0.395693,-34.6949,0.171756,
2,1,0,1,0,32676.4,0.173586,0.173229,2.19219,17,0.0126205,10,0.000379752,-2.65912,-0.166554,-0.354239,-30.3496,0.173229,
2,1,0,1,0,32676.5,0.17509,0.174753,2.15214,17,0.0127027,10,0.000376094,-2.66713,-0.184838,-0.319198,-26.7594,0.174753,
2,1,0,1,0,32676.5,0.176586,0.17624,2.11163,17,0.012783,10,0.000372155,-2.67538,-0.185745,-0.31764,-26.1139,0.17624,
2,1,0,1,0,32676.6,0.178083,0.177731,2.07466,17,0.0128619,10,0.000368731,-2.68305,-0.21443,-0.275149,-22.277,0.177731,
2,1,0,1,0,32676.6,0.179582,0.179269,2.04171,17,0.0129397,10,0.000366015,-2.69001,-0.248784,-0.237153,-18.9497,0.179269,
2,1,0,1,0,32676.6,0.181082,0.180766,2.01418,17,0.0130164,10,0.000364095,-2.6959,-0.26401,-0.223476,-17.6206,0.180766,
2,1,0,1,0,32676.7,0.182579,0.182268,1.99218,17,0.0130921,10,0.00036311,-2.70067,-0.267162,-0.22084,-17.192,0.182268,
2,1,0,1,0,32676.7,0.184075,0.183775,1.96834,17,0.0131669,10,0.000361731,-2.7059,-0.269285,-0.219099,-16.8808,0.183775,
2,1,0,1,0,32676.7,0.185579,0.185299,1.94732,17,0.0132411,10,0.000360836,-2.71056,-0.352833,-0.167218,-12.7277,0.1852985,
2,1,0,1,0,32676.8,0.187074,0.18673,1.93317,17,0.0133143,10,0.000360982,-2.71373,-0.471582,-0.125111,-9.42878,0.18673,
2,1,0,1,0,32676.8,0.18857,0.188269,1.91888,17,0.0133869,10,0.000361266,-2.71695,-0.425425,-0.138685,-10.3576,0.1882693,
2,1,0,1,0,32676.9,0.19007,0.189752,1.90467,17,0.0134592,10,0.000361415,-2.72018,-0.455472,-0.129536,-9.59199,0.1897517,
2,1,0,1,0,32676.9,0.19157,0.191273,1.88221,17,0.0135308,10,0.000360015,-2.72533,-0.490719,-0.120232,-8.86466,0.191273,
2,1,0,1,0,32676.9,0.193066,0.192761,1.87087,17,0.0136017,10,0.00036063,-2.72796,-0.641323,-0.0919973,-6.7258,0.192761,
2,1,0,1,0,32677,0.194563,0.194239,1.86148,17,0.0136723,10,0.000361571,-2.73014,-0.773803,-0.0762468,-5.55082,0.194239,
2,1,0,1,0,32677,0.196063,0.195704,1.84782,17,0.0137427,10,0.000361626,-2.73334,-0.534159,-0.110454,-7.99353,0.1957041,
2,1,0,1,0,32677,0.197563,0.197224,1.83842,17,0.0138126,10,0.000362582,-2.73555,-0.559938,-0.105369,-7.59048,0.197224,
2,1,0,1,0,32677.1,0.199059,0.19876,1.83172,17,0.0138819,10,0.000364071,-2.73714,-0.700569,-0.0842172,-6.02504,0.19876,
2,1,0,1,0,32677.1,0.200555,0.200218,1.82817,17,0.0139509,10,0.000366033,-2.73798,-0.863971,-0.0682894,-4.85202,0.200218,
2,1,0,1,0,32677.2,0.202059,0.201758,1.8175,17,0.0140201,10,0.000366695,-2.74053,-0.805474,-0.0732488,-5.17824,0.201758,
2,1,0,1,0,32677.2,0.203554,0.203194,1.80929,17,0.0140885,10,0.000367638,-2.74249,-0.820458,-0.071911,-5.08173,0.203194,
2,1,0,1,0,32677.2,0.20505,0.204718,1.79734,17,0.0141566,10,0.000367947,-2.74537,-1.26188,-0.0467555,-3.29844,0.204718,
2,1,0,1,0,32677.3,0.20655,0.206228,1.79196,17,0.0142247,10,0.000369553,-2.74667,-1.67033,-0.0353224,-2.48207,0.206228,
2,1,0,1,0,32677.3,0.20805,0.207711,1.78979,17,0.0142928,10,0.00037176,-2.7472,-1.0207,-0.0578033,-4.0391,0.207711,
2,1,0,1,0,32677.3,0.209546,0.20923,1.78436,17,0.0143604,10,0.000373341,-2.74852,-0.802709,-0.0735011,-5.131,0.20923,
2,1,0,1,0,32677.4,0.211043,0.210715,1.78041,17,0.0144276,10,0.00037516,-2.74948,-1.143,-0.0516184,-3.58269,0.210715,
2,1,0,1,0,32677.4,0.212543,0.212242,1.77957,17,0.0144949,10,0.0003777,-2.74968,-1.4754,-0.0399891,-2.76588,0.212242,
2,1,0,1,0,32677.5,0.214043,0.213706,1.77094,17,0.0145621,10,0.000378461,-2.7518,-1.24635,-0.0473382,-3.26605,0.213706,
2,1,0,1,0,32677.5,0.215539,0.215228,1.76734,17,0.0146289,10,0.000380381,-2.75268,-0.937188,-0.0629543,-4.33371,0.215228,
2,1,0,1,0,32677.5,0.217035,0.216728,1.75087,17,0.0146954,10,0.000379463,-2.75675,-1.33057,-0.0443419,-3.05415,0.216728,
2,1,0,1,0,32677.6,0.218538,0.218235,1.75328,17,0.014762,10,0.000382628,-2.75615,-4.60697,-0.0128067,-0.878463,0.218235,
2,1,0,1,0,32677.6,0.220034,0.219753,1.75287,17,0.0148283,10,0.0003852,-2.75625,-2.39791,-0.0246048,-1.6827,0.219753,
2,1,0,1,0,32677.6,0.22153,0.221218,1.74783,17,0.0148945,10,0.000386651,-2.7575,-1.49727,-0.039405,-2.68888,0.2212176,
2,1,0,1,0,32677.7,0.22303,0.222727,1.74008,17,0.0149607,10,0.000387563,-2.75943,-1.4047,-0.0420018,-2.8593,0.222727,
2,1,0,1,0,32677.7,0.22453,0.224209,1.73943,17,0.0150266,10,0.000389996,-2.75959,-1.71811,-0.03434,-2.32634,0.224209,
2,1,0,1,0,32677.8,0.226026,0.225746,1.7404,17,0.0150923,10,0.000392887,-2.75935,-2.18563,-0.0269945,-1.82822,0.225746,
2,1,0,1,0,32677.8,0.227523,0.227202,1.73305,17,0.0151578,10,0.000393753,-2.76119,-0.8269,-0.0713508,-4.82267,0.227202,
2,1,0,1,0,32677.8,0.229023,0.228705,1.72801,17,0.0152235,10,0.000395205,-2.76245,-1.84455,-0.0319861,-2.16012,0.228705,
2,1,0,1,0,32677.9,0.230523,0.230204,1.7219,17,0.0152888,10,0.000396388,-2.76399,-4.92287,-0.0119849,-0.80991,0.230204,
2,1,0,1,0,32677.9,0.232019,0.231717,1.71998,17,0.015354,10,0.000398548,-2.76448,-5.82631,-0.0101265,-0.682483,0.231717,
2,1,0,1,0,32677.9,0.233515,0.233188,1.72525,17,0.0154191,10,0.000402307,-2.76315,-1.87822,-0.0314128,-2.10783,0.233188,
2,1,0,1,0,32678,0.235018,0.234759,1.72212,17,0.0154845,10,0.000404283,-2.76394,-1.83792,-0.0321015,-2.15039,0.234759,
2,1,0,1,0,32678,0.236514,0.236201,1.71538,17,0.0155493,10,0.000405174,-2.76564,-2.45184,-0.0240635,-1.6075,0.236201,
2,1,0,1,0,32678.1,0.23801,0.237676,1.70986,17,0.015614,10,0.000406393,-2.76704,-5.30748,-0.0111164,-0.740529,0.237676,
2,1,0,1,0,32678.1,0.23951,0.239245,1.70978,17,0.0156788,10,0.000409057,-2.76706,-1.74628,-0.033786,-2.25339,0.2392451,
2,1,0,1,0,32678.1,0.24101,0.240675,1.70518,17,0.0157436,10,0.000410394,-2.76823,-1.95609,-0.0301622,-2.01185,0.2406754,
2,1,0,1,0,32678.2,0.242506,0.242196,1.69866,17,0.015808,10,0.000411407,-2.76989,-2.25835,-0.0261253,-1.73897,0.242196,
2,1,0,1,0,32678.2,0.244003,0.243705,1.69776,17,0.0158723,10,0.000413753,-2.77012,-12.7233,-0.00463717,-0.307946,0.243705,
2,1,0,1,0,32678.2,0.245503,0.245181,1.70363,17,0.0159367,10,0.000417698,-2.76863,-2.1368,-0.0276114,-1.82878,0.245181,
2,1,0,1,0,32678.3,0.247003,0.246729,1.69901,17,0.0160011,10,0.000419195,-2.76981,-1.22074,-0.0483315,-3.19696,0.246729,
2,1,0,1,0,32678.3,0.248499,0.24819,1.69289,17,0.0160651,10,0.000420157,-2.77137,-2.28585,-0.0258109,-1.70441,0.24819,
2,1,0,1,0,32678.4,0.249995,0.249696,1.69537,17,0.016129,10,0.000423326,-2.77074,-2.31171,-0.0255223,-1.67703,0.249696,
2,1,0,1,0,32678.4,0.251498,0.251196,1.69087,17,0.0161932,10,0.000424741,-2.77189,-2.96828,-0.0198768,-1.30861,0.251196,
2,1,0,1,0,32678.4,0.252994,0.252685,1.68398,17,0.016257,10,0.000425518,-2.77366,-2.00565,-0.029417,-1.93672,0.252685,
2,1,0,1,0,32678.5,0.25449,0.254206,1.68242,17,0.0163208,10,0.000427681,-2.77407,-1.61739,-0.0364784,-2.40061,0.254206,
2,1,0,1,0,32678.5,0.25599,0.255669,1.67488,17,0.0163844,10,0.000428215,-2.77602,-3.08657,-0.019115,-1.25769,0.255669,
2,1,0,1,0,32678.5,0.25749,0.257218,1.6792,17,0.0164481,10,0.00043192,-2.7749,-4.2862,-0.0137651,-0.901148,0.257218,
2,1,0,1,0,32678.6,0.258987,0.258676,1.67858,17,0.0165115,10,0.000434207,-2.77506,-2.86355,-0.0206038,-1.34778,0.258676,
2,1,0,1,0,32678.6,0.260483,0.260188,1.67611,17,0.0165749,10,0.000436102,-2.7757,-0.913978,-0.064553,-4.21923,0.2601876,
2,1,0,1,0,32678.7,0.261983,0.261661,1.67404,17,0.0166382,10,0.000438032,-2.77623,-2.84007,-0.0207741,-1.35433,0.261661,
2,1,0,1,0,32678.7,0.263483,0.263164,1.67228,17,0.0167015,10,0.000440083,-2.77669,-136.59,-0.00043195,-0.0280927,0.263164,
2,1,0,1,0,32678.7,0.264978,0.264665,1.6691,17,0.0167646,10,0.000441751,-2.77752,-2.14713,-0.0274785,-1.79062,0.264665,
2,1,0,1,0,32678.8,0.266474,0.266149,1.66178,17,0.0168276,10,0.000442281,-2.77943,-2.58501,-0.0228239,-1.48493,0.2661486,
2,1,0,1,0,32678.8,0.267977,0.267671,1.65515,17,0.0168907,10,0.000443037,-2.78116,-2.44854,-0.024096,-1.56765,0.267671,
2,1,0,1,0,32678.8,0.269474,0.269167,1.65641,17,0.0169535,10,0.000445851,-2.78083,-4.25613,-0.0138623,-0.897392,0.269167,
2,1,0,1,0,32678.9,0.27097,0.270654,1.66119,17,0.0170161,10,0.000449607,-2.77958,-2.59066,-0.0227741,-1.47109,0.270654,
2,1,0,1,0,32678.9,0.27247,0.272167,1.65575,17,0.0170789,10,0.00045064,-2.78101,-1.5431,-0.0382347,-2.46227,0.272167,
2,1,0,1,0,32679,0.27397,0.273646,1.65332,17,0.0171416,10,0.000452425,-2.78164,-1.22733,-0.048072,-3.101,0.273646,
2,1,0,1,0,32679,0.275467,0.275156,1.64886,17,0.0172039,10,0.000453694,-2.78282,-1.48585,-0.0397079,-2.55756,0.275156,
2,1,0,1,0,32679,0.276963,0.27669,1.64593,17,0.0172662,10,0.000455411,-2.78359,-2.63573,-0.0223847,-1.43791,0.27669,
2,1,0,1,0,32679.1,0.278463,0.278183,1.64482,17,0.0173285,10,0.000457559,-2.78388,-1.85787,-0.0317568,-2.03825,0.278183,
2,1,0,1,0,32679.1,0.279963,0.279656,1.64238,17,0.0173908,10,0.000459301,-2.78453,-1.38968,-0.0424559,-2.72221,0.279656,
2,1,0,1,0,32679.1,0.281459,0.28114,1.63662,17,0.0174527,10,0.000460119,-2.78605,-2.20232,-0.0267899,-1.71479,0.28114,
2,1,0,1,0,32679.2,0.282954,0.282671,1.63529,17,0.0175145,10,0.00046225,-2.7864,-3.65075,-0.0161611,-1.02978,0.282671,
2,1,0,1,0,32679.2,0.284458,0.284134,1.63509,17,0.0175766,10,0.000464584,-2.78646,-1.77514,-0.0332368,-2.11478,0.284134,
2,1,0,1,0,32679.3,0.285954,0.285679,1.63182,17,0.0176383,10,0.000466177,-2.78733,-1.05163,-0.0561036,-3.55948,0.285679,
2,1,0,1,0,32679.3,0.28745,0.287143,1.62473,17,0.0176998,10,0.000466528,-2.78922,-1.93984,-0.0304149,-1.92982,0.287143,
2,1,0,1,0,32679.3,0.28895,0.288667,1.62008,17,0.0177614,10,0.000467664,-2.79046,-3.38513,-0.0174292,-1.10423,0.288667,
2,1,0,1,0,32679.4,0.29045,0.290143,1.61703,17,0.0178228,10,0.000469169,-2.79128,-1.53605,-0.0384101,-2.43071,0.290143,
2,1,0,1,0,32679.4,0.291947,0.29165,1.61494,17,0.017884,10,0.000470997,-2.79184,-1.18604,-0.0497454,-3.13681,0.2916505,
2,1,0,1,0,32679.4,0.293443,0.293191,1.61088,17,0.0179451,10,0.000472296,-2.79294,-1.02943,-0.057313,-3.60935,0.293191,
2,1,0,1,0,32679.5,0.294943,0.294611,1.61237,17,0.0180061,10,0.000475022,-2.79254,-3.71566,-0.0158788,-0.997234,0.294611,
2,1,0,1,0,32679.5,0.296443,0.296151,1.61437,17,0.0180671,10,0.000478099,-2.792,-14.9034,-0.00395882,-0.247909,0.296151,
2,1,0,1,0,32679.6,0.297939,0.297633,1.60774,17,0.0181279,10,0.000478516,-2.79379,-1.39917,-0.0421677,-2.63797,0.297633,
2,1,0,1,0,32679.6,0.299434,0.299142,1.59829,17,0.0181886,10,0.000478116,-2.79634,-0.0138639,-4.25565,-223.64,0.299142,
2,1,0,0,0,32679.6,0.299962,0.299823,1.51835,17,0.0182124,10,0.000455237,-2.81863,0.000787159,74.9531,1911.63,0.299823,
2,1,0,1,0,32679.6,0.298689,0.298386,0.379562,17,0.0182373,10,0.000113256,-3.42072,0.00320525,18.4073,532.181,0.298386,
2,0,0,1,0,32679.7,0.297189,0.296868,-0.0619155,17,0.0182412,10,-1.83807e-05,-4.2082,0.0119988,4.91717,243.46,0.296868,
2,0,0,1,0,32679.7,0.295692,0.295387,-0.263972,17,0.0182339,10,-7.79738e-05,-3.57844,-0.00379021,-15.5664,109.212,0.295387,
2,0,0,1,0,32679.7,0.294196,0.293811,-0.378515,17,0.0182211,10,-0.000111212,-3.42192,-0.0120573,-4.8933,61.6907,0.293811,
2,0,0,1,0,32679.8,0.292696,0.292403,-0.44271,17,0.018205,10,-0.00012945,-3.35388,-0.0232015,-2.54294,41.888,0.292403,
2,0,0,1,0,32679.8,0.291196,0.290866,-0.503416,17,0.0181865,10,-0.000146427,-3.29807,-0.0323394,-1.8244,34.296,0.290866,
2,0,0,1,0,32679.9,0.2897,0.289375,-0.547515,17,0.0181663,10,-0.000158437,-3.2616,-0.044359,-1.33006,27.717,0.289375,
2,0,0,1,0,32679.9,0.288205,0.287913,-0.577345,17,0.0181445,10,-0.000166225,-3.23856,-0.057093,-1.0334,23.0636,0.287913,
2,0,0,1,0,32679.9,0.286701,0.28638,-0.604376,17,0.0181214,10,-0.000173081,-3.21869,-0.066775,-0.883564,21.0179,0.28638,
2,0,0,1,0,32680,0.285205,0.284907,-0.638505,17,0.0180972,10,-0.000181915,-3.19484,-0.0767354,-0.768876,19.2065,0.284907,
2,0,0,1,0,32680,0.283708,0.283396,-0.667181,17,0.018072,10,-0.000189077,-3.17576,-0.0907952,-0.649814,16.8924,0.283396,
2,0,0,1,0,32680,0.282208,0.281859,-0.692373,17,0.0180457,10,-0.000195151,-3.15966,-0.103037,-0.572613,15.3691,0.281859,
2,0,0,1,0,32680.1,0.280709,0.280393,-0.716496,17,0.0180186,10,-0.0002009,-3.14479,-0.112562,-0.524158,14.5661,0.280393,
2,0,0,1,0,32680.1,0.279212,0.2789,-0.738609,17,0.0179908,10,-0.000205998,-3.13159,-0.12474,-0.472986,13.521,0.2789003,
2,0,0,1,0,32680.2,0.277716,0.277406,-0.759696,17,0.0179622,10,-0.000210744,-3.11936,-0.128232,-0.460104,13.4616,0.277406,
2,0,0,1,0,32680.2,0.276216,0.275884,-0.777083,17,0.0179327,10,-0.000214385,-3.10953,-0.152134,-0.387815,11.682,0.275884,
2,0,0,1,0,32680.2,0.274716,0.274366,-0.791046,17,0.0179026,10,-0.000217036,-3.1018,-0.161894,-0.364437,11.2732,0.2743659,
2,0,0,1,0,32680.3,0.27322,0.272914,-0.805161,17,0.017872,10,-0.00021974,-3.09412,-0.172255,-0.342515,10.823,0.272914,
2,0,0,1,0,32680.3,0.271725,0.27138,-0.821322,17,0.0178408,10,-0.000222891,-3.08549,-0.164777,-0.35806,11.5258,0.27138,
2,0,0,1,0,32680.3,0.270221,0.269908,-0.844892,17,0.0178087,10,-0.000228043,-3.0732,-0.175895,-0.335427,10.9861,0.269908,
2,0,0,1,0,32680.4,0.268725,0.268396,-0.85704,17,0.0177762,10,-0.000230026,-3.067,-0.220381,-0.267719,8.92302,0.268396,
2,0,0,1,0,32680.4,0.267228,0.26691,-0.866841,17,0.0177432,10,-0.000231368,-3.06206,-0.201779,-0.292399,9.89179,0.26691,
2,0,0,1,0,32680.5,0.265728,0.265429,-0.886467,17,0.0177097,10,-0.000235294,-3.05234,-0.216808,-0.27213,9.3575,0.265429,
2,0,0,1,0,32680.5,0.264228,0.263903,-0.896971,17,0.0176755,10,-0.000236713,-3.04722,-0.247763,-0.238131,8.32113,0.263903,
2,0,0,1,0,32680.5,0.262732,0.2624,-0.908084,17,0.017641,10,-0.000238281,-3.04187,-0.263079,-0.224267,7.95825,0.2624,
2,0,0,1,0,32680.6,0.261236,0.260901,-0.9196,17,0.017606,10,-0.000239925,-3.0364,-0.308311,-0.191365,6.92063,0.260901,
2,0,0,1,0,32680.6,0.259736,0.25942,-0.933387,17,0.0175705,10,-0.00024214,-3.02994,-0.222121,-0.265621,9.72946,0.25942,
2,0,0,1,0,32680.6,0.258236,0.257914,-0.947441,17,0.0175345,10,-0.000244358,-3.02345,-0.253026,-0.233178,8.62054,0.257914,
2,0,0,1,0,32680.7,0.256741,0.25641,-0.963776,17,0.017498,10,-0.000247122,-3.01602,-0.28378,-0.207908,7.76383,0.25641,
2,0,0,1,0,32680.7,0.255241,0.254901,-0.975153,17,0.017461,10,-0.000248568,-3.01093,-0.306907,-0.192241,7.26253,0.254901,
2,0,0,1,0,32680.8,0.253741,0.253428,-0.981918,17,0.0174237,10,-0.000248846,-3.00792,-0.297767,-0.198141,7.57877,0.253428,
2,0,0,1,0,32680.8,0.252245,0.251916,-0.990366,17,0.017386,10,-0.000249489,-3.0042,-0.256184,-0.230303,8.9076,0.251916,
2,0,0,1,0,32680.8,0.250748,0.250448,-1.00712,17,0.0173479,10,-0.000252232,-2.99692,-0.342521,-0.172252,6.75625,0.2504476,
2,0,0,1,0,32680.9,0.249248,0.248869,-1.01248,17,0.0173093,10,-0.000251974,-2.99462,-0.388816,-0.151743,6.03335,0.248869,
2,0,0,1,0,32680.9,0.247748,0.24744,-1.01973,17,0.0172704,10,-0.000252322,-2.99152,-0.403208,-0.146326,5.87837,0.24744,
2,0,0,1,0,32680.9,0.246252,0.245915,-1.03449,17,0.0172311,10,-0.000254396,-2.98527,-0.258929,-0.227862,9.21383,0.245915,
2,0,0,1,0,32681,0.244756,0.244392,-1.05077,17,0.0171914,10,-0.000256798,-2.97849,-0.368756,-0.159998,6.52177,0.244392,
2,0,0,1,0,32681,0.243252,0.242922,-1.05959,17,0.017151,10,-0.000257397,-2.97486,-0.357784,-0.164904,6.78245,0.242922,
2,0,0,1,0,32681.1,0.241756,0.241493,-1.06675,17,0.0171106,10,-0.000257613,-2.97194,-0.350317,-0.168419,7.00935,0.241493,
2,0,0,1,0,32681.1,0.240261,0.239974,-1.07505,17,0.0170698,10,-0.000257984,-2.96857,-0.325126,-0.181468,7.6191,0.239974,
2,0,0,1,0,32681.1,0.238761,0.238446,-1.0854,17,0.0170285,10,-0.000258809,-2.96441,-0.35268,-0.16729,7.10922,0.238446,
2,0,0,1,0,32681.2,0.237261,0.236952,-1.09389,17,0.0169868,10,-0.000259198,-2.96103,-0.44018,-0.134036,5.73848,0.236952,
2,0,0,1,0,32681.2,0.235765,0.235438,-1.10058,17,0.0169449,10,-0.00025912,-2.95838,-0.423236,-0.139402,6.03702,0.235438,
2,0,0,1,0,32681.2,0.234268,0.233925,-1.11306,17,0.0169027,10,-0.000260372,-2.95348,-0.49476,-0.11925,5.19663,0.233925,
2,0,0,1,0,32681.3,0.232768,0.232431,-1.12638,17,0.01686,10,-0.000261805,-2.94832,-0.438265,-0.134622,5.89507,0.232431,
2,0,0,1,0,32681.3,0.231268,0.230941,-1.13588,17,0.0168169,10,-0.000262321,-2.94467,-0.528242,-0.111691,4.92375,0.230941,
2,0,0,1,0,32681.4,0.229772,0.229485,-1.14407,17,0.0167736,10,-0.000262547,-2.94155,-0.585689,-0.100736,4.47821,0.229485,
2,0,0,1,0,32681.4,0.228275,0.227948,-1.15093,17,0.01673,10,-0.000262351,-2.93895,-0.374308,-0.157624,7.07986,0.227948,
2,0,0,1,0,32681.4,0.226772,0.226464,-1.15818,17,0.0166859,10,-0.000262285,-2.93623,-0.487439,-0.121041,5.48042,0.226464,
2,0,0,1,0,32681.5,0.225276,0.22495,-1.1659,17,0.0166415,10,-0.000262269,-2.93334,-0.457996,-0.128822,5.8844,0.22495,
2,0,0,1,0,32681.5,0.223781,0.223466,-1.17424,17,0.0165969,10,-0.000262401,-2.93024,-0.534281,-0.110429,5.09276,0.223466,
2,0,0,1,0,32681.5,0.222281,0.22195,-1.18643,17,0.0165518,10,-0.000263328,-2.92576,-0.447709,-0.131782,6.10715,0.22195,
2,0,0,1,0,32681.6,0.220781,0.220424,-1.19398,17,0.0165064,10,-0.000263182,-2.923,-0.410751,-0.143639,6.70841,0.220424,
2,0,0,1,0,32681.6,0.219284,0.218962,-1.20992,17,0.0164608,10,-0.000264927,-2.91724,-0.435365,-0.135518,6.35369,0.218962,
2,0,0,1,0,32681.7,0.217788,0.217467,-1.21808,17,0.0164147,10,-0.000264892,-2.91432,-0.437527,-0.134849,6.36902,0.217467,
2,0,0,1,0,32681.7,0.216288,0.215973,-1.21717,17,0.0163683,10,-0.000262875,-2.91465,-0.528056,-0.111731,5.33057,0.215973,
2,0,0,1,0,32681.7,0.214788,0.214486,-1.22724,17,0.0163216,10,-0.000263226,-2.91107,-0.588548,-0.100247,4.83301,0.214486,
2,0,0,1,0,32681.8,0.213292,0.212963,-1.23996,17,0.0162746,10,-0.000264065,-2.90659,-0.371568,-0.158786,7.71529,0.212963,
2,0,0,1,0,32681.8,0.211796,0.211448,-1.24728,17,0.0162273,10,-0.000263735,-2.90403,-0.480417,-0.12281,5.98546,0.211448,
2,0,0,1,0,32681.8,0.210293,0.209966,-1.26089,17,0.0161794,10,-0.000264745,-2.89932,-0.53115,-0.11108,5.46389,0.2099663,
2,0,0,1,0,32681.9,0.208797,0.208438,-1.26825,17,0.0161315,10,-0.000264352,-2.8968,-0.361017,-0.163427,8.09723,0.208438,
2,0,0,1,0,32681.9,0.207301,0.206987,-1.27797,17,0.0160831,10,-0.000264524,-2.89348,-0.387338,-0.152322,7.57495,0.206987,
2,0,0,1,0,32682,0.205801,0.205498,-1.29356,17,0.0160342,10,-0.000265824,-2.88821,-0.481528,-0.122527,6.13665,0.205498,
2,0,0,1,0,32682,0.204301,0.203947,-1.29675,17,0.0159849,10,-0.000264469,-2.88714,-0.621623,-0.0949129,4.80367,0.203947,
2,0,0,1,0,32682,0.202804,0.202496,-1.30022,17,0.0159356,10,-0.000263289,-2.88598,-0.617736,-0.0955101,4.87789,0.202496,
2,0,0,1,0,32682.1,0.201308,0.200954,-1.31214,17,0.0158859,10,-0.000263679,-2.88202,-0.437891,-0.134737,6.92057,0.200954,
2,0,0,1,0,32682.1,0.199808,0.199491,-1.32139,17,0.0158356,10,-0.000263606,-2.87897,-0.43058,-0.137024,7.08979,0.199491,
2,0,0,1,0,32682.1,0.198308,0.197991,-1.33692,17,0.015785,10,-0.000264698,-2.87389,-0.596634,-0.0988881,5.15257,0.197991,
2,0,0,1,0,32682.2,0.196812,0.196481,-1.34326,17,0.0157343,10,-0.000263925,-2.87184,-0.448851,-0.131447,6.88256,0.196481,
2,0,0,1,0,32682.2,0.195316,0.194993,-1.35714,17,0.0156831,10,-0.000264633,-2.86738,-0.370391,-0.159291,8.40594,0.1949928,
2,0,0,1,0,32682.3,0.193813,0.19347,-1.3721,17,0.0156313,10,-0.000265459,-2.86262,-0.399951,-0.147518,7.8378,0.19347,
2,0,0,1,0,32682.3,0.192317,0.192,-1.37595,17,0.0155792,10,-0.000264183,-2.8614,-0.522341,-0.112953,6.0593,0.192,
2,0,0,1,0,32682.3,0.190821,0.190499,-1.37815,17,0.0155269,10,-0.000262537,-2.8607,-0.497397,-0.118618,6.41477,0.190499,
2,0,0,1,0,32682.4,0.189321,0.188985,-1.38984,17,0.0154741,10,-0.00026266,-2.85703,-0.463182,-0.12738,6.96265,0.188985,
2,0,0,1,0,32682.4,0.187821,0.187492,-1.40383,17,0.0154208,10,-0.000263207,-2.85269,-0.401811,-0.146835,8.07603,0.187492,
2,0,0,1,0,32682.4,0.186324,0.185997,-1.42033,17,0.0153672,10,-0.000264177,-2.84761,-0.473448,-0.124618,6.88915,0.185997,
2,0,0,1,0,32682.5,0.184828,0.184529,-1.43136,17,0.0153132,10,-0.000264127,-2.84425,-0.409031,-0.144243,8.05333,0.184529,
2,0,0,1,0,32682.5,0.183328,0.183053,-1.44316,17,0.0152587,10,-0.000264175,-2.84069,-0.396955,-0.148631,8.34358,0.1830534,
2,0,0,1,0,32682.6,0.181828,0.181487,-1.45561,17,0.0152036,10,-0.000264175,-2.83695,-0.347644,-0.169714,9.6119,0.181487,
2,0,0,1,0,32682.6,0.180332,0.180006,-1.47199,17,0.0151481,10,-0.000264966,-2.8321,-0.391277,-0.150788,8.63967,0.180006,
2,0,0,1,0,32682.6,0.178836,0.178558,-1.47963,17,0.0150922,10,-0.000264201,-2.82985,-0.387917,-0.152094,8.80577,0.178558,
2,0,0,1,0,32682.7,0.177333,0.177006,-1.49206,17,0.0150355,10,-0.000264104,-2.82621,-0.334739,-0.176257,10.3383,0.177006,
2,0,0,1,0,32682.7,0.175837,0.175471,-1.50917,17,0.0149785,10,-0.000264815,-2.82126,-0.298754,-0.197487,11.6596,0.175471,
2,0,0,1,0,32682.7,0.174341,0.173979,-1.52447,17,0.014921,10,-0.000265225,-2.81688,-0.331769,-0.177835,10.6036,0.173979,
2,0,0,1,0,32682.8,0.172841,0.172513,-1.54555,17,0.0148626,10,-0.000266627,-2.81092,-0.309799,-0.190446,11.4505,0.172513,
2,0,0,1,0,32682.8,0.171341,0.170996,-1.55742,17,0.0148037,10,-0.000266313,-2.80759,-0.333275,-0.177031,10.7794,0.170996,
2,0,0,1,0,32682.9,0.169844,0.169485,-1.58246,17,0.0147443,10,-0.000268203,-2.80067,-0.266059,-0.221756,13.6658,0.169485,
2,0,0,1,0,32682.9,0.168348,0.168012,-1.6057,17,0.0146841,10,-0.000269777,-2.79434,-0.276966,-0.213023,13.2788,0.168012,
2,0,0,1,0,32682.9,0.166848,0.166522,-1.62165,17,0.0146228,10,-0.000270041,-2.79004,-0.258069,-0.228621,14.4668,0.166522,
2,0,0,1,0,32683,0.165348,0.165004,-1.63707,17,0.0145609,10,-0.000270124,-2.78593,-0.251175,-0.234896,15.1204,0.165004,
2,0,0,1,0,32683,0.163852,0.16351,-1.66528,17,0.0144984,10,-0.000272289,-2.77851,-0.218688,-0.26979,17.6175,0.16351,
2,0,0,1,0,32683,0.162357,0.162022,-1.69534,17,0.0144348,10,-0.000274682,-2.77074,-0.206241,-0.286073,18.9243,0.162022,
2,0,0,1,0,32683.1,0.160853,0.160492,-1.72229,17,0.0143698,10,-0.000276413,-2.76389,-0.212642,-0.277462,18.6511,0.160492,
2,0,0,1,0,32683.1,0.159357,0.159027,-1.75741,17,0.0143041,10,-0.000279475,-2.75513,-0.188509,-0.312982,21.376,0.159027,
2,0,0,1,0,32683.2,0.157861,0.157537,-1.78782,17,0.0142372,10,-0.000281648,-2.74768,-0.168626,-0.349886,24.4044,0.157537,
2,0,0,1,0,32683.2,0.156361,0.156021,-1.82152,17,0.0141689,10,-0.000284196,-2.73957,-0.152117,-0.387858,27.5907,0.1560214,
2,0,0,1,0,32683.2,0.154861,0.154533,-1.86401,17,0.014099,10,-0.000288051,-2.72955,-0.149882,-0.393644,28.6844,0.154533,
2,0,0,1,0,32683.3,0.153364,0.153033,-1.90617,17,0.0140277,10,-0.000291707,-2.71984,-0.154747,-0.381268,28.4997,0.153033,
2,0,0,1,0,32683.3,0.151868,0.151508,-1.94966,17,0.0139548,10,-0.00029539,-2.71004,-0.139682,-0.422387,32.3832,0.151508,
2,0,0,1,0,32683.3,0.150368,0.150017,-2.00779,17,0.0138798,10,-0.000301202,-2.69728,-0.118276,-0.498833,39.2171,0.150017,
2,0,0,1,0,32683.4,0.148868,0.148546,-2.07442,17,0.0138026,10,-0.000308147,-2.6831,-0.105776,-0.557782,45.1278,0.148546,
2,0,0,1,0,32683.4,0.147372,0.147054,-2.14414,17,0.0137231,10,-0.000315304,-2.66875,-0.103566,-0.569683,47.5051,0.147054,
2,0,0,1,0,32683.5,0.145877,0.145521,-2.21269,17,0.013641,10,-0.000321994,-2.65508,-0.0974298,-0.605564,52.3496,0.145521,
2,0,0,1,0,32683.5,0.144373,0.14404,-2.29314,17,0.0135556,10,-0.000330304,-2.63957,-0.0912862,-0.646319,58.033,0.14404,
2,0,0,1,0,32683.5,0.142877,0.142519,-2.38306,17,0.0134673,10,-0.00033963,-2.62287,-0.0873517,-0.675431,63.0157,0.1425187,
2,0,0,1,0,32683.6,0.14138,0.14101,-2.47985,17,0.0133755,10,-0.000349683,-2.60558,-0.0867476,-0.680134,65.9598,0.14101,
2,0,0,1,0,32683.6,0.13988,0.139547,-2.58521,17,0.0132796,10,-0.000360759,-2.5875,-0.084855,-0.695304,70.2984,0.139547,
2,0,0,1,0,32683.6,0.13838,0.138078,-2.69461,17,0.0131799,10,-0.000372066,-2.5695,-0.0843259,-0.699667,73.7636,0.138078,
2,0,0,1,0,32683.7,0.136884,0.136573,-2.81465,17,0.0130761,10,-0.000384407,-2.55057,-0.0834086,-0.707361,77.6206,0.136573,
2,0,0,1,0,32683.7,0.135388,0.135058,-2.9341,17,0.012968,10,-0.000396273,-2.53252,-0.0852902,-0.691756,78.9864,0.135058,
2,0,0,1,0,32683.8,0.133888,0.13354,-3.06038,17,0.0128549,10,-0.000408683,-2.51422,-0.0882085,-0.66887,79.4852,0.13354,
2,0,0,1,0,32683.8,0.132389,0.132053,-3.16633,17,0.0127376,10,-0.000418125,-2.49944,-0.0913233,-0.646056,79.8544,0.132053,
2,0,0,1,0,32683.8,0.130893,0.130558,-3.28645,17,0.0126161,10,-0.000429072,-2.48327,-0.0939463,-0.628018,80.4801,0.130558,
2,0,0,1,0,32683.9,0.129393,0.129032,-3.40591,17,0.0124897,10,-0.000439472,-2.46777,-0.10114,-0.583349,77.4881,0.129032,
2,0,0,1,0,32683.9,0.127893,0.127532,-3.51808,17,0.012359,10,-0.000448669,-2.45369,-0.111185,-0.530649,72.8307,0.127532,
2,0,0,1,0,32683.9,0.126397,0.126037,-3.62293,17,0.0122245,10,-0.000456624,-2.44094,-0.121149,-0.487003,68.8258,0.126037,
2,0,0,1,0,32684,0.1249,0.124561,-3.73118,17,0.0120863,10,-0.00046476,-2.42815,-0.129163,-0.456788,66.2961,0.124561,
2,0,0,1,0,32684,0.1234,0.123052,-3.83136,17,0.0119439,10,-0.000471459,-2.41665,-0.14042,-0.420168,62.5052,0.123052,
2,0,0,1,0,32684.1,0.1219,0.121563,-3.91884,17,0.0117979,10,-0.000476386,-2.40684,-0.159943,-0.368881,56.1794,0.121563,
2,0,0,1,0,32684.1,0.120404,0.12014,-3.993,17,0.0116492,10,-0.00047972,-2.3987,-0.178521,-0.330494,51.4602,0.12014,
2,0,0,1,0,32684.1,0.118908,0.118598,-4.07113,17,0.0114976,10,-0.000482828,-2.39028,-0.194611,-0.303169,48.1321,0.118598,
2,0,0,1,0,32684.2,0.117404,0.117041,-4.1405,17,0.0113424,10,-0.000484608,-2.38295,-0.216751,-0.272202,43.9484,0.117041,
2,0,0,1,0,32684.2,0.115909,0.115592,-4.20169,17,0.0111855,10,-0.000485683,-2.37658,-0.262694,-0.224596,36.7629,0.1155923,
2,0,0,1,0,32684.2,0.114413,0.114106,-4.25765,17,0.0110265,10,-0.000485824,-2.37083,-0.29431,-0.200469,33.254,0.114106,
2,0,0,1,0,32684.3,0.112913,0.112616,-4.30003,17,0.0108654,10,-0.000484252,-2.36653,-0.358557,-0.164548,27.5643,0.112616,
2,0,0,1,0,32684.3,0.111413,0.111085,-4.33839,17,0.0107027,10,-0.000481931,-2.36267,-0.43763,-0.134817,22.7562,0.111085,
2,0,0,1,0,32684.4,0.109917,0.109585,-4.36966,17,0.0105392,10,-0.000478851,-2.35955,-0.614942,-0.095944,16.3062,0.109585,
2,0,0,1,0,32684.4,0.10842,0.1081,-4.38883,17,0.0103747,10,-0.000474432,-2.35765,-1.04203,-0.0566201,9.6651,0.1081,
2,0,0,1,0,32684.4,0.10692,0.106603,-4.39503,17,0.0102093,10,-0.000468521,-2.35704,-1.78159,-0.0331164,5.68157,0.1066025,
2,0,0,1,0,32684.5,0.10542,0.105108,-4.39603,17,0.0100436,10,-0.000462059,-2.35694,-8.16279,-0.00722792,1.2406,0.105108,
2,0,0,1,0,32684.5,0.103924,0.103594,-4.40021,17,0.00987823,10,-0.000455835,-2.35653,2.77324,0.0212748,-3.64911,0.103594,
2,0,0,1,0,32684.5,0.102427,0.102077,-4.3911,17,0.00971307,10,-0.000448232,-2.35743,0.847045,0.0696539,-11.9127,0.102077,
2,0,0,1,0,32684.6,0.100924,0.100624,-4.36797,17,0.00954764,10,-0.000439523,-2.35972,0.695485,0.0848329,-14.4506,0.100624,
2,0,0,1,0,32684.6,0.0994284,0.0990891,-4.35151,17,0.00938403,10,-0.000431187,-2.36136,0.601083,0.0981562,-16.6153,0.0990891,
2,0,0,1,0,32684.7,0.0979329,0.0976195,-4.31993,17,0.0092213,10,-0.00042171,-2.36452,0.531258,0.111057,-18.6801,0.0976195,
2,0,0,1,0,32684.7,0.0964329,0.096104,-4.28464,17,0.00905927,10,-0.000411771,-2.36809,0.418213,0.141077,-23.5518,0.096104,
2,0,0,1,0,32684.7,0.094933,0.0945833,-4.24105,17,0.00889854,10,-0.000401133,-2.37253,0.372978,0.158186,-26.2137,0.0945833,
2,0,0,1,0,32684.8,0.0934366,0.0930897,-4.2023,17,0.00873976,10,-0.000391191,-2.37651,0.397345,0.148486,-24.437,0.0930897,
2,0,0,1,0,32684.8,0.0919401,0.0916222,-4.17138,17,0.00858234,10,-0.000382191,-2.37972,0.380151,0.155202,-25.2871,0.0916222,
2,0,0,1,0,32684.8,0.0904402,0.0901259,-4.13593,17,0.00842569,10,-0.000372754,-2.38343,0.357697,0.164944,-26.589,0.0901259,
2,0,0,1,0,32684.9,0.0889402,0.0885888,-4.09642,17,0.00827061,10,-0.000362897,-2.3876,0.34262,0.172202,-27.5532,0.0885888,
2,0,0,1,0,32684.9,0.0874438,0.087075,-4.06445,17,0.00811748,10,-0.000353912,-2.391,0.387985,0.152068,-24.084,0.087075,
2,0,0,1,0,32685,0.0859483,0.085602,-4.02831,17,0.00796562,10,-0.000344831,-2.39488,0.455693,0.129473,-20.3198,0.08560203,
2,0,0,1,0,32685,0.0844447,0.0841107,-3.99016,17,0.00781422,10,-0.000335615,-2.39901,0.461243,0.127915,-19.9342,0.08411067,
2,0,0,1,0,32685,0.0829492,0.0826203,-3.9585,17,0.00766474,10,-0.000327053,-2.40247,0.477907,0.123455,-19.0786,0.0826203,
2,0,0,1,0,32685.1,0.0814528,0.0811543,-3.92883,17,0.00751644,10,-0.000318842,-2.40574,0.479295,0.123097,-18.936,0.0811543,
2,0,0,1,0,32685.1,0.0799528,0.0796192,-3.90348,17,0.0073688,10,-0.000310792,-2.40855,0.6125,0.0963265,-14.7014,0.0796192,
2,0,0,1,0,32685.1,0.0784529,0.0781443,-3.88186,17,0.00722199,10,-0.000303346,-2.41096,0.589577,0.100072,-15.1658,0.0781443,
2,0,0,1,0,32685.2,0.0769565,0.0766392,-3.86429,17,0.00707636,10,-0.000296156,-2.41293,0.5503,0.107214,-16.1356,0.0766392,
2,0,0,1,0,32685.2,0.0754601,0.0751071,-3.83887,17,0.00693166,10,-0.000288327,-2.4158,0.567872,0.103897,-15.5601,0.0751071,
2,0,0,1,0,32685.3,0.0739601,0.0736245,-3.82049,17,0.00678743,10,-0.000281282,-2.41788,0.635354,0.0928616,-13.8355,0.0736245,
2,0,0,1,0,32685.3,0.0724601,0.072107,-3.79926,17,0.00664388,10,-0.000273953,-2.4203,0.649173,0.0908848,-13.4685,0.072107,
2,0,0,1,0,32685.3,0.0709637,0.0706454,-3.7792,17,0.0065014,10,-0.000266983,-2.4226,0.568961,0.103698,-15.2888,0.0706454,
2,0,0,1,0,32685.4,0.0694682,0.0691644,-3.75261,17,0.00635969,10,-0.000259547,-2.42567,0.660122,0.0893774,-13.129,0.06916444,
2,0,0,1,0,32685.4,0.0679646,0.0676172,-3.73394,17,0.0062181,10,-0.000252478,-2.42783,0.732769,0.0805165,-11.7721,0.0676172,
2,0,0,1,0,32685.4,0.0664691,0.0661319,-3.71919,17,0.00607791,10,-0.000245957,-2.42955,0.72899,0.0809339,-11.748,0.0661319,
2,0,0,1,0,32685.5,0.0649727,0.0646404,-3.70448,17,0.00593827,10,-0.000239459,-2.43127,0.615942,0.0957883,-13.8162,0.0646404,
2,0,0,1,0,32685.5,0.0634727,0.0631408,-3.68594,17,0.00579905,10,-0.000232733,-2.43345,0.566301,0.104185,-14.945,0.0631408,
2,0,0,1,0,32685.6,0.0619728,0.0616391,-3.66007,17,0.00566073,10,-0.000225603,-2.43651,0.594007,0.0993254,-14.187,0.0616391,
2,0,0,1,0,32685.6,0.0604764,0.0601954,-3.63819,17,0.00552359,10,-0.000219002,-2.43911,0.611025,0.0965591,-13.7018,0.06019545,
2,0,0,1,0,32685.6,0.05898,0.0586519,-3.61846,17,0.0053871,10,-0.00021223,-2.44148,0.673399,0.0876152,-12.3814,0.0586519,
2,0,0,1,0,32685.7,0.05748,0.0571774,-3.59291,17,0.00525103,10,-0.000205433,-2.44455,0.56785,0.103901,-14.6024,0.0571774,
2,0,0,1,0,32685.7,0.05598,0.0556358,-3.57083,17,0.00511582,10,-0.000198666,-2.44723,0.552579,0.106772,-14.9125,0.0556358,
2,0,0,1,0,32685.7,0.0544836,0.0541458,-3.55477,17,0.00498178,10,-0.000192476,-2.44919,0.652705,0.0903931,-12.5333,0.0541458,
2,0,0,1,0,32685.8,0.0529881,0.0526653,-3.54254,17,0.00484844,10,-0.000186569,-2.45069,0.585526,0.100764,-13.8896,0.05266533,
2,0,0,1,0,32685.8,0.0514846,0.0511518,-3.51906,17,0.00471511,10,-0.000180006,-2.45357,0.518012,0.113897,-15.5973,0.0511518,
2,0,0,1,0,32685.9,0.049989,0.0496831,-3.4845,17,0.00458348,10,-0.000173121,-2.45786,0.505384,0.116743,-15.895,0.0496831,
2,0,0,1,0,32685.9,0.0484926,0.0481461,-3.46817,17,0.00445274,10,-0.000166979,-2.4599,0.497562,0.118578,-16.0457,0.0481461,
2,0,0,1,0,32685.9,0.0469927,0.0466541,-3.43983,17,0.00432244,10,-0.000160482,-2.46346,0.51676,0.114173,-15.3493,0.0466541,
2,0,0,1,0,32686,0.0454927,0.0451594,-3.4179,17,0.00419294,10,-0.00015435,-2.46624,0.446577,0.132116,-17.6363,0.0451594,
2,0,0,1,0,32686,0.0439963,0.0436715,-3.39558,17,0.00406468,10,-0.00014829,-2.46909,0.425978,0.138505,-18.3891,0.0436715,
2,0,0,1,0,32686,0.0424999,0.0421888,-3.37092,17,0.00393748,10,-0.000142215,-2.47225,0.494258,0.119371,-15.7271,0.0421888,
2,0,0,1,0,32686.1,0.0409999,0.0406674,-3.35049,17,0.00381075,10,-0.000136255,-2.47489,0.493697,0.119507,-15.6138,0.04066737,
2,0,0,1,0,32686.1,0.0394999,0.0391655,-3.33014,17,0.00368483,10,-0.000130427,-2.47754,0.452816,0.130296,-16.8651,0.0391655,
2,0,0,1,0,32686.2,0.0380044,0.0376492,-3.30311,17,0.00356021,10,-0.00012436,-2.48108,0.399994,0.147502,-18.9767,0.0376492,
2,0,0,1,0,32686.2,0.0365089,0.0361829,-3.26717,17,0.00343674,10,-0.000118216,-2.48583,0.418172,0.14109,-18.0027,0.0361829,
2,0,0,1,0,32686.2,0.0350054,0.0346808,-3.23967,17,0.00331356,10,-0.000112354,-2.4895,0.428818,0.137588,-17.416,0.0346808,
2,0,0,1,0,32686.3,0.033509,0.0331803,-3.21423,17,0.00319201,10,-0.000106649,-2.49292,0.410194,0.143835,-18.0699,0.0331803,
2,0,0,1,0,32686.3,0.0320125,0.0316166,-3.19014,17,0.00307146,10,-0.000100862,-2.49619,0.379079,0.15564,-19.3791,0.0316166,
2,0,0,1,0,32686.3,0.0305126,0.030169,-3.15558,17,0.00295172,10,-9.52007e-05,-2.50092,0.406633,0.145094,-17.9045,0.03016901,
2,0,0,1,0,32686.4,0.0290126,0.0286572,-3.13475,17,0.00283306,10,-8.98334e-05,-2.5038,0.441252,0.13371,-16.3507,0.0286572,
2,0,0,1,0,32686.4,0.0275162,0.0271757,-3.10851,17,0.0027156,10,-8.44762e-05,-2.50745,0.442288,0.133397,-16.1519,0.0271757,
2,0,0,1,0,32686.5,0.0260198,0.0256702,-3.08777,17,0.00259906,10,-7.92639e-05,-2.51035,0.386083,0.152817,-18.3539,0.02567024,
2,0,0,1,0,32686.5,0.0245198,0.0242007,-3.05114,17,0.00248326,10,-7.38398e-05,-2.51554,0.398843,0.147928,-17.634,0.0242007,
2,0,0,1,0,32686.5,0.0230198,0.0227107,-3.02627,17,0.00236857,10,-6.87286e-05,-2.51909,0.428834,0.137582,-16.2859,0.0227107,
2,0,0,1,0,32686.6,0.0215243,0.0211868,-3.00345,17,0.00225501,10,-6.36333e-05,-2.52238,0.45078,0.130884,-15.3563,0.0211868,
2,0,0,1,0,32686.6,0.0200288,0.0197066,-2.97917,17,0.00214232,10,-5.87094e-05,-2.52591,0.416484,0.141662,-16.4836,0.0197066,
2,0,0,1,0,32686.6,0.0185253,0.0182097,-2.9572,17,0.00202993,10,-5.38497e-05,-2.52912,0.407378,0.144829,-16.7199,0.0182097,
2,0,0,1,0,32686.7,0.0170289,0.0166878,-2.93745,17,0.00191909,10,-4.90196e-05,-2.53203,0.525455,0.112284,-12.8739,0.0166878,
2,0,0,1,0,32686.7,0.0155325,0.0151645,-2.91513,17,0.00180899,10,-4.42066e-05,-2.53534,0.552947,0.106701,-12.1231,0.0151645,
2,0,0,1,0,32686.8,0.0140325,0.0137052,-2.89875,17,0.00169918,10,-3.97279e-05,-2.53779,0.570736,0.103375,-11.6827,0.0137052,
2,0,0,1,0,32686.8,0.0125325,0.0121723,-2.87929,17,0.00159008,10,-3.50475e-05,-2.54072,0.566353,0.104175,-11.7114,0.0121723,
2,0,0,1,0,32686.8,0.0110361,0.0106812,-2.85931,17,0.00148206,10,-3.0541e-05,-2.54374,0.54338,0.10858,-12.1392,0.0106812,
2,0,0,1,0,32686.9,0.0095397,0.0092318,-2.84517,17,0.00137461,10,-2.6266e-05,-2.54589,0.810489,0.0727956,-8.10207,0.0092318,
2,0,0,1,0,32686.9,0.00803616,0.00769391,-2.83275,17,0.00126713,10,-2.17949e-05,-2.54779,0.85463,0.0690358,-7.64137,0.00769391,
2,0,0,1,0,32686.9,0.00654064,0.00618294,-2.82147,17,0.00116067,10,-1.7445e-05,-2.54953,0.833089,0.0708208,-7.79326,0.00618294,
2,0,0,1,0,32687,0.00504513,0.00472719,-2.80829,17,0.00105467,10,-1.32753e-05,-2.55156,0.978301,0.0603087,-6.61067,0.00472719,
2,0,0,1,0,32687,0.00354515,0.00321336,-2.80455,17,0.000948805,10,-9.01205e-06,-2.55214,-6.37557,-0.00925407,1.01517,0.00321336,
2,0,0,1,0,32687.1,0.00204518,0.00166453,-2.83643,17,0.000842904,10,-4.72133e-06,-2.54723,-6.69837,-0.00880811,0.963441,0.00166453,
2,0,0,1,0,32687.1,0.000548773,0.000223266,-2.79916,17,0.000736982,10,-6.24959e-07,-2.55297, , , ,0.000223266,
2,0,0,1,0,32687.1,0.000177222,-0.000226451,-2.80461,17,0.000710747,10,6.35108e-07,-2.55213, , , ,-0.000226451,