File: Figure_codes/Fig_S3_S4/20221101_1-115_003_TrumpetPlot_ParaChange_from10_every3_02_CV_C01_16.csv
mode,ox/red,error,control changes,counter inc.,time/s,control/V,Ewe/V,<I>/mA,cycle number,(Q-Qo)/C,I Range,P/W,log(|I|),Tafel slope mV/dec,alpha_eff,dI/d(E-IR),E-IR/V,
2,0,0,1,0,31862.1,2.44065e-05,-0.000325324,-0.383064,17,0.0000000E+000,10,1.2462e-07,-3.41673, , , ,-0.000325324,
2,0,0,1,0,31863.4,0.00129791,0.000933446,-0.177579,17,-0.000258576,10,-1.6576e-07,-3.75061, , , ,0.000933446,
2,0,0,1,0,31864.9,0.00279612,0.0024318,-0.143069,17,-0.000475709,10,-3.47916e-07,-3.84445,-0.0180035,-3.27714,19.6899,0.0024318,
2,0,0,1,0,31866.4,0.00429431,0.00400543,-0.122533,17,-0.000654877,10,-4.90797e-07,-3.91175,-0.0253,-2.33201,11.379,0.00400543,
2,0,0,1,0,31867.9,0.00579242,0.00544964,-0.10796,17,-0.000807938,10,-5.88345e-07,-3.96674,-0.027989,-2.10797,8.9997,0.00544964,
2,0,0,1,0,31869.4,0.00729061,0.00697237,-0.095698,17,-0.000941352,10,-6.67242e-07,-4.0191,-0.0301767,-1.95515,7.39988,0.00697237,
2,0,0,1,0,31870.9,0.00878882,0.00845907,-0.0860023,17,-0.0010588,10,-7.27499e-07,-4.06549,-0.0334865,-1.7619,5.99736,0.008459066,
2,0,0,1,0,31872.4,0.010287,0.00999457,-0.0780236,17,-0.00116303,10,-7.79812e-07,-4.10777,-0.0369455,-1.59695,4.90743,0.009994572,
2,0,0,1,0,31873.9,0.0117852,0.0114409,-0.0716371,17,-0.00125684,10,-8.19596e-07,-4.14486,-0.0382881,-1.54095,4.29481,0.0114409,
2,0,0,1,0,31875.4,0.0132834,0.0129234,-0.0653898,17,-0.00134113,10,-8.45058e-07,-4.18449,-0.0368952,-1.59912,4.07564,0.0129234,
2,0,0,1,0,31876.9,0.0147815,0.0144153,-0.0601441,17,-0.00141657,10,-8.66998e-07,-4.22081,-0.0391822,-1.50579,3.51418,0.0144153,
2,0,0,1,0,31878.4,0.0162797,0.0159741,-0.0549018,17,-0.0014841,10,-8.77007e-07,-4.26041,-0.041789,-1.41185,3.0335,0.0159741,
2,0,0,1,0,31879.9,0.0177779,0.0174492,-0.0502961,17,-0.00154492,10,-8.77626e-07,-4.29847,-0.0401323,-1.47014,2.88809,0.0174492,
2,0,0,1,0,31881.4,0.0192761,0.0189549,-0.045853,17,-0.00159967,10,-8.6914e-07,-4.33863,-0.0391887,-1.50553,2.72373,0.0189549,
2,0,0,1,0,31882.9,0.0207743,0.0204523,-0.0421925,17,-0.00164794,10,-8.62933e-07,-4.37476,-0.0396,-1.4899,2.46791,0.0204523,
2,0,0,1,0,31884.4,0.0222725,0.0219538,-0.0386961,17,-0.00169065,10,-8.49527e-07,-4.41233,-0.0391019,-1.50888,2.28367,0.0219538,
2,0,0,1,0,31885.9,0.0237707,0.0234352,-0.0352512,17,-0.00172826,10,-8.26118e-07,-4.45283,-0.04025,-1.46584,2.02975,0.0234352,
2,0,0,1,0,31887.4,0.0252689,0.0249803,-0.0324858,17,-0.00176114,10,-8.11503e-07,-4.48831,-0.0354349,-1.66503,2.09209,0.0249803,
2,0,0,1,0,31888.9,0.0267671,0.0264277,-0.0295582,17,-0.00178933,10,-7.81155e-07,-4.52932,-0.031776,-1.85675,2.12903,0.0264277,
2,0,0,1,0,31890.4,0.0282653,0.0279558,-0.0265948,17,-0.00181269,10,-7.43478e-07,-4.5752,-0.0315754,-1.86854,1.90778,0.0279558,
2,0,0,1,0,31891.9,0.0297635,0.0294106,-0.0233324,17,-0.0018317,10,-6.86221e-07,-4.63204,-0.0277804,-2.1238,1.91238,0.0294106,
2,0,0,1,0,31893.4,0.0312617,0.03091,-0.0212959,17,-0.00184636,10,-6.58257e-07,-4.6717,-0.0247648,-2.38241,1.90988,0.03091,
2,0,0,1,0,31894.9,0.0327599,0.0324084,-0.0172175,17,-0.0018567,10,-5.57993e-07,-4.76403,-0.0241658,-2.44147,1.68116,0.0324084,
2,0,0,1,0,31896.3,0.0342581,0.0339238,-0.0152027,17,-0.00186277,10,-5.15732e-07,-4.81808,-0.019153,-3.08045,1.78057,0.03392376,
2,0,0,1,0,31897.8,0.0357563,0.0354561,-0.0125456,17,-0.00186488,10,-4.44817e-07,-4.90151,-0.020587,-2.86589,1.44023,0.0354561,
2,0,0,1,0,31899.3,0.0372544,0.0369278,-0.0107528,17,-0.0018637,10,-3.97076e-07,-4.96848,-0.0121426,-4.85894,1.83358,0.0369278,
2,0,0,1,0,31900.8,0.0387526,0.0384198,-0.00814805,17,-0.00185895,10,-3.13046e-07,-5.08895,-0.0116883,-5.0478,1.51858,0.0384198,
2,0,0,1,0,31902.3,0.0402508,0.0399595,-0.00574919,17,-0.0018499,10,-2.29735e-07,-5.24039,-0.00837577,-7.04413,1.44377,0.0399595,
2,0,0,1,0,31903.8,0.041749,0.0414663,-0.00360923,17,-0.00183769,10,-1.49662e-07,-5.44259,-0.00594755,-9.92006,1.18685,0.0414663,
2,0,0,1,0,31905.3,0.0432472,0.042934,-0.00146074,17,-0.00182276,10,-6.27154e-08,-5.83543,-0.00636244,-9.27318,1.35298,0.042934,
2,1,0,1,0,31906.8,0.0447454,0.0444249,0.000669323,17,-0.00180497,10,2.97346e-08,-6.17436,0.0274221,2.15155,1.4949,0.0444249,
2,0,0,1,0,31908.3,0.0462435,0.045919,0.00276612,17,-0.00178357,10,1.27017e-07,-5.55813,0.00399241,14.7781,1.59421,0.045919,
2,1,0,1,0,31909.8,0.0477417,0.0474109,0.00539317,17,-0.00175844,10,2.55695e-07,-5.26816,0.00628451,9.38817,1.58888,0.0474109,
2,0,0,1,0,31911.3,0.0492399,0.0489178,0.0071591,17,-0.00173008,10,3.50207e-07,-5.14514,0.0116464,5.06596,1.39085,0.0489178,
2,0,0,1,0,31912.8,0.0507381,0.0503917,0.00865119,17,-0.00169873,10,4.35948e-07,-5.06292,0.0144048,4.09586,1.43709,0.0503917,
2,1,0,1,0,31914.3,0.0522363,0.0518859,0.0113815,17,-0.00166406,10,5.90538e-07,-4.9438,0.0162876,3.62238,1.48109,0.0518859,
2,1,0,1,0,31915.8,0.0537345,0.0534118,0.0136874,17,-0.00162571,10,7.31068e-07,-4.86368,0.0225497,2.61644,1.32077,0.0534118,
2,1,0,1,0,31917.3,0.0552327,0.0549261,0.0150328,17,-0.00158538,10,8.2569e-07,-4.82296,0.034294,1.72042,1.00043,0.0549261,
2,1,0,1,0,31918.8,0.0567309,0.0563948,0.0160003,17,-0.00154254,10,9.02334e-07,-4.79587,0.0312592,1.88744,1.20253,0.0563948,
2,1,0,1,0,31920.3,0.0582291,0.0579069,0.0188084,17,-0.00149692,10,1.08914e-06,-4.72565,0.0303089,1.94662,1.39856,0.0579069,
2,0,0,1,0,31921.8,0.0597273,0.0593873,0.0210767,17,-0.00144806,10,1.25169e-06,-4.6762,0.0352682,1.6729,1.3148,0.0593873,
2,1,0,1,0,31923.3,0.0612255,0.0608782,0.0225956,17,-0.00139614,10,1.37558e-06,-4.64598,0.0663912,0.888672,0.758918,0.0608782,
2,1,0,1,0,31924.8,0.0627237,0.0624084,0.0242084,17,-0.00134179,10,1.51081e-06,-4.61603,0.0415621,1.41956,1.34411,0.06240841,
2,1,0,1,0,31926.3,0.0642219,0.0639024,0.0253821,17,-0.00128558,10,1.62198e-06,-4.59547,0.0492374,1.19828,1.21768,0.0639024,
2,1,0,1,0,31927.8,0.0657201,0.0654019,0.0276768,17,-0.00122594,10,1.81011e-06,-4.55788,0.057121,1.03289,1.08438,0.0654019,
2,1,0,1,0,31929.3,0.0672183,0.066878,0.0290761,17,-0.00116387,10,1.94455e-06,-4.53646,0.0707398,0.834042,0.931446,0.066878,
2,1,0,1,0,31930.8,0.0687164,0.0683954,0.0305351,17,-0.0010996,10,2.08846e-06,-4.5152,0.0803933,0.733892,0.85451,0.0683954,
2,1,0,1,0,31932.3,0.0702146,0.0698863,0.0323158,17,-0.00103372,10,2.25843e-06,-4.49058,0.0831537,0.70953,0.875672,0.0698863,
2,1,0,1,0,31933.8,0.0717128,0.0713836,0.0329094,17,-0.000965571,10,2.34919e-06,-4.48268,0.062492,0.944121,1.20864,0.0713836,
2,1,0,1,0,31935.3,0.073211,0.0728978,0.0345154,17,-0.000894917,10,2.5161e-06,-4.46199,0.0763724,0.77253,1.04637,0.0728978,
2,1,0,1,0,31936.8,0.0747092,0.0743613,0.0355274,17,-0.000822399,10,2.64186e-06,-4.44944,0.0839649,0.702674,0.996411,0.0743613,
2,1,0,1,0,31938.3,0.0762074,0.0758638,0.0372936,17,-0.000747824,10,2.82923e-06,-4.42837,0.0850878,0.693401,1.01799,0.0758638,
2,1,0,1,0,31939.8,0.0777055,0.0773716,0.0387607,17,-0.000670642,10,2.99898e-06,-4.41161,0.0724888,0.813919,1.23675,0.0773716,
2,1,0,1,0,31941.3,0.0792037,0.0788817,0.0406565,17,-0.000591199,10,3.20705e-06,-4.39087,0.0918673,0.642231,1.00651,0.0788817,
2,1,0,1,0,31942.8,0.0807019,0.0803906,0.0419068,17,-0.000509086,10,3.36891e-06,-4.37772,0.098996,0.595984,0.971017,0.08039061,
2,1,0,1,0,31944.3,0.0822001,0.0818529,0.0431692,17,-0.000425236,10,3.53353e-06,-4.36483,0.0955499,0.617479,1.04961,0.0818529,
2,1,0,1,0,31945.8,0.0836983,0.0833587,0.0450584,17,-0.000338992,10,3.75601e-06,-4.34622,0.100143,0.589159,1.0374,0.0833587,
2,1,0,1,0,31947.3,0.0851965,0.0848465,0.0462312,17,-0.000249977,10,3.92255e-06,-4.33507,0.100175,0.588971,1.08508,0.0848465,
2,1,0,1,0,31948.8,0.0866947,0.0863703,0.0483023,17,-0.000158587,10,4.17189e-06,-4.31603,0.128508,0.459117,0.863249,0.0863703,
2,1,0,1,0,31950.3,0.0881929,0.0878772,0.0503419,17,-6.43103e-05,10,4.4239e-06,-4.29807,0.0959526,0.614887,1.2134,0.0878772,
2,1,0,1,0,31951.8,0.0896911,0.0893607,0.0519504,17,3.20888e-05,10,4.64232e-06,-4.28441,0.0975848,0.604602,1.23118,0.0893607,
2,1,0,1,0,31953.3,0.0911893,0.0909121,0.053761,17,0.000131694,10,4.88753e-06,-4.26953,0.105409,0.559722,1.18585,0.0909121,
2,1,0,1,0,31954.8,0.0926875,0.0923648,0.0560407,17,0.000234784,10,5.17619e-06,-4.2515,0.0824827,0.715301,1.55698,0.0923648,
2,1,0,1,0,31956.3,0.0941857,0.0938918,0.0582915,17,0.000340468,10,5.47309e-06,-4.23439,0.0876086,0.67345,1.53284,0.0938918,
2,1,0,1,0,31957.8,0.0956839,0.0953541,0.0605434,17,0.000449547,10,5.77306e-06,-4.21793,0.0945364,0.624098,1.46415,0.0953541,
2,1,0,1,0,31959.3,0.0971821,0.0968716,0.0627644,17,0.000562301,10,6.08009e-06,-4.20229,0.0890913,0.662242,1.6185,0.0968716,
2,1,0,1,0,31960.8,0.0986803,0.0983626,0.0643201,17,0.000678474,10,6.32669e-06,-4.19165,0.114284,0.516259,1.30408,0.09836255,
2,1,0,1,0,31962.3,0.100178,0.0998576,0.0667603,17,0.000797856,10,6.66652e-06,-4.17548,0.129431,0.45584,1.19711,0.0998576,
2,1,0,1,0,31963.8,0.101677,0.101358,0.0686196,17,0.000919469,10,6.95516e-06,-4.16355,0.124361,0.474426,1.2804,0.101358,
2,1,0,1,0,31965.3,0.103175,0.102877,0.0712144,17,0.00104465,10,7.32629e-06,-4.14743,0.115955,0.508817,1.40342,0.1028766,
2,1,0,1,0,31966.8,0.104673,0.104303,0.0735256,17,0.00117355,10,7.66893e-06,-4.13356,0.129202,0.45665,1.29769,0.104303,
2,1,0,1,0,31968.3,0.106171,0.105853,0.0754728,17,0.00130561,10,7.98903e-06,-4.12221,0.164658,0.358319,1.04814,0.105853,
2,1,0,1,0,31969.8,0.107669,0.10738,0.0763969,17,0.00144023,10,8.20351e-06,-4.11692,0.122641,0.48108,1.45334,0.10738,
2,1,0,1,0,31971.3,0.109167,0.108834,0.078943,17,0.00157722,10,8.59168e-06,-4.10269,0.150214,0.392774,1.21326,0.108834,
2,1,0,1,0,31972.8,0.110666,0.110321,0.0808663,17,0.00171806,10,8.92122e-06,-4.09223,0.156323,0.377424,1.19016,0.110321,
2,1,0,1,0,31974.3,0.112164,0.111862,0.0827361,17,0.00186151,10,9.25507e-06,-4.0823,0.231454,0.254911,0.815958,0.111862,
2,1,0,1,0,31975.8,0.113662,0.113344,0.084737,17,0.00200762,10,9.60442e-06,-4.07193,0.18461,0.319592,1.04735,0.113344,
2,1,0,1,0,31977.3,0.11516,0.114849,0.0857897,17,0.0021552,10,9.85282e-06,-4.06656,0.188961,0.312234,1.04214,0.114849,
2,1,0,1,0,31978.8,0.116658,0.116336,0.0875196,17,0.00230586,10,1.01817e-05,-4.05789,0.180683,0.326538,1.11043,0.116336,
2,1,0,1,0,31980.2,0.118157,0.117822,0.0895943,17,0.00245942,10,1.05562e-05,-4.04772,0.196424,0.300371,1.04732,0.117822,
2,1,0,1,0,31981.7,0.119655,0.119369,0.0910211,17,0.00261538,10,1.08651e-05,-4.04086,0.19511,0.302393,1.07169,0.119369,
2,1,0,1,0,31983.2,0.121153,0.120805,0.0921762,17,0.00277299,10,1.11353e-05,-4.03538,0.224238,0.263113,0.951001,0.120805,
2,1,0,1,0,31984.7,0.122651,0.122349,0.0939501,17,0.00293355,10,1.14947e-05,-4.0271,0.140285,0.420573,1.53943,0.122349,
2,1,0,1,0,31986.2,0.124149,0.123828,0.0960205,17,0.00309669,10,1.189e-05,-4.01764,0.211299,0.279225,1.04159,0.123828,
2,1,0,1,0,31987.7,0.125648,0.125327,0.0973031,17,0.00326252,10,1.21947e-05,-4.01187,0.250926,0.235129,0.889429,0.125327,
2,1,0,1,0,31989.2,0.127146,0.126788,0.0975944,17,0.0034297,10,1.23738e-05,-4.01058,0.336363,0.175406,0.671071,0.1267878,
2,1,0,1,0,31990.7,0.128644,0.128294,0.0992198,17,0.0035984,10,1.27293e-05,-4.0034,0.379051,0.155652,0.601268,0.128294,
2,1,0,1,0,31992.2,0.130142,0.129813,0.0999261,17,0.00376842,10,1.29717e-05,-4.00032,1.05802,0.0557644,0.215664,0.1298131,
2,1,0,1,0,31993.7,0.13164,0.131308,0.0997702,17,0.00393912,10,1.31007e-05,-4.001,-0.908871,-0.0649157,-0.250518,0.1313082,
2,1,0,1,0,31995.2,0.133139,0.132835,0.0985263,17,0.00410864,10,1.30878e-05,-4.00645,-0.312197,-0.188983,-0.729536,0.132835,
2,1,0,1,0,31996.7,0.134637,0.134304,0.0978091,17,0.0042766,10,1.31361e-05,-4.00962,-0.26874,-0.219543,-0.834533,0.134304,
2,1,0,1,0,31998.2,0.136135,0.135787,0.095495,17,0.00444229,10,1.2967e-05,-4.02002,-0.126725,-0.465574,-1.73354,0.1357874,
2,1,0,1,0,31999.7,0.137633,0.137325,0.0929404,17,0.00460464,10,1.2763e-05,-4.0318,-0.104456,-0.56483,-2.03649,0.137325,
2,1,0,1,0,32001.2,0.139131,0.138796,0.0901562,17,0.00476217,10,1.25133e-05,-4.045,-0.0816778,-0.72235,-2.51712,0.138796,
2,1,0,1,0,32002.7,0.14063,0.140279,0.0861648,17,0.00491389,10,1.20871e-05,-4.06467,-0.0817117,-0.722051,-2.4094,0.140279,
2,1,0,1,0,32004.2,0.142128,0.141816,0.082287,17,0.0050598,10,1.16696e-05,-4.08467,-0.0746554,-0.790298,-2.52496,0.141816,
2,1,0,1,0,32005.7,0.143626,0.143338,0.0780282,17,0.00519984,10,1.11844e-05,-4.10775,-0.062621,-0.942176,-2.86357,0.143338,
2,1,0,1,0,32007.2,0.145124,0.14475,0.07411,17,0.00533345,10,1.07274e-05,-4.13012,-0.0610665,-0.96616,-2.79269,0.14475,
2,1,0,1,0,32008.7,0.146622,0.146327,0.0694703,17,0.00546045,10,1.01654e-05,-4.1582,-0.0705125,-0.836731,-2.30361,0.146327,
2,1,0,1,0,32010.2,0.14812,0.14781,0.0661576,17,0.00558194,10,9.77877e-06,-4.17942,-0.0764942,-0.771301,-2.00714,0.14781,
2,1,0,1,0,32011.7,0.149619,0.149322,0.0633971,17,0.00569849,10,9.46661e-06,-4.19793,-0.0784062,-0.752492,-1.87771,0.149322,
2,1,0,1,0,32013.2,0.151117,0.150769,0.0610127,17,0.0058107,10,9.19882e-06,-4.21458,-0.0873128,-0.675731,-1.61425,0.1507688,
2,1,0,1,0,32014.7,0.152615,0.152287,0.0579822,17,0.00591906,10,8.82995e-06,-4.23671,-0.109513,-0.538749,-1.23846,0.1522873,
2,1,0,1,0,32016.2,0.154113,0.153787,0.057424,17,0.00602441,10,8.83105e-06,-4.24091,-0.13333,-0.44251,-0.983626,0.153787,
2,1,0,1,0,32017.7,0.155611,0.155305,0.0555883,17,0.00612766,10,8.63315e-06,-4.25502,-0.137587,-0.428819,-0.927149,0.155305,
2,1,0,1,0,32019.2,0.15711,0.156785,0.0543338,17,0.00622862,10,8.5187e-06,-4.26493,-0.157266,-0.375161,-0.797858,0.156785,
2,1,0,1,0,32020.7,0.158608,0.158279,0.0529813,17,0.00632758,10,8.38581e-06,-4.27588,-0.16796,-0.351274,-0.72844,0.158279,
2,1,0,1,0,32022.2,0.160106,0.159772,0.0517685,17,0.00642458,10,8.27113e-06,-4.28593,-0.196778,-0.299831,-0.611948,0.1597717,
2,1,0,1,0,32023.7,0.161604,0.161247,0.0514833,17,0.00652011,10,8.30151e-06,-4.28833,-0.240407,-0.245417,-0.492037,0.161247,
2,1,0,1,0,32025.2,0.163102,0.162747,0.0506236,17,0.00661476,10,8.23885e-06,-4.29565,-0.465731,-0.126682,-0.250842,0.162747,
2,1,0,1,0,32026.7,0.164601,0.164308,0.0503584,17,0.00670838,10,8.27429e-06,-4.29793,-0.385908,-0.152886,-0.300641,0.164308,
2,1,0,1,0,32028.2,0.166099,0.165756,0.0498066,17,0.00680128,10,8.25572e-06,-4.30271,10.7876,0.00546923,0.0106378,0.165756,
2,1,0,1,0,32029.7,0.167597,0.167292,0.0498313,17,0.00689398,10,8.33638e-06,-4.3025,2.74429,0.0214991,0.0419457,0.167292,
2,1,0,1,0,32031.2,0.169095,0.168731,0.0495373,17,0.00698684,10,8.35848e-06,-4.30507,-0.599207,-0.0984634,-0.191324,0.168731,
2,1,0,1,0,32032.7,0.170593,0.170297,0.0498163,17,0.00707942,10,8.48358e-06,-4.30263,-0.793046,-0.0743967,-0.144868,0.170297,
2,1,0,1,0,32034.2,0.172091,0.171779,0.0492732,17,0.00717118,10,8.46409e-06,-4.30739,-1.00186,-0.0588902,-0.113988,0.1717786,
2,1,0,1,0,32035.7,0.17359,0.173265,0.0492084,17,0.00726288,10,8.52611e-06,-4.30796,-1.37391,-0.0429431,-0.0825156,0.173265,
2,1,0,1,0,32037.2,0.175088,0.174746,0.0495551,17,0.00735466,10,8.65954e-06,-4.30491,2.77369,0.0212713,0.0407399,0.1747456,
2,1,0,1,0,32038.7,0.176586,0.176243,0.0494617,17,0.00744581,10,8.71727e-06,-4.30573,-0.456781,-0.129165,-0.247202,0.176243,
2,1,0,1,0,32040.2,0.178084,0.177727,0.048674,17,0.00753672,10,8.65071e-06,-4.3127,0.784589,0.0751986,0.144264,0.177727,
2,1,0,1,0,32041.7,0.179582,0.179258,0.0492618,17,0.00762758,10,8.83056e-06,-4.30749,2.5022,0.0235792,0.0451238,0.179258,
2,1,0,1,0,32043.2,0.181081,0.180792,0.0493792,17,0.00771873,10,8.92737e-06,-4.30646,57.3214,0.00102928,0.001971,0.180792,
2,1,0,1,0,32044.7,0.182579,0.182285,0.0487519,17,0.00780974,10,8.88675e-06,-4.31201,-10.8763,-0.00542464,-0.0103612,0.182285,
2,1,0,1,0,32046.2,0.184077,0.183751,0.0496011,17,0.00790088,10,9.11423e-06,-4.30451,1.70379,0.0346287,0.0666099,0.183751,
2,1,0,1,0,32047.7,0.185575,0.185249,0.0496391,17,0.00799242,10,9.19559e-06,-4.30418,0.880579,0.0670013,0.128466,0.185249,
2,1,0,1,0,32049.2,0.187073,0.186757,0.0498278,17,0.00808398,10,9.30568e-06,-4.30253,0.690913,0.0853943,0.165697,0.186757,
2,1,0,1,0,32050.7,0.188572,0.188261,0.0497774,17,0.00817569,10,9.37113e-06,-4.30297,1.23035,0.0479537,0.092713,0.188261,
2,1,0,1,0,32052.2,0.19007,0.189745,0.0491996,17,0.0082675,10,9.33539e-06,-4.30804,4.15414,0.0142027,0.0276034,0.189745,
2,1,0,1,0,32053.7,0.191568,0.191238,0.0495745,17,0.00835891,10,9.48053e-06,-4.30474,1.03897,0.0567869,0.109469,0.191238,
2,1,0,1,0,32055.2,0.193066,0.192736,0.0493465,17,0.00845045,10,9.51082e-06,-4.30674,0.826218,0.0714097,0.138274,0.192736,
2,1,0,1,0,32056.7,0.194564,0.194279,0.0497668,17,0.00854206,10,9.66867e-06,-4.30306,-3.38741,-0.0174174,-0.0336209,0.194279,
2,1,0,1,0,32058.2,0.196063,0.195735,0.0495764,17,0.00863391,10,9.70385e-06,-4.30473,-3.43343,-0.017184,-0.0335226,0.195735,
2,1,0,1,0,32059.7,0.197561,0.197292,0.0497136,17,0.0087255,10,9.8081e-06,-4.30352,10.9527,0.00538678,0.0105365,0.197292,
2,1,0,1,0,32061.2,0.199059,0.198746,0.050285,17,0.0088175,10,9.99394e-06,-4.29856,1.01597,0.0580727,0.113125,0.1987458,
2,1,0,1,0,32062.6,0.200557,0.200189,0.0507483,17,0.00891007,10,1.01593e-05,-4.29458,0.745982,0.0790904,0.154864,0.200189,
2,1,0,1,0,32064.1,0.202055,0.201781,0.0504563,17,0.00900274,10,1.01811e-05,-4.29708,1.06592,0.0553512,0.108901,0.201781,
2,1,0,1,0,32065.6,0.203554,0.203175,0.0505494,17,0.00909548,10,1.02704e-05,-4.29628,-22.8542,-0.00258158,-0.00510451,0.203175,
2,1,0,1,0,32067.1,0.205052,0.204747,0.0510505,17,0.00918822,10,1.04524e-05,-4.292,0.511411,0.115367,0.231493,0.204747,
2,1,0,1,0,32068.6,0.20655,0.206195,0.0505863,17,0.00928106,10,1.04306e-05,-4.29597,0.550945,0.107089,0.212967,0.206195,
2,1,0,1,0,32070.1,0.208048,0.207706,0.0513051,17,0.00937476,10,1.06564e-05,-4.28984,0.331778,0.17783,0.354438,0.207706,
2,1,0,1,0,32071.6,0.209546,0.209215,0.0515828,17,0.00946857,10,1.07919e-05,-4.2875,0.87054,0.067774,0.135247,0.209215,
2,1,0,1,0,32073.1,0.211044,0.210717,0.0516498,17,0.00956257,10,1.08835e-05,-4.28693,0.632861,0.0932275,0.187445,0.210717,
2,1,0,1,0,32074.6,0.212543,0.212245,0.0516729,17,0.00965671,10,1.09673e-05,-4.28674,0.527531,0.111842,0.226431,0.212245,
2,1,0,1,0,32076.1,0.214041,0.213689,0.0520837,17,0.0097515,10,1.11297e-05,-4.2833,0.727147,0.081139,0.164175,0.213689,
2,1,0,1,0,32077.6,0.215539,0.21519,0.0524715,17,0.00984697,10,1.12913e-05,-4.28008,0.659949,0.0894009,0.182271,0.21519,
2,1,0,1,0,32079.1,0.217037,0.216739,0.0518974,17,0.00994188,10,1.12482e-05,-4.28485,-1.09649,-0.0538082,-0.110013,0.216739,
2,1,0,1,0,32080.6,0.218535,0.218231,0.052049,17,0.010037,10,1.13587e-05,-4.28359,0.725223,0.0813542,0.166554,0.2182308,
2,1,0,1,0,32082.1,0.220034,0.21972,0.0525097,17,0.0101327,10,1.15374e-05,-4.27976,0.820589,0.0718995,0.147553,0.21972,
2,1,0,1,0,32083.6,0.221532,0.221246,0.0524839,17,0.0102282,10,1.16118e-05,-4.27997,-4.45896,-0.0132318,-0.0271217,0.221246,
2,1,0,1,0,32085.1,0.22303,0.222714,0.0521606,17,0.0103237,10,1.16169e-05,-4.28266,1.38504,0.042598,0.0875094,0.222714,
2,1,0,1,0,32086.6,0.224528,0.224207,0.0533485,17,0.0104194,10,1.19611e-05,-4.27288,0.822303,0.0717497,0.148411,0.224207,
2,1,0,1,0,32088.1,0.226026,0.225741,0.053212,17,0.0105159,10,1.20121e-05,-4.27399,0.66221,0.0890956,0.184568,0.2257407,
2,1,0,1,0,32089.6,0.227525,0.227214,0.0536732,17,0.0106126,10,1.21953e-05,-4.27024,1.1451,0.051524,0.107455,0.2272135,
2,1,0,1,0,32091.1,0.229023,0.228713,0.0534616,17,0.0107094,10,1.22274e-05,-4.27196,3.15415,0.0187055,0.0391477,0.228713,
2,1,0,1,0,32092.6,0.230521,0.23021,0.0539288,17,0.0108066,10,1.2415e-05,-4.26818,0.612125,0.0963856,0.203632,0.23021,
2,1,0,1,0,32094.1,0.232019,0.231708,0.0537036,17,0.010904,10,1.24435e-05,-4.27,0.778771,0.0757604,0.159969,0.231708,
2,1,0,1,0,32095.6,0.233517,0.233213,0.054499,17,0.0110019,10,1.27099e-05,-4.26361,251.584,0.000234514,0.000497515,0.233213,
2,1,0,1,0,32097.1,0.235016,0.234689,0.0549306,17,0.0111001,10,1.28916e-05,-4.26019,0.679751,0.0867965,0.18415,0.2346894,
2,1,0,1,0,32098.6,0.236514,0.236203,0.0548369,17,0.0111983,10,1.29526e-05,-4.26093,5.67901,0.0103891,0.0221893,0.236203,
2,1,0,1,0,32100.1,0.238012,0.237714,0.0549356,17,0.0112969,10,1.3059e-05,-4.26015,1.15054,0.0512805,0.109639,0.237714,
2,1,0,1,0,32101.6,0.23951,0.239179,0.0550084,17,0.0113957,10,1.31569e-05,-4.25957,-2.45595,-0.0240233,-0.0514644,0.239179,
2,1,0,1,0,32103.1,0.241008,0.240728,0.0543726,17,0.0114946,10,1.3089e-05,-4.26462,-5.40561,-0.0109146,-0.0233609,0.240728,
2,1,0,1,0,32104.6,0.242506,0.242181,0.054704,17,0.0115931,10,1.32483e-05,-4.26198,1.07564,0.0548511,0.118827,0.242181,
2,1,0,1,0,32106.1,0.244005,0.243683,0.0553532,17,0.0116923,10,1.34886e-05,-4.25686,0.354712,0.166332,0.360397,0.2436827,
2,1,0,1,0,32107.6,0.245503,0.245169,0.0560703,17,0.0117923,10,1.37467e-05,-4.25127,0.549114,0.107446,0.233554,0.245169,
2,1,0,1,0,32109.1,0.247001,0.246725,0.0560006,17,0.0118924,10,1.38167e-05,-4.25181,1.25131,0.0471506,0.102765,0.246725,
2,1,0,1,0,32110.6,0.248499,0.248201,0.0558812,17,0.0119925,10,1.38698e-05,-4.25273,0.745182,0.0791753,0.173606,0.2482011,
2,1,0,1,0,32112.1,0.249997,0.249684,0.0563823,17,0.012093,10,1.40777e-05,-4.24886,0.582836,0.101229,0.221587,0.249684,
2,1,0,1,0,32113.6,0.251496,0.251172,0.0565716,17,0.0121938,10,1.42092e-05,-4.2474,0.498064,0.118459,0.261063,0.251172,
2,1,0,1,0,32115.1,0.252994,0.252659,0.0570308,17,0.0122948,10,1.44093e-05,-4.24389,0.695425,0.0848402,0.187397,0.252659,
2,1,0,1,0,32116.6,0.254492,0.254213,0.0570816,17,0.0123963,10,1.45109e-05,-4.2435,75.258,0.00078397,0.00173551,0.254213,
2,1,0,1,0,32118.1,0.25599,0.255673,0.0569845,17,0.0124975,10,1.45694e-05,-4.24424,1.12048,0.0526561,0.116966,0.255673,
2,1,0,1,0,32119.6,0.257488,0.257228,0.0567591,17,0.0125987,10,1.46001e-05,-4.24596,21.3731,0.00276048,0.00611351,0.257228,
2,1,0,1,0,32121.1,0.258987,0.25868,0.0570815,17,0.0127002,10,1.47658e-05,-4.2435,0.705256,0.0836576,0.187054,0.25868,
2,1,0,1,0,32122.6,0.260485,0.260209,0.0573409,17,0.012802,10,1.49206e-05,-4.24154,0.638406,0.0924177,0.206338,0.260209,
2,1,0,1,0,32124.1,0.261983,0.261652,0.0573161,17,0.0129041,10,1.49969e-05,-4.24172,0.616867,0.0956447,0.21536,0.261652,
2,1,0,1,0,32125.6,0.263481,0.263135,0.0580568,17,0.0130064,10,1.52768e-05,-4.23615,0.816222,0.0722842,0.163184,0.263135,
2,1,0,1,0,32127.1,0.264979,0.264703,0.0578103,17,0.0131094,10,1.53026e-05,-4.23799,0.441688,0.133579,0.303357,0.264703,
2,1,0,1,0,32128.6,0.266477,0.266139,0.058519,17,0.0132127,10,1.55742e-05,-4.2327,0.584127,0.101005,0.23079,0.266139,
2,1,0,1,0,32130.1,0.267976,0.267664,0.058629,17,0.0133162,10,1.56929e-05,-4.23189,0.645567,0.0913925,0.209927,0.267664,
2,1,0,1,0,32131.6,0.269474,0.269183,0.0589326,17,0.0134201,10,1.58637e-05,-4.22964,0.805897,0.0732103,0.167523,0.269183,
2,1,0,1,0,32133.1,0.270972,0.270614,0.0593548,17,0.0135246,10,1.60622e-05,-4.22654,0.862774,0.0683841,0.157938,0.270614,
2,1,0,1,0,32134.6,0.27247,0.27219,0.059453,17,0.013629,10,1.61825e-05,-4.22583,2.63249,0.0224122,0.0517391,0.27219,
2,1,0,1,0,32136.1,0.273968,0.273683,0.0590251,17,0.0137335,10,1.61541e-05,-4.22896,0.7115,0.0829234,0.192705,0.273683,
2,1,0,1,0,32137.6,0.275467,0.275174,0.0595624,17,0.0138384,10,1.639e-05,-4.22503,0.393277,0.150022,0.350175,0.275174,
2,1,0,1,0,32139.1,0.276965,0.276631,0.0599659,17,0.0139439,10,1.65884e-05,-4.2221,0.649461,0.0908446,0.21275,0.276631,
2,1,0,1,0,32140.6,0.278463,0.278141,0.0603529,17,0.0140499,10,1.67866e-05,-4.2193,1.68498,0.0350153,0.0822495,0.278141,
2,1,0,1,0,32142.1,0.279961,0.279672,0.0602426,17,0.0141562,10,1.68482e-05,-4.2201,2.35701,0.0250317,0.0590246,0.279672,
2,1,0,1,0,32143.6,0.281459,0.281127,0.0604497,17,0.0142623,10,1.6994e-05,-4.21861,-2.46068,-0.0239771,-0.0565652,0.281127,
2,1,0,1,0,32145,0.282958,0.282689,0.06043,17,0.0143683,10,1.70829e-05,-4.21875,-12.8274,-0.00459952,-0.0108385,0.282689,
2,1,0,1,0,32146.5,0.284456,0.284155,0.0607249,17,0.0144744,10,1.72553e-05,-4.21663,21.3518,0.00276323,0.00654576,0.284155,
2,1,0,1,0,32148,0.285954,0.285597,0.0605218,17,0.0145807,10,1.72849e-05,-4.21809,0.661511,0.0891897,0.210969,0.285597,
2,1,0,1,0,32149.5,0.287452,0.287156,0.0615391,17,0.0146871,10,1.76713e-05,-4.21085,1.15704,0.0509923,0.121274,0.287156,
2,1,0,1,0,32151,0.28895,0.288631,0.0611437,17,0.0147942,10,1.7648e-05,-4.21365,0.61643,0.0957125,0.228738,0.288631,
2,1,0,1,0,32152.5,0.290448,0.290127,0.0615552,17,0.0149017,10,1.78589e-05,-4.21073,-1.95343,-0.0302034,-0.0726507,0.290127,
2,1,0,1,0,32154,0.291947,0.291612,0.0616997,17,0.0150095,10,1.79924e-05,-4.20972,1.48213,0.0398074,0.0963882,0.291612,
2,1,0,1,0,32155.5,0.293445,0.293116,0.0616555,17,0.0151173,10,1.80722e-05,-4.21003,1.16527,0.0506323,0.122415,0.293116,
2,1,0,1,0,32157,0.294943,0.294671,0.0622659,17,0.0152254,10,1.8348e-05,-4.20575,3.07051,0.019215,0.0466067,0.294671,
2,1,0,1,0,32158.5,0.296441,0.296108,0.0622365,17,0.0153336,10,1.84287e-05,-4.20595,4.22001,0.013981,0.0338779,0.2961081,
2,1,0,1,0,32160,0.297939,0.297618,0.0625403,17,0.0154421,10,1.86131e-05,-4.20384,-1.48425,-0.0397507,-0.0961317,0.297618,
2,1,0,1,0,32161.5,0.299438,0.299088,0.0620766,17,0.0155504,10,1.85664e-05,-4.20707,-0.00467751,-12.6136,-20.3277,0.299088,
2,1,0,1,0,32162.4,0.299737,0.29946,0.0323452,17,0.0155986,10,9.6861e-06,-4.49019,0.0023194,25.4376,35.935,0.29946,
2,1,0,1,0,32163.9,0.298239,0.297945,0.0205493,17,0.0156207,10,6.12256e-06,-4.6872,0.00558012,10.5733,13.6693,0.297945,
2,1,0,1,0,32165.4,0.296741,0.296414,0.0157377,17,0.0156325,10,4.66486e-06,-4.80306,0.013803,4.27444,2.77925,0.296414,
2,1,0,1,0,32166.9,0.295243,0.294917,0.0130121,17,0.0156386,10,3.8375e-06,-4.88565,0.0164559,3.58535,1.86192,0.294917,
2,1,0,1,0,32168.4,0.293745,0.293442,0.0103519,17,0.0156407,10,3.03768e-06,-4.98498,0.0140993,4.18461,1.67305,0.293442,
2,1,0,1,0,32169.9,0.292246,0.291926,0.00833212,17,0.0156397,10,2.43236e-06,-5.07924,0.0138909,4.2474,1.37916,0.291926,
2,1,0,1,0,32171.4,0.290748,0.290437,0.0064897,17,0.0156355,10,1.88485e-06,-5.18778,0.0151039,3.90628,1.03537,0.2904371,
2,1,0,1,0,32172.9,0.28925,0.288927,0.00507188,17,0.0156288,10,1.4654e-06,-5.29483,0.0127907,4.61273,0.893005,0.288927,
2,1,0,1,0,32174.4,0.287752,0.287433,0.0036063,17,0.0156201,10,1.03657e-06,-5.44294,0.00675809,8.73027,1.02849,0.287433,
2,1,0,1,0,32175.9,0.286254,0.285901,0.00234914,17,0.0156094,10,6.71621e-07,-5.62909,0.00409635,14.4031,0.834948,0.285901,
2,1,0,1,0,32177.4,0.284755,0.28444,0.0010854,17,0.0155965,10,3.08731e-07,-5.96441,0.00959121,6.15146,0.880817,0.28444,
2,0,0,1,0,32178.9,0.283257,0.282935,-0.000390674,17,0.0155816,10,-1.10535e-07,-6.40819,-0.0254057,-2.32231,0.792139,0.282935,
2,1,0,1,0,32180.4,0.281759,0.281416,-0.001937,17,0.0155648,10,-5.45102e-07,-5.71287,-0.00334606,-17.6327,0.657769,0.281416,
2,1,0,1,0,32181.9,0.280261,0.279935,-0.00241628,17,0.0155464,10,-6.76402e-07,-5.61685,-0.00795451,-7.41717,0.6327,0.279935,
2,0,0,1,0,32183.4,0.278763,0.278438,-0.00370195,17,0.0155266,10,-1.03076e-06,-5.43157,-0.0103789,-5.68463,0.726305,0.2784375,
2,1,0,1,0,32184.9,0.277264,0.276963,-0.00432138,17,0.0155053,10,-1.19687e-06,-5.36438,-0.0151351,-3.89821,0.665548,0.2769635,
2,1,0,1,0,32186.4,0.275766,0.275473,-0.00558402,17,0.0154824,10,-1.53824e-06,-5.25305,-0.0215092,-2.74302,0.561681,0.275473,
2,1,0,1,0,32187.8,0.274268,0.273953,-0.00644465,17,0.015458,10,-1.76553e-06,-5.1908,-0.0228005,-2.58767,0.620812,0.273953,
2,0,0,1,0,32189.3,0.27277,0.272456,-0.00739086,17,0.0154322,10,-2.01368e-06,-5.1313,-0.0315155,-1.87209,0.533324,0.272456,
2,0,0,1,0,32190.8,0.271272,0.270952,-0.00812989,17,0.0154051,10,-2.20281e-06,-5.08992,-0.0350479,-1.68341,0.550393,0.270952,
2,1,0,1,0,32192.3,0.269774,0.269475,-0.00886556,17,0.0153766,10,-2.38905e-06,-5.05229,-0.0341575,-1.72729,0.60266,0.269475,
2,0,0,1,0,32193.8,0.268275,0.267999,-0.0100803,17,0.0153466,10,-2.70152e-06,-4.99652,-0.0350242,-1.68455,0.628069,0.267999,
2,0,0,1,0,32195.3,0.266777,0.266456,-0.0107683,17,0.0153157,10,-2.86928e-06,-4.96785,-0.042614,-1.38452,0.580833,0.266456,
2,1,0,1,0,32196.8,0.265279,0.264957,-0.0121111,17,0.0152833,10,-3.20891e-06,-4.91682,-0.0534725,-1.10337,0.48637,0.264957,
2,0,0,1,0,32198.3,0.263781,0.263497,-0.0121971,17,0.0152497,10,-3.2139e-06,-4.91374,-0.0508824,-1.15954,0.555563,0.263497,
2,1,0,1,0,32199.8,0.262283,0.26197,-0.0131621,17,0.015215,10,-3.44807e-06,-4.88068,-0.0706695,-0.834872,0.428366,0.26197,
2,0,0,1,0,32201.3,0.260784,0.260517,-0.0138203,17,0.0151795,10,-3.60041e-06,-4.85948,-0.095444,-0.618164,0.334097,0.260517,
2,0,0,1,0,32202.8,0.259286,0.25899,-0.014148,17,0.0151427,10,-3.66418e-06,-4.84931,-0.0725331,-0.813422,0.452049,0.25899,
2,0,0,1,0,32204.3,0.257788,0.257509,-0.01497,17,0.0151052,10,-3.85491e-06,-4.82478,-0.0822377,-0.717432,0.410119,0.257509,
2,0,0,1,0,32205.8,0.25629,0.255957,-0.0156997,17,0.0150666,10,-4.01846e-06,-4.80411,-0.0689706,-0.855437,0.510696,0.2559568,
2,0,0,1,0,32207.3,0.254792,0.254453,-0.0157578,17,0.0150272,10,-4.00962e-06,-4.8025,-0.105513,-0.559172,0.345204,0.254453,
2,0,0,1,0,32208.8,0.253293,0.252977,-0.0167984,17,0.0149868,10,-4.24962e-06,-4.77473,-0.0841752,-0.700919,0.465583,0.252977,
2,0,0,1,0,32210.3,0.251795,0.251476,-0.0176063,17,0.0149451,10,-4.42756e-06,-4.75433,-0.0703558,-0.838595,0.578824,0.251476,
2,0,0,1,0,32211.8,0.250297,0.250003,-0.018168,17,0.0149022,10,-4.54205e-06,-4.74069,-0.11702,-0.504188,0.361487,0.250003,
2,0,0,1,0,32213.3,0.248799,0.248499,-0.0186825,17,0.0148583,10,-4.64259e-06,-4.72856,-0.0989667,-0.59616,0.438183,0.248499,
2,0,0,1,0,32214.8,0.247301,0.246976,-0.0197824,17,0.0148135,10,-4.88579e-06,-4.70372,-0.119283,-0.494623,0.379383,0.2469763,
2,0,0,1,0,32216.3,0.245802,0.24548,-0.0199506,17,0.0147679,10,-4.89748e-06,-4.70004,-0.141681,-0.416429,0.329126,0.24548,
2,0,0,1,0,32217.8,0.244304,0.243961,-0.0206167,17,0.0147213,10,-5.02965e-06,-4.68578,-0.125559,-0.469899,0.379704,0.243961,
2,0,0,1,0,32219.3,0.242806,0.242522,-0.0215219,17,0.0146738,10,-5.21953e-06,-4.66712,-0.121944,-0.483829,0.398825,0.242522,
2,0,0,1,0,32220.8,0.241308,0.241024,-0.021627,17,0.0146257,10,-5.21262e-06,-4.665,-0.141814,-0.416039,0.348771,0.241024,
2,0,0,1,0,32222.3,0.23981,0.239467,-0.0221942,17,0.0145767,10,-5.31476e-06,-4.65376,-0.114573,-0.514955,0.443283,0.239467,
2,0,0,1,0,32223.8,0.238312,0.238007,-0.0220961,17,0.0145268,10,-5.25904e-06,-4.65568,-0.106153,-0.555803,0.491177,0.238007,
2,0,0,1,0,32225.3,0.236813,0.236504,-0.0229219,17,0.0144764,10,-5.42112e-06,-4.63975,-0.184656,-0.319513,0.295551,0.236504,
2,0,0,1,0,32226.8,0.235315,0.23498,-0.0238369,17,0.014425,10,-5.60119e-06,-4.62275,-0.120429,-0.489914,0.457964,0.23498,
2,0,0,1,0,32228.3,0.233817,0.233536,-0.0243586,17,0.0143725,10,-5.68859e-06,-4.61335,-0.11023,-0.535244,0.511607,0.233536,
2,0,0,1,0,32229.8,0.232319,0.23203,-0.0256906,17,0.0143186,10,-5.961e-06,-4.59022,-0.181452,-0.325155,0.318312,0.23203,
2,0,0,1,0,32231.3,0.230821,0.230484,-0.0256584,17,0.0142636,10,-5.91385e-06,-4.59077,-0.163038,-0.36188,0.365456,0.2304838,
2,0,0,1,0,32232.8,0.229322,0.228968,-0.0263124,17,0.014208,10,-6.02471e-06,-4.57984,-0.11829,-0.498772,0.520384,0.2289685,
2,0,0,1,0,32234.3,0.227824,0.227503,-0.0273233,17,0.0141513,10,-6.21614e-06,-4.56347,-0.157744,-0.374024,0.398449,0.227503,
2,0,0,1,0,32235.8,0.226326,0.226005,-0.0280903,17,0.0140934,10,-6.34853e-06,-4.55144,-0.33721,-0.174965,0.188952,0.226005,
2,0,0,1,0,32237.3,0.224828,0.224502,-0.0283846,17,0.0140348,10,-6.37241e-06,-4.54692,-0.287496,-0.20522,0.224993,0.224502,
2,0,0,1,0,32238.8,0.22333,0.223041,-0.0285341,17,0.0139756,10,-6.36427e-06,-4.54464,-0.156082,-0.378007,0.42635,0.223041,
2,0,0,1,0,32240.3,0.221831,0.221531,-0.0294154,17,0.0139158,10,-6.51643e-06,-4.53142,-0.164853,-0.357894,0.411531,0.2215308,
2,0,0,1,0,32241.8,0.220333,0.22001,-0.0300659,17,0.0138547,10,-6.6148e-06,-4.52193,-0.149883,-0.393639,0.461279,0.22001,
2,0,0,1,0,32243.3,0.218835,0.218516,-0.0308576,17,0.0137924,10,-6.74289e-06,-4.51064,-0.212477,-0.277676,0.32822,0.2185161,
2,0,0,1,0,32244.8,0.217337,0.217009,-0.0308161,17,0.0137294,10,-6.68738e-06,-4.51122,-0.352566,-0.167344,0.201958,0.217009,
2,0,0,1,0,32246.3,0.215839,0.2155,-0.0313528,17,0.0136661,10,-6.75654e-06,-4.50372,-0.245386,-0.240437,0.297095,0.2155,
2,0,0,1,0,32247.8,0.21434,0.213999,-0.0318274,17,0.0136018,10,-6.81101e-06,-4.4972,-0.160038,-0.368662,0.461745,0.213999,
2,0,0,1,0,32249.3,0.212842,0.212529,-0.0326584,17,0.0135365,10,-6.94085e-06,-4.48601,-0.179885,-0.327987,0.422674,0.212529,
2,0,0,1,0,32250.8,0.211344,0.211051,-0.0333891,17,0.0134703,10,-7.0468e-06,-4.4764,-0.262353,-0.224888,0.293433,0.2110509,
2,0,0,1,0,32252.3,0.209846,0.209508,-0.0337421,17,0.0134034,10,-7.06924e-06,-4.47183,-0.241733,-0.244071,0.320501,0.209508,
2,0,0,1,0,32253.8,0.208348,0.208048,-0.0341094,17,0.0133358,10,-7.09638e-06,-4.46713,-0.226113,-0.260932,0.349612,0.208048,
2,0,0,1,0,32255.3,0.20685,0.206527,-0.0349917,17,0.0132673,10,-7.22674e-06,-4.45603,-0.179744,-0.328245,0.447283,0.206527,
2,0,0,1,0,32256.8,0.205351,0.205,-0.0354105,17,0.0131977,10,-7.25915e-06,-4.45087,-0.193645,-0.30468,0.419929,0.205,
2,0,0,1,0,32258.3,0.203853,0.203521,-0.0356141,17,0.0131274,10,-7.24822e-06,-4.44838,-0.251679,-0.234426,0.331578,0.203521,
2,0,0,1,0,32259.8,0.202355,0.202049,-0.0364146,17,0.0130563,10,-7.35753e-06,-4.43872,-0.220534,-0.267533,0.382583,0.202049,
2,0,0,1,0,32261.3,0.200857,0.200557,-0.0369975,17,0.0129839,10,-7.42011e-06,-4.43183,-0.216099,-0.273023,0.396162,0.200557,
2,0,0,1,0,32262.8,0.199359,0.199035,-0.0371877,17,0.0129111,10,-7.40166e-06,-4.4296,-0.597142,-0.0988039,0.144556,0.199035,
2,0,0,1,0,32264.3,0.19786,0.197506,-0.0380732,17,0.0128375,10,-7.5197e-06,-4.41938,-0.355932,-0.165762,0.245144,0.197506,
2,0,0,1,0,32265.8,0.196362,0.196043,-0.0387719,17,0.0127633,10,-7.60095e-06,-4.41148,-0.292266,-0.201871,0.303219,0.1960429,
2,0,0,1,0,32267.3,0.194864,0.19454,-0.0385864,17,0.0126882,10,-7.5066e-06,-4.41357,-0.279558,-0.211047,0.321299,0.1945402,
2,0,0,1,0,32268.8,0.193366,0.193046,-0.0396146,17,0.0126121,10,-7.64745e-06,-4.40214,-0.24586,-0.239974,0.370976,0.193046,
2,0,0,1,0,32270.2,0.191868,0.191572,-0.039969,17,0.0125352,10,-7.65695e-06,-4.39828,-0.28953,-0.203778,0.320618,0.191572,
2,0,0,1,0,32271.7,0.190369,0.190028,-0.0407585,17,0.0124574,10,-7.74527e-06,-4.38978,-0.180349,-0.327144,0.524521,0.190028,
2,0,0,1,0,32273.2,0.188871,0.188556,-0.0418165,17,0.0123783,10,-7.88475e-06,-4.37865,-0.144902,-0.407173,0.661086,0.188556,
2,0,0,1,0,32274.7,0.187373,0.18708,-0.0425888,17,0.0122976,10,-7.96753e-06,-4.3707,-0.279917,-0.210777,0.347493,0.18708,
2,0,0,1,0,32276.2,0.185875,0.185514,-0.0433339,17,0.0122159,10,-8.03904e-06,-4.36317,-0.287341,-0.205331,0.345436,0.185514,
2,0,0,1,0,32277.7,0.184377,0.184056,-0.0435723,17,0.0121336,10,-8.01974e-06,-4.36079,-0.242819,-0.24298,0.414691,0.184056,
2,0,0,1,0,32279.2,0.182878,0.182594,-0.0448184,17,0.0120501,10,-8.18355e-06,-4.34854,-0.169238,-0.348622,0.608729,0.182594,
2,0,0,1,0,32280.7,0.18138,0.181077,-0.0458924,17,0.0119652,10,-8.31008e-06,-4.33826,-0.179893,-0.327973,0.582327,0.181077,
2,0,0,1,0,32282.2,0.179882,0.179538,-0.0464813,17,0.0118788,10,-8.34514e-06,-4.33272,-0.239124,-0.246734,0.442723,0.179538,
2,0,0,1,0,32283.7,0.178384,0.178085,-0.0468367,17,0.0117911,10,-8.34091e-06,-4.32941,-0.189013,-0.312148,0.57075,0.178085,
2,0,0,1,0,32285.2,0.176886,0.176565,-0.0478094,17,0.0117024,10,-8.44148e-06,-4.32049,-0.167819,-0.35157,0.661804,0.176565,
2,0,0,1,0,32286.7,0.175388,0.175049,-0.0488617,17,0.0116119,10,-8.55319e-06,-4.31103,-0.175411,-0.336354,0.641222,0.175049,
2,0,0,1,0,32288.2,0.173889,0.173539,-0.0499408,17,0.01152,10,-8.66668e-06,-4.30154,-0.183752,-0.321085,0.621764,0.173539,
2,0,0,1,0,32289.7,0.172391,0.172061,-0.0509987,17,0.0114266,10,-8.77487e-06,-4.29244,-0.212945,-0.277066,0.54854,0.172061,
2,0,0,1,0,32291.2,0.170893,0.170573,-0.05198,17,0.011332,10,-8.86639e-06,-4.28416,-0.229574,-0.256998,0.517557,0.170573,
2,0,0,1,0,32292.7,0.169395,0.169056,-0.0530205,17,0.0112357,10,-8.9634e-06,-4.27556,-0.197754,-0.298351,0.610819,0.169056,
2,0,0,1,0,32294.2,0.167897,0.167594,-0.0539442,17,0.0111378,10,-9.04074e-06,-4.26806,-0.168939,-0.349239,0.735434,0.167594,
2,0,0,1,0,32295.7,0.166398,0.166069,-0.0547997,17,0.0110384,10,-9.10056e-06,-4.26122,-0.19335,-0.305147,0.65571,0.166069,
2,0,0,1,0,32297.2,0.1649,0.164577,-0.0558316,17,0.0109376,10,-9.18862e-06,-4.25312,-0.218485,-0.270041,0.588415,0.164577,
2,0,0,1,0,32298.7,0.163402,0.163108,-0.0567565,17,0.0108347,10,-9.25742e-06,-4.24598,-0.135122,-0.436642,0.972307,0.163108,
2,0,0,1,0,32300.2,0.161904,0.161529,-0.0584751,17,0.01073,10,-9.4454e-06,-4.23303,-0.134302,-0.439308,1.00242,0.161529,
2,0,0,1,0,32301.7,0.160406,0.160082,-0.0601816,17,0.0106227,10,-9.634e-06,-4.22054,-0.121582,-0.485271,1.13529,0.160082,
2,0,0,1,0,32303.2,0.158907,0.158572,-0.0607116,17,0.0105132,10,-9.62718e-06,-4.21673,-0.126314,-0.46709,1.12439,0.158572,
2,0,0,1,0,32304.7,0.157409,0.157092,-0.0635993,17,0.010401,10,-9.99093e-06,-4.19655,-0.115295,-0.51173,1.26379,0.157092,
2,0,0,1,0,32306.2,0.155911,0.15561,-0.0648468,17,0.0102856,10,-1.00908e-05,-4.18811,-0.115857,-0.509248,1.29558,0.15561,
2,0,0,1,0,32307.7,0.154413,0.154041,-0.0673657,17,0.0101673,10,-1.03771e-05,-4.17156,-0.13501,-0.437004,1.14648,0.154041,
2,0,0,1,0,32309.2,0.152915,0.15256,-0.069357,17,0.0100458,10,-1.05811e-05,-4.15891,-0.100983,-0.584256,1.59131,0.1525598,
2,0,0,1,0,32310.7,0.151417,0.151113,-0.0720659,17,0.00992108,10,-1.08901e-05,-4.14227,-0.111515,-0.529077,1.48526,0.151113,
2,0,0,1,0,32312.2,0.149918,0.149609,-0.074181,17,0.00979168,10,-1.10981e-05,-4.12971,-0.0990187,-0.595847,1.72663,0.149609,
2,0,0,1,0,32313.7,0.14842,0.148082,-0.0771427,17,0.00965837,10,-1.14234e-05,-4.1127,-0.0856052,-0.689211,2.07387,0.148082,
2,0,0,1,0,32315.2,0.146922,0.146553,-0.0794925,17,0.0095205,10,-1.16498e-05,-4.09967,-0.0823628,-0.716342,2.24344,0.146553,
2,0,0,1,0,32316.7,0.145424,0.145077,-0.0838119,17,0.00937783,10,-1.21591e-05,-4.07669,-0.0721707,-0.817506,2.67492,0.145077,
2,0,0,1,0,32318.2,0.143926,0.143539,-0.08732,17,0.00922899,10,-1.25338e-05,-4.05889,-0.0716113,-0.823893,2.81531,0.143539,
2,0,0,1,0,32319.7,0.142427,0.142097,-0.0919719,17,0.00907332,10,-1.30689e-05,-4.03634,-0.0690695,-0.854213,3.07214,0.142097,
2,0,0,1,0,32321.2,0.140929,0.14059,-0.0964468,17,0.00891104,10,-1.35594e-05,-4.01571,-0.0752194,-0.784372,2.96522,0.14059,
2,0,0,1,0,32322.7,0.139431,0.139093,-0.100991,17,0.00874223,10,-1.40471e-05,-3.99572,-0.0754433,-0.782044,3.10983,0.139093,
2,0,0,1,0,32324.2,0.137933,0.137612,-0.106875,17,0.00856572,10,-1.47074e-05,-3.97112,-0.0719376,-0.820156,3.39955,0.137612,
2,0,0,1,0,32325.7,0.136435,0.136096,-0.11143,17,0.00838158,10,-1.51652e-05,-3.953,-0.075301,-0.783523,3.4013,0.136096,
2,0,0,1,0,32327.2,0.134936,0.134597,-0.116546,17,0.00818968,10,-1.56867e-05,-3.9335,-0.0791654,-0.745275,3.36579,0.134597,
2,0,0,1,0,32328.7,0.133438,0.133089,-0.120957,17,0.0079906,10,-1.6098e-05,-3.91737,-0.0932303,-0.632842,2.98145,0.133089,
2,0,0,1,0,32330.2,0.13194,0.131621,-0.12553,17,0.00778482,10,-1.65224e-05,-3.90125,-0.103658,-0.569179,2.78298,0.131621,
2,0,0,1,0,32331.7,0.130442,0.130081,-0.128858,17,0.0075725,10,-1.6762e-05,-3.88989,-0.114729,-0.514255,2.58664,0.130081,
2,0,0,1,0,32333.2,0.128944,0.12861,-0.1333,17,0.00735446,10,-1.71438e-05,-3.87517,-0.182823,-0.322717,1.66396,0.12861,
2,0,0,1,0,32334.7,0.127445,0.127099,-0.135719,17,0.00713205,10,-1.72498e-05,-3.86736,-0.17873,-0.330107,1.74271,0.127099,
2,0,0,1,0,32336.2,0.125947,0.125612,-0.138506,17,0.00690622,10,-1.7398e-05,-3.85853,-0.212843,-0.277199,1.48276,0.125612,
2,0,0,1,0,32337.7,0.124449,0.124121,-0.139734,17,0.00667663,10,-1.73438e-05,-3.8547,-0.299947,-0.196702,1.06741,0.124121,
2,0,0,1,0,32339.2,0.122951,0.122621,-0.141439,17,0.00644482,10,-1.73435e-05,-3.84943,-0.449036,-0.131393,0.721075,0.122621,
2,0,0,1,0,32340.7,0.121453,0.121153,-0.141925,17,0.00621124,10,-1.71946e-05,-3.84794,-0.634082,-0.093048,0.514477,0.1211527,
2,0,0,1,0,32342.2,0.119955,0.119648,-0.141792,17,0.0059772,10,-1.69651e-05,-3.84835,-3.60919,-0.0163472,0.0907908,0.119648,
2,0,0,1,0,32343.7,0.118456,0.118116,-0.142715,17,0.00574245,10,-1.68569e-05,-3.84553,-1.45904,-0.0404376,0.225006,0.118116,
2,0,0,1,0,32345.2,0.116958,0.116594,-0.143236,17,0.00550673,10,-1.67005e-05,-3.84395,-2.37761,-0.0248148,0.138283,0.1165941,
2,0,0,1,0,32346.7,0.11546,0.115137,-0.142691,17,0.00527147,10,-1.6429e-05,-3.8456,1.17332,0.0502846,-0.281051,0.115137,
2,0,0,1,0,32348.2,0.113962,0.113645,-0.141233,17,0.00503686,10,-1.60504e-05,-3.85006,-214.929,-0.00027451,0.00152687,0.113645,
2,0,0,1,0,32349.7,0.112464,0.112154,-0.142143,17,0.00480235,10,-1.59419e-05,-3.84728,1.74115,0.0338857,-0.18834,0.112154,
2,0,0,1,0,32351.2,0.110965,0.110632,-0.142296,17,0.00456772,10,-1.57425e-05,-3.84681,1.34744,0.0437866,-0.242227,0.110632,
2,0,0,1,0,32352.6,0.109467,0.109132,-0.142133,17,0.00433358,10,-1.55112e-05,-3.84731,1.34561,0.0438462,-0.242328,0.109132,
2,0,0,1,0,32354.1,0.107969,0.107605,-0.140644,17,0.00410004,10,-1.5134e-05,-3.85188,1.25588,0.0469789,-0.2591,0.107605,
2,0,0,1,0,32355.6,0.106471,0.106134,-0.140684,17,0.00386728,10,-1.49313e-05,-3.85176,23.5992,0.00250008,-0.0138277,0.106134,
2,0,0,1,0,32357.1,0.104973,0.104652,-0.140484,17,0.00363516,10,-1.47019e-05,-3.85237,1.0776,0.0547515,-0.300978,0.104652,
2,0,0,1,0,32358.6,0.103474,0.103133,-0.140278,17,0.00340304,10,-1.44673e-05,-3.85301,0.650706,0.0906708,-0.494863,0.103133,
2,0,0,1,0,32360.1,0.101976,0.101639,-0.139329,17,0.00317221,10,-1.41613e-05,-3.85596,0.580394,0.101655,-0.552614,0.101639,
2,0,0,1,0,32361.6,0.100478,0.100117,-0.138983,17,0.00294296,10,-1.39146e-05,-3.85704,0.519313,0.113612,-0.614484,0.100117,
2,0,0,1,0,32363.1,0.0989798,0.0986169,-0.138204,17,0.0027144,10,-1.36293e-05,-3.85948,0.669561,0.0881174,-0.472856,0.0986169,
2,0,0,1,0,32364.6,0.0974816,0.0971674,-0.137216,17,0.00248714,10,-1.33329e-05,-3.86259,0.549305,0.107409,-0.572905,0.0971674,
2,0,0,1,0,32366.1,0.0959834,0.0956509,-0.135548,17,0.00226132,10,-1.29653e-05,-3.86791,0.431357,0.136778,-0.726576,0.0956509,
2,0,0,1,0,32367.6,0.0944852,0.0941377,-0.134928,17,0.00203801,10,-1.27018e-05,-3.8699,0.384851,0.153306,-0.808337,0.0941377,
2,0,0,1,0,32369.1,0.0929871,0.092701,-0.133786,17,0.00181549,10,-1.24021e-05,-3.87359,0.627428,0.0940347,-0.490809,0.092701,
2,0,0,1,0,32370.6,0.0914889,0.0911464,-0.133,17,0.00159417,10,-1.21224e-05,-3.87615,0.45472,0.12975,-0.673424,0.0911464,
2,0,0,1,0,32372.1,0.0899907,0.0896693,-0.131991,17,0.00137482,10,-1.18355e-05,-3.87946,0.554289,0.106443,-0.547791,0.0896693,
2,0,0,1,0,32373.6,0.0884925,0.0881899,-0.130446,17,0.00115726,10,-1.1504e-05,-3.88457,0.452651,0.130343,-0.66441,0.0881899,
2,0,0,1,0,32375.1,0.0869943,0.0867011,-0.129991,17,0.000941287,10,-1.12703e-05,-3.88609,0.413496,0.142686,-0.722061,0.0867011,
2,0,0,1,0,32376.6,0.0854961,0.0851561,-0.128986,17,0.000726532,10,-1.0984e-05,-3.88946,0.459824,0.12831,-0.645626,0.08515615,
2,0,0,1,0,32378.1,0.083998,0.0836674,-0.127684,17,0.000513145,10,-1.0683e-05,-3.89386,0.334202,0.17654,-0.883044,0.0836674,
2,0,0,1,0,32379.6,0.0824998,0.0821447,-0.127375,17,0.000301282,10,-1.04632e-05,-3.89492,0.386077,0.152819,-0.760657,0.0821447,
2,0,0,1,0,32381.1,0.0810016,0.0806728,-0.125934,17,9.11484e-05,10,-1.01595e-05,-3.89986,0.520438,0.113366,-0.559326,0.0806728,
2,0,0,1,0,32382.6,0.0795034,0.0791977,-0.125036,17,-0.000117568,10,-9.90256e-06,-3.90297,0.402681,0.146518,-0.716992,0.07919772,
2,0,0,1,0,32384.1,0.0780052,0.0777387,-0.124276,17,-0.00032519,10,-9.66105e-06,-3.90561,0.554296,0.106441,-0.516444,0.07773865,
2,0,0,1,0,32385.6,0.076507,0.0761713,-0.123023,17,-0.000531509,10,-9.37084e-06,-3.91001,0.566182,0.104207,-0.501817,0.0761713,
2,0,0,1,0,32387.1,0.0750088,0.0746931,-0.1231,17,-0.000736302,10,-9.19469e-06,-3.90974,0.637383,0.092566,-0.443537,0.0746931,
2,0,0,1,0,32388.6,0.0735106,0.0731407,-0.121848,17,-0.000940345,10,-8.91205e-06,-3.91418,0.513036,0.115002,-0.546327,0.0731407,
2,0,0,1,0,32390.1,0.0720124,0.0716667,-0.121078,17,-0.00114328,10,-8.67728e-06,-3.91693,0.475539,0.12407,-0.587717,0.0716667,
2,0,0,1,0,32391.6,0.0705142,0.0701758,-0.120286,17,-0.00134495,10,-8.44114e-06,-3.91979,0.5387,0.109523,-0.514746,0.0701758,
2,0,0,1,0,32393.1,0.069016,0.0686732,-0.119209,17,-0.00154523,10,-8.18643e-06,-3.92369,0.579355,0.101837,-0.477536,0.0686732,
2,0,0,1,0,32394.6,0.0675178,0.0672141,-0.118984,17,-0.00174455,10,-7.99743e-06,-3.92451,1.68033,0.0351122,-0.16332,0.0672141,
2,0,0,1,0,32396.1,0.0660196,0.0656722,-0.119668,17,-0.00194378,10,-7.85886e-06,-3.92202,1.07255,0.0550089,-0.254849,0.0656722,
2,0,0,1,0,32397.6,0.0645214,0.0641919,-0.118828,17,-0.00214225,10,-7.62776e-06,-3.92508,0.557198,0.105887,-0.487784,0.0641919,
2,0,0,1,0,32399.1,0.0630233,0.0626935,-0.116947,17,-0.00233929,10,-7.3318e-06,-3.93201,0.478793,0.123226,-0.563079,0.0626935,
2,0,0,1,0,32400.6,0.0615251,0.0611963,-0.116932,17,-0.00253493,10,-7.1558e-06,-3.93207,0.602054,0.0979979,-0.446784,0.0611963,
2,0,0,1,0,32402.1,0.0600269,0.0596937,-0.116217,17,-0.00272995,10,-6.93742e-06,-3.93473,0.550865,0.107104,-0.485987,0.0596937,
2,0,0,1,0,32403.6,0.0585287,0.0581815,-0.115667,17,-0.00292411,10,-6.7297e-06,-3.93679,0.34824,0.169423,-0.764575,0.0581815,
2,0,0,1,0,32405.1,0.0570305,0.0566895,-0.114867,17,-0.00311729,10,-6.51174e-06,-3.93981,0.75575,0.0780681,-0.351099,0.0566895,
2,0,0,1,0,32406.6,0.0555323,0.0552124,-0.114571,17,-0.00330916,10,-6.32572e-06,-3.94093,1.86412,0.0316503,-0.141777,0.0552124,
2,0,0,1,0,32408.1,0.0540342,0.0536929,-0.114762,17,-0.00350067,10,-6.16189e-06,-3.9402,1.6808,0.0351024,-0.156484,0.0536929,
2,0,0,1,0,32409.6,0.052536,0.0522062,-0.113353,17,-0.0036922,10,-5.91775e-06,-3.94557,1.37485,0.0429139,-0.190106,0.0522062,
2,0,0,1,0,32411.1,0.0510378,0.0507174,-0.113245,17,-0.00388271,10,-5.74351e-06,-3.94598,0.53585,0.110105,-0.486319,0.0507174,
2,0,0,1,0,32412.6,0.0495396,0.0492031,-0.112864,17,-0.00407188,10,-5.55324e-06,-3.94745,0.917563,0.0643008,-0.282668,0.0492031,
2,0,0,1,0,32414.1,0.0480414,0.0477462,-0.111988,17,-0.0042606,10,-5.34699e-06,-3.95083,3.24868,0.0181612,-0.0793485,0.0477462,
2,0,0,1,0,32415.6,0.0465432,0.0462074,-0.111772,17,-0.00444846,10,-5.16468e-06,-3.95167,0.65479,0.0901052,-0.391813,0.0462074,
2,0,0,1,0,32417.1,0.045045,0.0446921,-0.111273,17,-0.00463553,10,-4.97304e-06,-3.95361,0.578061,0.102065,-0.442784,0.0446921,
2,0,0,1,0,32418.6,0.0435468,0.0432107,-0.110184,17,-0.00482118,10,-4.76112e-06,-3.95788,0.732149,0.0805847,-0.347506,0.0432107,
2,0,0,1,0,32420.1,0.0420486,0.0417061,-0.11014,17,-0.00500645,10,-4.59352e-06,-3.95805,0.648611,0.0909636,-0.388875,0.04170607,
2,0,0,1,0,32421.6,0.0405504,0.0402691,-0.109955,17,-0.00519096,10,-4.42779e-06,-3.95879,0.532469,0.110805,-0.474064,0.0402691,
2,0,0,1,0,32423.1,0.0390522,0.0387188,-0.108514,17,-0.00537419,10,-4.20152e-06,-3.96452,0.787463,0.0749242,-0.318539,0.0387188,
2,0,0,1,0,32424.6,0.037554,0.0372141,-0.108598,17,-0.00555679,10,-4.04137e-06,-3.96418,0.792845,0.0744156,-0.314136,0.0372141,
2,0,0,1,0,32426.1,0.0360558,0.0357284,-0.108644,17,-0.00573875,10,-3.88169e-06,-3.96399,0.892572,0.0661011,-0.278968,0.0357284,
2,0,0,1,0,32427.6,0.0345576,0.0342386,-0.107597,17,-0.00591994,10,-3.68398e-06,-3.9682,0.882633,0.0668454,-0.28047,0.0342386,
2,0,0,1,0,32429.1,0.0330594,0.0326957,-0.106873,17,-0.00610055,10,-3.49429e-06,-3.97113,0.526972,0.11196,-0.467123,0.0326957,
2,0,0,1,0,32430.6,0.0315613,0.0312112,-0.106023,17,-0.00628015,10,-3.30912e-06,-3.9746,0.61117,0.0965361,-0.401366,0.0312112,
2,0,0,1,0,32432.1,0.0300631,0.0296885,-0.10622,17,-0.00645876,10,-3.15351e-06,-3.97379,0.560409,0.10528,-0.433921,0.02968847,
2,0,0,1,0,32433.6,0.0285649,0.028223,-0.105234,17,-0.00663695,10,-2.97003e-06,-3.97784,0.912562,0.0646532,-0.265958,0.028223,
2,0,0,1,0,32435,0.0270667,0.0267278,-0.105081,17,-0.00681441,10,-2.80858e-06,-3.97848,0.820793,0.0718817,-0.295158,0.0267278,
2,0,0,1,0,32436.5,0.0255685,0.025223,-0.104395,17,-0.00699119,10,-2.63316e-06,-3.98132,0.704327,0.0837679,-0.342306,0.02522303,
2,0,0,1,0,32438,0.0240703,0.0237427,-0.104321,17,-0.00716704,10,-2.47687e-06,-3.98163,10.1516,0.00581191,-0.0237664,0.02374272,
2,0,0,1,0,32439.5,0.0225722,0.0222677,-0.103874,17,-0.00734268,10,-2.31305e-06,-3.98349,4.91047,0.0120152,-0.048831,0.0222677,
2,0,0,1,0,32441,0.021074,0.0207143,-0.104403,17,-0.00751835,10,-2.16264e-06,-3.98129,3.64116,0.0162036,-0.0658246,0.0207143,
2,0,0,1,0,32442.5,0.0195758,0.0192212,-0.104282,17,-0.00769342,10,-2.00443e-06,-3.98179,-2.16251,-0.0272832,0.110981,0.0192212,
2,0,0,1,0,32444,0.0180776,0.0177536,-0.103626,17,-0.00786858,10,-1.83973e-06,-3.98453,-5.491,-0.0107449,0.0435386,0.0177536,
2,0,0,1,0,32445.5,0.0165794,0.0162447,-0.104532,17,-0.00804413,10,-1.69809e-06,-3.98075,-2.45598,-0.024023,0.0976915,0.0162447,
2,0,0,1,0,32447,0.0150812,0.0147484,-0.104324,17,-0.00821974,10,-1.53861e-06,-3.98162,-4.60205,-0.0128204,0.052118,0.0147484,
2,0,0,1,0,32448.5,0.013583,0.0132299,-0.104462,17,-0.00839558,10,-1.38203e-06,-3.98104,-2.90628,-0.0203009,0.0826532,0.0132299,
2,0,0,1,0,32450,0.0120848,0.0117506,-0.104865,17,-0.00857125,10,-1.23222e-06,-3.97937,-1.16603,-0.0505991,0.207524,0.0117506,
2,0,0,1,0,32451.5,0.0105866,0.0102671,-0.105408,17,-0.00874714,10,-1.08223e-06,-3.97713,-0.642352,-0.09185,0.377909,0.01026708,
2,0,0,1,0,32453,0.00908843,0.00872948,-0.105689,17,-0.00892408,10,-9.22609e-07,-3.97597,-0.636282,-0.0927262,0.383087,0.00872948,
2,0,0,1,0,32454.5,0.00759024,0.00727244,-0.106048,17,-0.00910183,10,-7.71227e-07,-3.9745,-1.98184,-0.0297702,0.123069,0.00727244,
2,0,0,1,0,32456,0.00609203,0.00578361,-0.106342,17,-0.00928021,10,-6.15043e-07,-3.97329,-0.62971,-0.093694,0.390014,0.00578361,
2,0,0,1,0,32457.5,0.00459384,0.00427363,-0.107851,17,-0.00945875,10,-4.60916e-07,-3.96718,-0.6065,-0.0972795,0.406324,0.00427363,
2,0,0,1,0,32459,0.00309563,0.00276359,-0.107899,17,-0.00963842,10,-2.98188e-07,-3.96698,-0.518755,-0.113734,0.478662,0.00276359,
2,0,0,1,0,32460.5,0.00159744,0.00121538,-0.108882,17,-0.00982141,10,-1.32333e-07,-3.96304, , , ,0.00121538,
2,0,0,1,0,32461.9,0.000199235,-0.000206971,-0.109319,17,-0.00999114,10,2.2626e-08,-3.9613, , , ,-0.000206971,