File: Figure_codes/Fig_S3_S4/20221101_1-115_002_TrumpetPlot_ParaChange_11_CV_C01_1.csv
mode,ox/red,error,control changes,counter inc.,time/s,control/V,Ewe/V,<I>/mA,cycle number,(Q-Qo)/C,I Range,P/W,log(|I|),Tafel slope mV/dec,alpha_eff,E-IR/V,
2,0,0,1,0,2433.62,2.44065e-05,0.000609955,-6.1318,2,0.0000000E+000,11,-3.74012e-06,-2.21241, , ,0.00551539,
2,0,0,1,0,2433.64,0.00179726,0.0013639,-1.82639,2,-7.88411e-05,11,-2.49102e-06,-2.73841, , ,0.00282501,
2,1,0,1,0,2433.66,0.00379485,0.00343114,1.51987,2,-7.68603e-05,11,5.2149e-06,-2.81819,0.00102014,57.8354,0.00221525,
2,1,0,1,0,2433.68,0.00579244,0.00546394,3.02012,2,-2.93015e-05,11,1.65018e-05,-2.51998,0.00581866,10.1398,0.00304784,
2,1,0,1,0,2433.7,0.00779002,0.00746313,3.72674,2,3.90532e-05,11,2.78131e-05,-2.42867,0.0235918,2.50087,0.00448174,
2,1,0,1,0,2433.72,0.00978761,0.00947081,4.10332,2,0.000117566,11,3.88617e-05,-2.38686,0.0616159,0.957545,0.00618816,
2,1,0,1,0,2433.74,0.0117852,0.0115014,4.26466,2,0.000201481,11,4.90497e-05,-2.37012,0.164299,0.359101,0.00808971,
2,1,0,1,0,2433.76,0.0137828,0.0134926,4.33021,2,0.000287442,11,5.84257e-05,-2.36349,0.342601,0.172212,0.0100284,
2,1,0,1,0,2433.78,0.0157804,0.0154898,4.37786,2,0.00037465,11,6.78122e-05,-2.35874,0.438583,0.134524,0.0119875,
2,1,0,1,0,2433.8,0.017778,0.0174856,4.42027,2,0.00046224,11,7.72912e-05,-2.35455,1.14517,0.0515208,0.0139494,
2,1,0,1,0,2433.82,0.0197755,0.0194612,4.41271,2,0.000550484,11,8.58764e-05,-2.35529,3.01924,0.0195413,0.015931,
2,1,0,1,0,2433.84,0.0217731,0.0215367,4.43391,2,0.000638897,11,9.54918e-05,-2.35321,1.52626,0.0386565,0.0179896,
2,1,0,1,0,2433.86,0.0237707,0.0234923,4.43948,2,0.000727689,11,0.000104294,-2.35267,0.957321,0.0616303,0.0199407,
2,1,0,1,0,2433.88,0.0257683,0.0255011,4.47603,2,0.000816397,11,0.000114144,-2.34911,0.82677,0.071362,0.0219203,
2,1,0,1,0,2433.9,0.0277659,0.027517,4.48903,2,0.000906038,11,0.000123525,-2.34785,1.14493,0.0515316,0.0239258,
2,1,0,1,0,2433.92,0.0297635,0.0295168,4.51206,2,0.000996126,11,0.000133182,-2.34562,0.9762,0.0604385,0.0259072,
2,1,0,1,0,2433.94,0.0317611,0.0315019,4.53106,2,0.00108661,11,0.000142737,-2.3438,0.606809,0.0972299,0.0278771,
2,1,0,1,0,2433.96,0.0337586,0.0334775,4.57945,2,0.00117721,11,0.000153308,-2.33919,0.563424,0.104717,0.0298139,
2,1,0,1,0,2433.98,0.0357562,0.0355368,4.60528,2,0.00126905,11,0.000163657,-2.33674,0.948441,0.0622073,0.0318526,
2,1,0,1,0,2434,0.0377538,0.0374601,4.62355,2,0.00136142,11,0.000173198,-2.33502,0.737791,0.0799684,0.0337613,
2,1,0,1,0,2434.02,0.0397514,0.0394697,4.6615,2,0.00145432,11,0.000183988,-2.33147,0.366872,0.160819,0.0357405,
2,1,0,1,0,2434.04,0.041749,0.0415193,4.74008,2,0.00154777,11,0.000196805,-2.32421,0.415304,0.142065,0.0377272,
2,1,0,1,0,2434.06,0.0437466,0.0434666,4.76379,2,0.00164277,11,0.000207066,-2.32205,0.641071,0.0920335,0.0396556,
2,1,0,1,0,2434.08,0.0457442,0.0454651,4.80681,2,0.00173837,11,0.000218542,-2.31814,0.436611,0.135132,0.0416197,
2,1,0,1,0,2434.1,0.0477418,0.0474567,4.86306,2,0.00183505,11,0.000230785,-2.31309,0.335654,0.175776,0.0435663,
2,1,0,1,0,2434.12,0.0497484,0.0494652,4.93701,2,0.00193293,11,0.000244211,-2.30654,0.347578,0.169746,0.0455156,
2,1,0,1,0,2434.14,0.0517369,0.0514225,4.98918,2,0.00203166,11,0.000256556,-2.30197,0.336318,0.175429,0.0474311,
2,1,0,1,0,2434.16,0.0537345,0.0534225,5.06894,2,0.0021322,11,0.000270795,-2.29508,0.291077,0.202696,0.0493673,
2,1,0,1,0,2434.18,0.0557321,0.0554121,5.1441,2,0.00223432,11,0.000285046,-2.28869,0.304873,0.193523,0.0512968,
2,1,0,1,0,2434.2,0.0577206,0.0574034,5.21892,2,0.00233739,11,0.000299584,-2.28242,0.259931,0.226983,0.0532283,
2,1,0,1,0,2434.22,0.0597273,0.0594097,5.32279,2,0.00244296,11,0.000316226,-2.27386,0.233183,0.25302,0.0551515,
2,1,0,1,0,2434.24,0.0617249,0.0614161,5.4212,2,0.00255038,11,0.000332949,-2.2659,0.24756,0.238326,0.0570791,
2,1,0,1,0,2434.26,0.0637224,0.0634571,5.51892,2,0.00265975,11,0.000350215,-2.25815,0.225198,0.261992,0.059042,
2,1,0,1,0,2434.28,0.06572,0.0654379,5.63873,2,0.00277124,11,0.000368986,-2.24882,0.19165,0.307853,0.0609269,
2,1,0,1,0,2434.3,0.0677176,0.0673981,5.77245,2,0.00288484,11,0.000389052,-2.23864,0.208678,0.282732,0.0627802,
2,1,0,1,0,2434.32,0.0697152,0.0694251,5.87982,2,0.00300141,11,0.000408207,-2.23064,0.220403,0.267692,0.0647213,
2,1,0,1,0,2434.34,0.0717128,0.0714384,6.0094,2,0.00312027,11,0.000429302,-2.22117,0.192892,0.305871,0.0666309,
2,1,0,1,0,2434.36,0.0737104,0.0734488,6.15306,2,0.00324187,11,0.000451935,-2.21091,0.181241,0.325533,0.0685264,
2,1,0,1,0,2434.38,0.075708,0.0754036,6.30117,2,0.00336581,11,0.000475131,-2.20058,0.194738,0.30297,0.0703627,
2,1,0,1,0,2434.4,0.0777056,0.0774156,6.43156,2,0.00349295,11,0.000497903,-2.19168,0.203508,0.289914,0.0722703,
2,1,0,1,0,2434.42,0.0797031,0.0794467,6.57951,2,0.00362309,11,0.00052272,-2.18181,0.189042,0.3121,0.074183,
2,1,0,1,0,2434.44,0.0817007,0.0814257,6.73365,2,0.00375622,11,0.000548292,-2.17175,0.190711,0.309369,0.0760387,
2,1,0,1,0,2434.46,0.0836983,0.0834539,6.8853,2,0.00389163,11,0.000574605,-2.16208,0.195391,0.301959,0.0779456,
2,1,0,1,0,2434.48,0.0856959,0.085395,7.03603,2,0.00403081,11,0.000600841,-2.15267,0.201318,0.293068,0.0797662,
2,1,0,1,0,2434.5,0.0876935,0.0874274,7.18566,2,0.00417298,11,0.000628224,-2.14353,0.215511,0.273768,0.0816788,
2,1,0,1,0,2434.52,0.0896911,0.0894062,7.32595,2,0.00431802,11,0.000654985,-2.13514,0.205271,0.287425,0.0835455,
2,1,0,1,0,2434.54,0.0916887,0.0914036,7.49274,2,0.00446542,11,0.000684863,-2.12536,0.203569,0.289828,0.0854094,
2,1,0,1,0,2434.56,0.0936862,0.0933904,7.64177,2,0.00461685,11,0.000713668,-2.11681,0.228978,0.257666,0.0872769,
2,1,0,1,0,2434.58,0.0956838,0.0953507,7.77824,2,0.00477106,11,0.000741661,-2.10912,0.234616,0.251474,0.0891281,
2,1,0,1,0,2434.6,0.0976814,0.0974408,7.93348,2,0.00492808,11,0.000773044,-2.10054,0.215952,0.273209,0.091094,
2,1,0,1,0,2434.62,0.099679,0.0994433,8.10271,2,0.00508748,11,0.00080576,-2.09137,0.228144,0.258608,0.0929611,
2,1,0,1,0,2434.64,0.101677,0.101423,8.23851,2,0.00525096,11,0.000835573,-2.08415,0.234576,0.251518,0.0948321,
2,1,0,1,0,2434.66,0.103674,0.103387,8.4027,2,0.00541733,11,0.000868729,-2.07558,0.210745,0.279959,0.0966647,
2,1,0,1,0,2434.68,0.105672,0.105367,8.57598,2,0.00558709,11,0.000903629,-2.06672,0.199534,0.295689,0.0985066,
2,1,0,1,0,2434.7,0.107667,0.107361,8.76741,2,0.00575954,11,0.000941274,-2.05713,0.19206,0.307196,0.100347,
2,1,0,1,0,2434.72,0.109667,0.109414,8.96849,2,0.0059368,11,0.00098128,-2.04728,0.186272,0.31674,0.102239,
2,1,0,1,0,2434.74,0.111665,0.111363,9.17507,2,0.00611811,11,0.00102177,-2.03739,0.181236,0.325542,0.104023,
2,1,0,1,0,2434.76,0.113662,0.113384,9.39191,2,0.0063037,11,0.00106489,-2.02725,0.177027,0.333282,0.10587,
2,1,0,1,0,2434.78,0.11566,0.115362,9.62019,2,0.00649374,11,0.0011098,-2.01682,0.148916,0.396197,0.107665,
2,1,0,1,0,2434.8,0.117657,0.11735,9.92079,2,0.00668814,11,0.00116421,-2.00345,0.132664,0.444732,0.109413,
2,1,0,1,0,2434.82,0.119655,0.119371,10.227,2,0.00688955,11,0.00122081,-1.99025,0.132461,0.445414,0.11119,
2,1,0,1,0,2434.84,0.121652,0.121392,10.5501,2,0.00709719,11,0.00128069,-1.97674,0.125748,0.469194,0.112952,
2,1,0,1,0,2434.86,0.12365,0.123373,10.897,2,0.00731155,11,0.00134439,-1.96269,0.115538,0.510656,0.114655,
2,1,0,1,0,2434.88,0.125648,0.125388,11.2906,2,0.00753235,11,0.0014157,-1.94728,0.112749,0.523288,0.116355,
2,1,0,1,0,2434.9,0.127645,0.127329,11.6665,2,0.00776182,11,0.00148549,-1.93306,0.111572,0.528805,0.117996,
2,1,0,1,0,2434.92,0.129643,0.129331,12.0877,2,0.0079993,11,0.00156331,-1.91766,0.109869,0.537001,0.119661,
2,1,0,1,0,2434.94,0.13164,0.131398,12.5237,2,0.00824538,11,0.0016456,-1.90227,0.107355,0.549576,0.121379,
2,1,0,1,0,2434.96,0.133638,0.133298,12.9647,2,0.0084991,11,0.00172818,-1.88724,0.109011,0.541231,0.122927,
2,1,0,1,0,2434.98,0.135636,0.135328,13.4061,2,0.00876277,11,0.00181423,-1.8727,0.115335,0.511555,0.124603,
2,1,0,1,0,2435,0.137633,0.137332,13.8539,2,0.00903528,11,0.00190259,-1.85843,0.123395,0.478139,0.126249,
2,1,0,1,0,2435.02,0.139631,0.139417,14.2814,2,0.0093166,11,0.00199108,-1.84523,0.130541,0.451964,0.127992,
2,1,0,1,0,2435.03,0.141628,0.141386,14.7034,2,0.00960489,11,0.00207886,-1.83258,0.136164,0.433301,0.129623,
2,1,0,1,0,2435.05,0.143626,0.143368,15.1,2,0.00990297,11,0.00216487,-1.82102,0.153466,0.384451,0.131288,
2,1,0,1,0,2435.07,0.145624,0.14536,15.4648,2,0.0102086,11,0.00224796,-1.81066,0.182071,0.32405,0.132988,
2,1,0,1,0,2435.09,0.147621,0.14736,15.774,2,0.010521,11,0.00232446,-1.80206,0.206757,0.285359,0.134741,
2,1,0,1,0,2435.11,0.149619,0.149357,16.0803,2,0.0108379,11,0.00240171,-1.7937,0.244873,0.240942,0.136493,
2,1,0,1,0,2435.13,0.151616,0.151288,16.3025,2,0.0111618,11,0.00246638,-1.78774,0.370598,0.159202,0.138246,
2,1,0,1,0,2435.15,0.153614,0.153336,16.4524,2,0.0114893,11,0.00252275,-1.78377,0.590866,0.0998534,0.140174,
2,1,0,1,0,2435.17,0.155611,0.155301,16.5469,2,0.0118194,11,0.00256974,-1.78128,1.19616,0.0493243,0.142063,
2,1,0,1,0,2435.19,0.157609,0.157326,16.5761,2,0.0121489,11,0.00260785,-1.78052,-1.62627,-0.0362794,0.144065,
2,1,0,1,0,2435.21,0.159607,0.159352,16.4504,2,0.0124792,11,0.0026214,-1.78382,-0.456874,-0.129138,0.146191,
2,1,0,1,0,2435.23,0.161604,0.161318,16.2228,2,0.012806,11,0.00261703,-1.78987,-0.274764,-0.21473,0.14834,
2,1,0,1,0,2435.25,0.163602,0.163308,15.85,2,0.0131268,11,0.00258844,-1.79997,-0.191128,-0.308693,0.150628,
2,1,0,1,0,2435.27,0.165606,0.165364,15.3166,2,0.0134386,11,0.00253281,-1.81484,-0.143851,-0.410148,0.153111,
2,1,0,1,0,2435.29,0.167597,0.167316,14.6357,2,0.0137367,11,0.00244879,-1.83459,-0.114689,-0.514435,0.155607,
2,1,0,1,0,2435.31,0.169595,0.169332,13.8043,2,0.0140212,11,0.00233752,-1.85998,-0.0957924,-0.615915,0.158289,
2,1,0,1,0,2435.33,0.171592,0.171343,12.8327,2,0.0142875,11,0.00219879,-1.89168,-0.0813556,-0.725211,0.161077,
2,1,0,1,0,2435.35,0.173581,0.173294,11.7898,2,0.0145323,11,0.00204311,-1.92849,-0.0729797,-0.808444,0.163862,
2,1,0,1,0,2435.37,0.175587,0.175323,10.7347,2,0.0147574,11,0.00188204,-1.96921,-0.0676895,-0.871627,0.166735,
2,1,0,1,0,2435.39,0.177585,0.17733,9.71263,2,0.0149616,11,0.00172234,-2.01266,-0.0638245,-0.92441,0.16956,
2,1,0,1,0,2435.41,0.179582,0.179339,8.77628,2,0.015146,11,0.00157393,-2.05669,-0.0630456,-0.93583,0.172318,
2,1,0,1,0,2435.43,0.18158,0.181307,7.9862,2,0.0153132,11,0.00144796,-2.09766,-0.0667365,-0.884074,0.174918,
2,1,0,1,0,2435.45,0.183578,0.183343,7.34863,2,0.0154655,11,0.00134732,-2.13379,-0.0724091,-0.814815,0.177464,
2,1,0,1,0,2435.47,0.185575,0.185322,6.82421,2,0.0156068,11,0.00126468,-2.16595,-0.0807538,-0.730616,0.179863,
2,1,0,1,0,2435.49,0.187573,0.187282,6.43194,2,0.0157391,11,0.00120459,-2.19166,-0.0984245,-0.599444,0.182137,
2,1,0,1,0,2435.51,0.18957,0.189276,6.14253,2,0.0158646,11,0.00116263,-2.21165,-0.122543,-0.481462,0.184362,
2,1,0,1,0,2435.53,0.191568,0.191309,5.91731,2,0.0159845,11,0.00113203,-2.22788,-0.145163,-0.40644,0.186575,
2,1,0,1,0,2435.55,0.193566,0.193289,5.73382,2,0.0161008,11,0.00110829,-2.24156,-0.172534,-0.341962,0.188702,
2,1,0,1,0,2435.57,0.195563,0.195326,5.58877,2,0.0162139,11,0.00109163,-2.25268,-0.186864,-0.315737,0.190855,
2,1,0,1,0,2435.59,0.197561,0.197252,5.44504,2,0.0163241,11,0.00107405,-2.264,-0.217898,-0.270769,0.192896,
2,1,0,1,0,2435.61,0.199558,0.199315,5.34718,2,0.0164313,11,0.00106577,-2.27188,-0.253809,-0.232458,0.195037,
2,1,0,1,0,2435.63,0.201556,0.201288,5.24153,2,0.016537,11,0.00105506,-2.28054,-0.223986,-0.263409,0.197095,
2,1,0,1,0,2435.65,0.203553,0.203256,5.12551,2,0.0166406,11,0.00104179,-2.29026,-0.239241,-0.246613,0.199155,
2,1,0,1,0,2435.67,0.205551,0.20526,5.03701,2,0.0167421,11,0.0010339,-2.29783,-0.344733,-0.171147,0.20123,
2,1,0,1,0,2435.69,0.207549,0.207291,4.98549,2,0.0168416,11,0.00103345,-2.30229,-0.333151,-0.177097,0.203303,
2,1,0,1,0,2435.71,0.209546,0.209261,4.89579,2,0.0169402,11,0.0010245,-2.31018,-0.259569,-0.2273,0.205345,
2,1,0,1,0,2435.73,0.211544,0.211287,4.80573,2,0.017037,11,0.00101539,-2.31824,-0.313617,-0.188127,0.207442,
2,1,0,1,0,2435.75,0.213541,0.213289,4.74904,2,0.0171324,11,0.00101292,-2.32339,-0.429346,-0.137418,0.20949,
2,1,0,1,0,2435.77,0.215539,0.215292,4.70151,2,0.0172262,11,0.0010122,-2.32776,-0.358526,-0.164563,0.21153,
2,1,0,1,0,2435.79,0.217537,0.217265,4.62639,2,0.0173194,11,0.00100515,-2.33476,-0.343606,-0.171708,0.213564,
2,1,0,1,0,2435.81,0.219534,0.219285,4.57425,2,0.0174113,11,0.00100306,-2.33968,-0.473029,-0.124728,0.215625,
2,1,0,1,0,2435.83,0.221532,0.221309,4.53459,2,0.0175024,11,0.00100355,-2.34346,-0.490097,-0.120384,0.217681,
2,1,0,1,0,2435.85,0.223525,0.223279,4.48776,2,0.017592,11,0.00100202,-2.34797,-0.491709,-0.11999,0.219688,
2,1,0,1,0,2435.87,0.225527,0.225265,4.44995,2,0.0176813,11,0.00100242,-2.35164,-0.541266,-0.109004,0.221705,
2,1,0,1,0,2435.89,0.227525,0.227271,4.41104,2,0.0177699,11,0.0010025,-2.35546,-0.481216,-0.122606,0.223742,
2,1,0,1,0,2435.91,0.229522,0.22923,4.36489,2,0.0178576,11,0.00100056,-2.36003,-0.545717,-0.108115,0.225738,
2,1,0,1,0,2435.93,0.23152,0.231261,4.3363,2,0.0179445,11,0.00100282,-2.36288,-1.04196,-0.056624,0.227792,
2,1,0,1,0,2435.95,0.233517,0.233258,4.32592,2,0.0180307,11,0.00100905,-2.36392,-0.677474,-0.0870882,0.229797,
2,1,0,1,0,2435.97,0.235515,0.235227,4.27756,2,0.0181166,11,0.0010062,-2.3688,-0.571438,-0.103248,0.231805,
2,1,0,1,0,2435.99,0.237512,0.237251,4.2559,2,0.0182018,11,0.00100972,-2.37101,-0.920461,-0.0640983,0.233846,
2,1,0,1,0,2436.01,0.23951,0.239217,4.23471,2,0.0182865,11,0.00101302,-2.37318,-1.02475,-0.057575,0.235829,
2,1,0,1,0,2436.03,0.241508,0.241285,4.21721,2,0.0183706,11,0.00101755,-2.37497,-0.745394,-0.0791528,0.237911,
2,1,0,1,0,2436.05,0.243505,0.243203,4.18235,2,0.0184544,11,0.00101716,-2.37858,-0.790415,-0.0746443,0.239857,
2,1,0,1,0,2436.07,0.245503,0.245255,4.16825,2,0.0185377,11,0.00102228,-2.38005,-0.989974,-0.0595975,0.24192,
2,1,0,1,0,2436.09,0.2475,0.247249,4.14287,2,0.0186207,11,0.00102432,-2.3827,-1.02959,-0.0573045,0.243935,
2,1,0,1,0,2436.11,0.249498,0.249198,4.13138,2,0.0187029,11,0.00102953,-2.3839,-1.07719,-0.0547724,0.245893,
2,1,0,1,0,2436.13,0.251496,0.251231,4.10751,2,0.0187851,11,0.00103193,-2.38642,-0.887893,-0.0664494,0.247945,
2,1,0,1,0,2436.15,0.253493,0.253224,4.0881,2,0.018867,11,0.0010352,-2.38848,-0.8533,-0.0691433,0.249953,
2,1,0,1,0,2436.17,0.255491,0.25527,4.06258,2,0.0189484,11,0.00103706,-2.3912,-1.69626,-0.0347825,0.25202,
2,1,0,1,0,2436.19,0.257488,0.257194,4.06603,2,0.0190291,11,0.00104576,-2.39083,-1.74034,-0.0339014,0.253941,
2,1,0,1,0,2436.21,0.259486,0.259204,4.04141,2,0.0191101,11,0.00104755,-2.39347,-0.699016,-0.0844043,0.25597,
2,1,0,1,0,2436.23,0.261484,0.261206,4.01208,2,0.0191906,11,0.00104798,-2.39663,-1.02487,-0.0575681,0.257996,
2,1,0,1,0,2436.25,0.263481,0.263232,4.00473,2,0.0192706,11,0.00105417,-2.39743,-9.45285,-0.00624151,0.260029,
2,1,0,1,0,2436.27,0.265479,0.265204,4.00817,2,0.0193501,11,0.00106298,-2.39705,-1.25171,-0.0471357,0.261998,
2,1,0,1,0,2436.29,0.267476,0.267232,3.9752,2,0.0194298,11,0.0010623,-2.40064,-0.74097,-0.0796254,0.264052,
2,1,0,1,0,2436.31,0.269474,0.269193,3.95831,2,0.0195089,11,0.00106555,-2.40249,-1.50508,-0.0392006,0.266026,
2,1,0,1,0,2436.33,0.271471,0.271191,3.95108,2,0.0195878,11,0.0010715,-2.40328,-5.16924,-0.0114137,0.26803,
2,1,0,1,0,2436.35,0.273469,0.273225,3.9512,2,0.0196663,11,0.00107957,-2.40327,-1.05441,-0.0559557,0.270064,
2,1,0,1,0,2436.37,0.275467,0.275185,3.91653,2,0.0197447,11,0.00107777,-2.4071,-0.788271,-0.0748474,0.272052,
2,1,0,1,0,2436.39,0.277464,0.277184,3.90535,2,0.0198228,11,0.0010825,-2.40834,-1.65908,-0.035562,0.27406,
2,1,0,1,0,2436.41,0.279462,0.279233,3.89449,2,0.0199006,11,0.00108747,-2.40955,-1.43297,-0.0411732,0.276118,
2,1,0,1,0,2436.43,0.281464,0.281196,3.88013,2,0.0199782,11,0.00109108,-2.41115,-1.41515,-0.0416917,0.278092,
2,1,0,1,0,2436.45,0.283457,0.283212,3.86924,2,0.0200552,11,0.00109581,-2.41237,-1.49439,-0.0394811,0.280116,
2,1,0,1,0,2436.47,0.285455,0.285198,3.85616,2,0.0201324,11,0.00109977,-2.41384,-1.00546,-0.0586793,0.282113,
2,1,0,1,0,2436.49,0.287452,0.287187,3.83392,2,0.0202091,11,0.00110105,-2.41636,-1.19885,-0.0492137,0.28412,
2,1,0,1,0,2436.51,0.28945,0.289199,3.82647,2,0.0202856,11,0.00110661,-2.4172,-3.19953,-0.0184402,0.286137,
2,1,0,1,0,2436.53,0.291447,0.29118,3.8229,2,0.0203618,11,0.00111315,-2.41761,-1.07267,-0.0550028,0.288122,
2,1,0,1,0,2436.55,0.293445,0.293178,3.79371,2,0.0204379,11,0.00111223,-2.42094,-1.12281,-0.0525468,0.290143,
2,1,0,1,0,2436.57,0.295442,0.295181,3.79147,2,0.0205136,11,0.00111917,-2.42119,-5.55147,-0.0106278,0.292147,
2,1,0,1,0,2436.59,0.29744,0.297164,3.78744,2,0.0205893,11,0.00112549,-2.42165,-2.03535,-0.0289876,0.294134,
2,1,0,1,0,2436.61,0.299438,0.299202,3.7742,2,0.0206645,11,0.00112925,-2.42318,-0.0271102,-2.1763,0.296183,
2,1,0,1,0,2436.62,0.299737,0.29958,2.90512,2,0.0206944,11,0.000870317,-2.53684,-0.0027042,-21.8179,0.297256,
2,0,0,1,0,2436.64,0.29774,0.297453,-0.761789,2,0.0207069,11,-0.000226596,-3.11817,0.0020244,29.1445,0.298062,
2,0,0,1,0,2436.66,0.295742,0.295464,-1.54859,2,0.020682,11,-0.000457553,-2.81006,-0.009007,-6.55046,0.296703,
2,0,0,1,0,2436.68,0.293745,0.293456,-1.7345,2,0.0206489,11,-0.000508999,-2.76083,-0.0579536,-1.01806,0.294843,
2,0,0,1,0,2436.7,0.291747,0.291467,-1.80062,2,0.0206137,11,-0.000524821,-2.74458,-0.114522,-0.515185,0.292908,
2,0,0,1,0,2436.72,0.289754,0.289427,-1.87655,2,0.0205772,11,-0.000543126,-2.72664,-0.130881,-0.450792,0.290928,
2,0,0,1,0,2436.74,0.287752,0.287448,-1.92908,2,0.0205392,11,-0.000554509,-2.71465,-0.161276,-0.365833,0.288991,
2,0,0,1,0,2436.76,0.285754,0.285442,-1.98398,2,0.0205002,11,-0.000566311,-2.70246,-0.154582,-0.381675,0.287029,
2,0,0,1,0,2436.78,0.283757,0.283478,-2.04378,2,0.02046,11,-0.000579367,-2.68957,-0.152794,-0.386141,0.285113,
2,0,0,1,0,2436.8,0.281759,0.281477,-2.10311,2,0.0204186,11,-0.000591979,-2.67714,-0.176015,-0.335198,0.28316,
2,0,0,1,0,2436.82,0.279761,0.279472,-2.15133,2,0.0203762,11,-0.000601236,-2.66729,-0.193022,-0.305664,0.281193,
2,0,0,1,0,2436.84,0.277764,0.277525,-2.20255,2,0.0203328,11,-0.000611263,-2.65707,-0.191552,-0.30801,0.279287,
2,0,0,1,0,2436.86,0.275766,0.275505,-2.25418,2,0.0202883,11,-0.000621037,-2.64701,-0.231484,-0.254877,0.277308,
2,0,0,1,0,2436.88,0.273769,0.273462,-2.29177,2,0.0202429,11,-0.000626711,-2.63983,-0.217898,-0.270769,0.275295,
2,0,0,1,0,2436.9,0.271771,0.271485,-2.35008,2,0.0201967,11,-0.000638013,-2.62892,-0.207774,-0.283962,0.273365,
2,0,0,1,0,2436.92,0.269774,0.269463,-2.39346,2,0.0201494,11,-0.000644949,-2.62097,-0.279313,-0.211233,0.271377,
2,0,0,1,0,2436.94,0.267776,0.26744,-2.42852,2,0.0201012,11,-0.000649483,-2.61466,-0.284402,-0.207453,0.269383,
2,0,0,1,0,2436.96,0.265778,0.265487,-2.47052,2,0.0200524,11,-0.000655891,-2.60721,-0.245776,-0.240056,0.267464,
2,0,0,1,0,2436.98,0.263781,0.263479,-2.51863,2,0.0200029,11,-0.000663606,-2.59884,-0.266262,-0.221587,0.265494,
2,0,0,1,0,2437,0.261783,0.26145,-2.55677,2,0.0199523,11,-0.000668467,-2.59231,-0.390663,-0.151025,0.263496,
2,0,0,1,0,2437.02,0.259786,0.259524,-2.57732,2,0.0199012,11,-0.000668876,-2.58883,-0.331313,-0.17808,0.261586,
2,0,0,1,0,2437.04,0.257788,0.257526,-2.62644,2,0.0198493,11,-0.000676377,-2.58063,-0.256871,-0.229687,0.259627,
2,0,0,1,0,2437.06,0.25579,0.255462,-2.67108,2,0.0197967,11,-0.000682361,-2.57331,-0.378425,-0.155909,0.257599,
2,0,0,1,0,2437.08,0.253793,0.25352,-2.69041,2,0.0197432,11,-0.000682072,-2.57018,-0.40324,-0.146315,0.255672,
2,0,0,1,0,2437.1,0.251795,0.251502,-2.73143,2,0.0196891,11,-0.000686959,-2.56361,-0.342035,-0.172497,0.253687,
2,0,0,1,0,2437.12,0.249798,0.249485,-2.76341,2,0.0196343,11,-0.000689428,-2.55855,-0.350559,-0.168303,0.251695,
2,0,0,1,0,2437.14,0.2478,0.247509,-2.80296,2,0.0195791,11,-0.000693757,-2.55238,-0.340669,-0.173189,0.249751,
2,0,0,1,0,2437.16,0.245802,0.24554,-2.83695,2,0.0195228,11,-0.000696585,-2.54715,-0.362519,-0.16275,0.24781,
2,0,0,1,0,2437.18,0.243805,0.243528,-2.87369,2,0.0194658,11,-0.000699826,-2.54156,-0.470027,-0.125525,0.245827,
2,0,0,1,0,2437.2,0.241807,0.241513,-2.89283,2,0.0194082,11,-0.000698658,-2.53868,-0.330015,-0.17878,0.243828,
2,0,0,1,0,2437.22,0.23981,0.239532,-2.95363,2,0.0193502,11,-0.00070749,-2.52964,-0.322503,-0.182944,0.241895,
2,0,0,1,0,2437.24,0.237812,0.237508,-2.97535,2,0.0192911,11,-0.000706669,-2.52646,-0.505228,-0.116779,0.239889,
2,0,0,1,0,2437.26,0.235815,0.235532,-3.00738,2,0.0192313,11,-0.000708335,-2.52181,-0.374261,-0.157644,0.237938,
2,0,0,1,0,2437.28,0.233817,0.233485,-3.04881,2,0.019171,11,-0.000711851,-2.51587,-0.346228,-0.170408,0.235924,
2,0,0,1,0,2437.3,0.231815,0.231521,-3.08737,2,0.0191099,11,-0.000714791,-2.51041,-0.348533,-0.169281,0.233991,
2,0,0,1,0,2437.32,0.229822,0.229534,-3.12813,2,0.019048,11,-0.000718012,-2.50471,-0.45192,-0.130554,0.232036,
2,0,0,1,0,2437.34,0.227824,0.227512,-3.15027,2,0.0189854,11,-0.000716725,-2.50165,-0.412442,-0.14305,0.230033,
2,0,0,1,0,2437.36,0.225827,0.22552,-3.19801,2,0.0189221,11,-0.000721217,-2.49512,-0.324076,-0.182056,0.228079,
2,0,0,1,0,2437.38,0.223829,0.223531,-3.23903,2,0.0188579,11,-0.000724023,-2.48959,-0.340157,-0.173449,0.226122,
2,0,0,1,0,2437.4,0.221831,0.221552,-3.28356,2,0.018793,11,-0.00072748,-2.48365,-0.351423,-0.167889,0.224179,
2,0,0,1,0,2437.42,0.219834,0.219557,-3.323,2,0.018727,11,-0.000729589,-2.47847,-0.32092,-0.183846,0.222216,
2,0,0,1,0,2437.44,0.217836,0.217525,-3.378,2,0.0186601,11,-0.000734798,-2.47134,-0.37684,-0.156565,0.220227,
2,0,0,1,0,2437.46,0.215839,0.215548,-3.40407,2,0.0185923,11,-0.000733739,-2.468,-0.3105,-0.190016,0.218271,
2,0,0,1,0,2437.48,0.213841,0.213526,-3.47762,2,0.0185239,11,-0.000742561,-2.45872,-0.259922,-0.226991,0.216308,
2,0,0,1,0,2437.5,0.211843,0.211546,-3.5239,2,0.018454,11,-0.000745469,-2.45298,-0.367952,-0.160347,0.214365,
2,0,0,1,0,2437.52,0.209846,0.20956,-3.56348,2,0.0183832,11,-0.000746761,-2.44813,-0.308282,-0.191383,0.21241,
2,0,0,1,0,2437.54,0.207848,0.207557,-3.62822,2,0.0183114,11,-0.000753063,-2.44031,-0.215361,-0.273959,0.21046,
2,0,0,1,0,2437.56,0.205851,0.205555,-3.71457,2,0.0182384,11,-0.000763548,-2.43009,-0.244487,-0.241321,0.208526,
2,0,0,1,0,2437.58,0.203853,0.203528,-3.76468,2,0.0181637,11,-0.000766217,-2.42427,-0.298742,-0.197495,0.206539,
2,0,0,1,0,2437.6,0.201856,0.201519,-3.82922,2,0.018088,11,-0.000771661,-2.41689,-0.23844,-0.247442,0.204583,
2,0,0,1,0,2437.62,0.199858,0.199563,-3.9073,2,0.0180108,11,-0.000779753,-2.40812,-0.210024,-0.28092,0.202689,
2,0,0,1,0,2437.64,0.19786,0.197556,-3.99352,2,0.0179323,11,-0.000788943,-2.39864,-0.219035,-0.269364,0.200751,
2,0,0,1,0,2437.66,0.195863,0.19557,-4.06925,2,0.0178519,11,-0.000795825,-2.39049,-0.205367,-0.287291,0.198826,
2,0,0,1,0,2437.68,0.193865,0.193523,-4.17159,2,0.0177697,11,-0.000807296,-2.3797,-0.18996,-0.310592,0.19686,
2,0,0,1,0,2437.7,0.191868,0.191579,-4.26295,2,0.0176854,11,-0.000816692,-2.37029,-0.175846,-0.335522,0.194989,
2,0,0,1,0,2437.72,0.18987,0.189575,-4.38315,2,0.0175997,11,-0.000830936,-2.35821,-0.171406,-0.344213,0.193082,
2,0,0,1,0,2437.74,0.187872,0.187575,-4.48765,2,0.0175111,11,-0.000841772,-2.34798,-0.166143,-0.355115,0.191166,
2,0,0,1,0,2437.76,0.185875,0.185629,-4.61751,2,0.0174202,11,-0.000857145,-2.33559,-0.156441,-0.37714,0.189323,
2,0,0,1,0,2437.78,0.183877,0.183568,-4.74583,2,0.0173266,11,-0.000871184,-2.32369,-0.136788,-0.431324,0.187365,
2,0,0,1,0,2437.8,0.18188,0.18157,-4.9237,2,0.0172307,11,-0.000893998,-2.30771,-0.123241,-0.478735,0.185509,
2,0,0,1,0,2437.82,0.179882,0.179612,-5.08419,2,0.0171308,11,-0.000913179,-2.29378,-0.136238,-0.433066,0.183679,
2,0,0,1,0,2437.84,0.177885,0.177589,-5.24365,2,0.0170276,11,-0.000931216,-2.28037,-0.125154,-0.471418,0.181784,
2,0,0,1,0,2437.86,0.175887,0.175611,-5.44366,2,0.0169208,11,-0.000955966,-2.26411,-0.106638,-0.553272,0.179966,
2,0,0,1,0,2437.88,0.173896,0.173593,-5.67387,2,0.0168102,11,-0.000984945,-2.24612,-0.0989571,-0.596218,0.178132,
2,0,0,1,0,2437.9,0.171892,0.171606,-5.92233,2,0.0166943,11,-0.00101631,-2.22751,-0.0972311,-0.606802,0.176344,
2,0,0,1,0,2437.92,0.169894,0.169574,-6.18075,2,0.0165735,11,-0.0010481,-2.20896,-0.0912883,-0.646304,0.174519,
2,0,0,1,0,2437.94,0.167897,0.167604,-6.4782,2,0.0164471,11,-0.00108577,-2.18855,-0.084172,-0.700946,0.172787,
2,0,0,1,0,2437.96,0.165899,0.165597,-6.79859,2,0.0163145,11,-0.00112583,-2.16758,-0.080605,-0.731965,0.171036,
2,0,0,1,0,2437.98,0.163901,0.163611,-7.15032,2,0.0161758,11,-0.00116987,-2.14567,-0.0756123,-0.780296,0.169331,
2,0,0,1,0,2438,0.161904,0.16165,-7.5313,2,0.0160291,11,-0.00121743,-2.12313,-0.0727317,-0.8112,0.167675,
2,0,0,1,0,2438.02,0.159906,0.159606,-7.95357,2,0.0158744,11,-0.00126943,-2.09944,-0.0702672,-0.839652,0.165968,
2,0,0,1,0,2438.04,0.157909,0.157622,-8.40035,2,0.0157109,11,-0.00132408,-2.0757,-0.0681551,-0.865672,0.164342,
2,0,0,1,0,2438.06,0.155911,0.15564,-8.87117,2,0.0155392,11,-0.00138071,-2.05202,-0.0629645,-0.937037,0.162737,
2,0,0,1,0,2438.08,0.153913,0.153677,-9.41919,2,0.0153562,11,-0.00144751,-2.02599,-0.0620127,-0.951418,0.161212,
2,0,0,1,0,2438.1,0.151916,0.151663,-9.95648,2,0.0151624,11,-0.00151003,-2.00189,-0.0651557,-0.905524,0.159628,
2,0,0,1,0,2438.12,0.149918,0.149644,-10.5271,2,0.0149576,11,-0.00157532,-1.97769,-0.0648359,-0.90999,0.158065,
2,0,0,1,0,2438.14,0.147921,0.147623,-11.1192,2,0.0147422,11,-0.00164145,-1.95393,-0.0665672,-0.886322,0.156518,
2,0,0,1,0,2438.16,0.145923,0.1457,-11.6853,2,0.0145142,11,-0.00170254,-1.93236,-0.0724338,-0.814537,0.155048,
2,0,0,1,0,2438.18,0.143926,0.143645,-12.258,2,0.0142747,11,-0.0017608,-1.91158,-0.0758829,-0.777514,0.153451,
2,0,0,1,0,2438.2,0.141928,0.141682,-12.8366,2,0.0140238,11,-0.00181871,-1.89155,-0.0780938,-0.755502,0.151951,
2,0,0,1,0,2438.22,0.13993,0.139691,-13.4057,2,0.0137627,11,-0.00187265,-1.87271,-0.0896891,-0.657828,0.150416,
2,0,0,1,0,2438.24,0.137933,0.137648,-13.9231,2,0.0134895,11,-0.00191649,-1.85626,-0.101581,-0.580815,0.148786,
2,0,0,1,0,2438.26,0.135935,0.135644,-14.4245,2,0.013206,11,-0.0019566,-1.8409,-0.112713,-0.523452,0.147184,
2,0,0,1,0,2438.28,0.133938,0.133632,-14.8791,2,0.0129129,11,-0.00198832,-1.82742,-0.129265,-0.456427,0.145536,
2,0,0,1,0,2438.3,0.13194,0.131667,-15.2931,2,0.0126129,11,-0.0020136,-1.8155,-0.155329,-0.379839,0.143901,
2,0,0,1,0,2438.32,0.129942,0.129661,-15.6395,2,0.0123036,11,-0.00202784,-1.80578,-0.196026,-0.300981,0.142173,
2,0,0,1,0,2438.34,0.127945,0.127678,-15.931,2,0.0119878,11,-0.00203403,-1.79776,-0.258747,-0.228022,0.140422,
2,0,0,1,0,2438.36,0.125947,0.125669,-16.1467,2,0.0116671,11,-0.00202915,-1.79192,-0.353587,-0.166861,0.138587,
2,0,0,1,0,2438.38,0.12395,0.123672,-16.319,2,0.0113441,11,-0.0020182,-1.78731,-0.56191,-0.104999,0.136727,
2,0,0,1,0,2438.4,0.121952,0.121648,-16.4013,2,0.0110168,11,-0.00199519,-1.78512,-2.45938,-0.0239898,0.134769,
2,0,0,1,0,2438.42,0.119955,0.119665,-16.3796,2,0.0106889,11,-0.00196006,-1.7857,1.38629,0.0425597,0.132769,
2,0,0,1,0,2438.44,0.117957,0.117688,-16.2914,2,0.0103622,11,-0.0019173,-1.78804,0.606664,0.0972532,0.130721,
2,0,0,1,0,2438.46,0.115955,0.115624,-16.1174,2,0.0100382,11,-0.00186356,-1.7927,0.350577,0.168294,0.128518,
2,0,0,1,0,2438.48,0.113962,0.113679,-15.8297,2,0.00972008,11,-0.00179951,-1.80053,0.246022,0.239816,0.126343,
2,0,0,1,0,2438.5,0.111964,0.111663,-15.454,2,0.00940722,11,-0.00172565,-1.81096,0.201589,0.292675,0.124026,
2,0,0,1,0,2438.52,0.109967,0.109616,-14.9971,2,0.00910271,11,-0.00164392,-1.82399,0.166955,0.353388,0.121613,
2,0,0,1,0,2438.54,0.107969,0.107664,-14.4662,2,0.00880813,11,-0.00155749,-1.83965,0.14676,0.402016,0.119237,
2,0,0,1,0,2438.56,0.105971,0.105677,-13.9068,2,0.00852589,11,-0.00146963,-1.85677,0.136856,0.431109,0.116802,
2,0,0,1,0,2438.58,0.103974,0.103639,-13.3101,2,0.00825389,11,-0.00137944,-1.87582,0.126881,0.465001,0.114287,
2,0,0,1,0,2438.6,0.101976,0.101689,-12.7138,2,0.00799385,11,-0.00129286,-1.89572,0.121196,0.486813,0.11186,
2,0,0,1,0,2438.62,0.0999786,0.0996779,-12.1249,2,0.00774577,11,-0.00120859,-1.91632,0.123974,0.475908,0.109378,
2,0,0,1,0,2438.64,0.0979811,0.097686,-11.611,2,0.00750974,11,-0.00113423,-1.93513,0.128947,0.457553,0.106975,
2,0,0,1,0,2438.66,0.0959835,0.0956714,-11.1282,2,0.00728263,11,-0.00106465,-1.95358,0.130838,0.450938,0.104574,
2,0,0,1,0,2438.68,0.0939859,0.0937345,-10.6917,2,0.00706469,11,-0.00100218,-1.97095,0.144214,0.409114,0.102288,
2,0,0,1,0,2438.7,0.0919883,0.0916536,-10.331,2,0.00685467,11,-0.000946872,-1.98586,0.172421,0.342186,0.0999183,
2,0,0,1,0,2438.72,0.0899907,0.0896471,-10.0551,2,0.00665198,11,-0.000901415,-1.99761,0.180437,0.326983,0.0976912,
2,0,0,1,0,2438.74,0.0879931,0.0876911,-9.76499,2,0.00645402,11,-0.000856303,-2.01033,0.190993,0.308911,0.0955031,
2,0,0,1,0,2438.76,0.0859955,0.0856847,-9.53846,2,0.00626119,11,-0.0008173,-2.02052,0.223825,0.263599,0.0933155,
2,0,0,1,0,2438.78,0.083998,0.0836541,-9.33464,2,0.00607257,11,-0.000780881,-2.0299,0.25186,0.234257,0.0911218,
2,0,0,1,0,2438.8,0.0820004,0.0817335,-9.17567,2,0.0058884,11,-0.00074996,-2.03736,0.272914,0.216186,0.0890741,
2,0,0,1,0,2438.82,0.0800028,0.0797182,-9.00998,2,0.00570663,11,-0.000718259,-2.04528,0.290606,0.203024,0.0869262,
2,0,0,1,0,2438.84,0.0780052,0.0777132,-8.87083,2,0.00552794,11,-0.00068938,-2.05204,0.306325,0.192606,0.0848098,
2,0,0,1,0,2438.86,0.0760076,0.0756659,-8.72469,2,0.00535211,11,-0.000660161,-2.05925,0.307625,0.191792,0.0826456,
2,0,0,1,0,2438.88,0.07401,0.073707,-8.59454,2,0.00518006,11,-0.000633478,-2.06578,0.303147,0.194625,0.0805826,
2,0,0,1,0,2438.9,0.0720124,0.0716998,-8.45175,2,0.00500976,11,-0.000605989,-2.07305,0.284442,0.207424,0.0784612,
2,0,0,1,0,2438.92,0.0700148,0.0697394,-8.30743,2,0.00484228,11,-0.000579355,-2.08053,0.267984,0.220163,0.0763854,
2,0,0,1,0,2438.94,0.0680173,0.0677136,-8.15027,2,0.00467783,11,-0.000551884,-2.08883,0.28799,0.204868,0.0742338,
2,0,0,1,0,2438.96,0.0660106,0.0656799,-8.02775,2,0.00451625,11,-0.000527262,-2.09541,0.279642,0.210984,0.0721021,
2,0,0,1,0,2438.98,0.0640221,0.0637251,-7.87253,2,0.0043581,11,-0.000501678,-2.10389,0.239759,0.24608,0.0700231,
2,0,0,1,0,2439,0.0620245,0.0617234,-7.70957,2,0.00420241,11,-0.00047586,-2.11297,0.23794,0.247961,0.067891,
2,0,0,1,0,2439.02,0.0600269,0.0597288,-7.55531,2,0.00404988,11,-0.00045127,-2.12175,0.246605,0.239249,0.065773,
2,0,0,1,0,2439.04,0.0580361,0.0577613,-7.41313,2,0.00390109,11,-0.000428192,-2.13,0.24233,0.243469,0.0636918,
2,0,0,1,0,2439.06,0.0560317,0.0557142,-7.25601,2,0.00375429,11,-0.000404263,-2.1393,0.248954,0.236992,0.061519,
2,0,0,1,0,2439.08,0.0540342,0.0537269,-7.12648,2,0.00361061,11,-0.000382884,-2.14712,0.260442,0.226538,0.0594281,
2,0,0,1,0,2439.1,0.0520366,0.0517709,-6.99445,2,0.0034695,11,-0.000362109,-2.15525,0.25746,0.229162,0.0573665,
2,0,0,1,0,2439.12,0.050039,0.0497372,-6.86377,2,0.00333099,11,-0.000341385,-2.16344,0.285855,0.206398,0.0552283,
2,0,0,1,0,2439.14,0.0480414,0.047715,-6.75938,2,0.00319545,11,-0.000322524,-2.17009,0.323173,0.182565,0.0531225,
2,0,0,1,0,2439.16,0.0460438,0.0457452,-6.66369,2,0.00306127,11,-0.000304832,-2.17629,0.343562,0.171731,0.0510762,
2,0,0,1,0,2439.18,0.0440462,0.0437261,-6.57456,2,0.00292903,11,-0.00028748,-2.18213,0.363865,0.162148,0.0489858,
2,0,0,1,0,2439.2,0.0420486,0.04179,-6.49337,2,0.00279864,11,-0.000271358,-2.18753,0.453132,0.130205,0.0469847,
2,0,0,1,0,2439.22,0.040051,0.0398205,-6.44189,2,0.00267,11,-0.000256519,-2.19099,0.536652,0.109941,0.044974,
2,0,0,1,0,2439.24,0.0380535,0.0377478,-6.37922,2,0.00254188,11,-0.000240802,-2.19523,0.491222,0.120109,0.0428512,
2,0,0,1,0,2439.26,0.0360559,0.0357579,-6.31742,2,0.00241508,11,-0.000225898,-2.19946,0.656238,0.0899063,0.0408119,
2,0,0,1,0,2439.28,0.0340583,0.0337867,-6.28959,2,0.00228911,11,-0.000212505,-2.20138,1.236,0.0477345,0.0388184,
2,0,0,1,0,2439.3,0.0320607,0.0317986,-6.27056,2,0.00216419,11,-0.000199395,-2.20269,1.04839,0.056277,0.0368151,
2,0,0,1,0,2439.32,0.0300631,0.0297687,-6.23372,2,0.00203931,11,-0.00018557,-2.20525,1.06208,0.0555516,0.0347557,
2,0,0,1,0,2439.34,0.0280655,0.0277509,-6.21518,2,0.00191494,11,-0.000172477,-2.20655,2.08278,0.0283275,0.032723,
2,0,0,1,0,2439.36,0.0260679,0.0257745,-6.2061,2,0.0017908,11,-0.000159959,-2.20718,4.57388,0.0128993,0.0307394,
2,0,0,1,0,2439.38,0.0240704,0.0237694,-6.2027,2,0.00166739,11,-0.000147434,-2.20742,62.2767,0.000947385,0.0287315,
2,0,0,1,0,2439.4,0.0220728,0.0217574,-6.20518,2,0.00154337,11,-0.000135009,-2.20725,-23.006,-0.00256455,0.0267215,
2,0,0,1,0,2439.42,0.0200752,0.019784,-6.20517,2,0.00141937,11,-0.000122763,-2.20725,8.49662,0.00694393,0.0247482,
2,0,0,1,0,2439.44,0.0180776,0.017756,-6.19845,2,0.0012953,11,-0.00011006,-2.20772,-1.94249,-0.0303734,0.0227148,
2,0,0,1,0,2439.46,0.01608,0.0157981,-6.23439,2,0.00117176,11,-9.84913e-05,-2.20521,-1.18537,-0.0497736,0.0207856,
2,0,0,1,0,2439.48,0.0140824,0.0137441,-6.24648,2,0.00104703,11,-8.58522e-05,-2.20436,-2.46834,-0.0239027,0.0187413,
2,0,0,1,0,2439.5,0.0120848,0.0117943,-6.25761,2,0.000922066,11,-7.38041e-05,-2.20359,-2.0425,-0.0288862,0.0168004,
2,0,0,1,0,2439.52,0.0100872,0.00982083,-6.27401,2,0.000796916,11,-6.1616e-05,-2.20245,-1.0198,-0.0578543,0.01484,
2,0,0,1,0,2439.54,0.00809193,0.00780978,-6.31352,2,0.000671849,11,-4.93072e-05,-2.19973,-0.80339,-0.0734388,0.0128606,
2,0,0,1,0,2439.56,0.00609208,0.00580604,-6.34558,2,0.000545341,11,-3.68427e-05,-2.19753,-1.41212,-0.0417812,0.0108825,
2,0,0,1,0,2439.58,0.00409449,0.00379754,-6.35462,2,0.000418535,11,-2.41319e-05,-2.19691,-0.509779,-0.115736,0.00888123,
2,0,0,1,0,2439.6,0.0020969,0.00172223,-6.46102,2,0.000291006,11,-1.11273e-05,-2.1897,-0.51202,-0.11523,0.00689104,
2,0,0,1,0,2439.62,9.14991e-05,-0.000252445,-6.46876,2,0.000161708,11,1.63301e-06,-2.18918,-2.59813,-0.0227087,0.00492257,
2,0,0,1,0,2439.64,-0.00189827,-0.00226725,-6.4838,2,3.28721e-05,11,1.47004e-05,-2.18817,-1.41484,-0.0417007,0.00291979,
2,0,0,1,0,2439.66,-0.00389586,-0.00422702,-6.51039,2,-9.69349e-05,11,2.75196e-05,-2.18639,-0.864013,-0.068286,0.000981289,
2,0,0,1,0,2439.68,-0.00589345,-0.00620132,-6.55119,2,-0.000227454,11,4.0626e-05,-2.18368,-0.950852,-0.0620496,-0.000960362,
2,0,0,1,0,2439.7,-0.00789103,-0.00824283,-6.57321,2,-0.000358639,11,5.41818e-05,-2.18222,-0.681138,-0.0866198,-0.00298426,
2,0,0,1,0,2439.72,-0.00988862,-0.0102195,-6.63921,2,-0.000490147,11,6.78494e-05,-2.17788,-0.53512,-0.110256,-0.00490814,
2,0,0,1,0,2439.74,-0.0118862,-0.0122341,-6.68451,2,-0.000623334,11,8.17788e-05,-2.17493,-0.776605,-0.0759717,-0.00688647,
2,0,0,1,0,2439.76,-0.0138838,-0.0142508,-6.71779,2,-0.000757353,11,9.5734e-05,-2.17277,-0.787341,-0.0749358,-0.0088766,
2,0,0,1,0,2439.78,-0.0158814,-0.0162264,-6.76179,2,-0.000892063,11,0.000109719,-2.16994,-0.532985,-0.110697,-0.0108169,
2,0,0,1,0,2439.8,-0.017879,-0.0182305,-6.83159,2,-0.00102736,11,0.000124543,-2.16548,-0.561326,-0.105108,-0.0127652,
2,0,0,1,0,2439.82,-0.0198766,-0.0202205,-6.87103,2,-0.00116433,11,0.000138936,-2.16298,-0.694285,-0.0849795,-0.0147237,
2,0,0,1,0,2439.84,-0.0218741,-0.0222612,-6.92187,2,-0.00130216,11,0.000154089,-2.15978,-0.56475,-0.104471,-0.0167237,
2,0,0,1,0,2439.86,-0.0238717,-0.0242351,-6.98189,2,-0.00144108,11,0.000169207,-2.15603,-0.473601,-0.124578,-0.0186496,
2,0,0,1,0,2439.88,-0.0258693,-0.0262364,-7.05334,2,-0.00158064,11,0.000185054,-2.15161,-0.605796,-0.0973925,-0.0205937,
2,0,0,1,0,2439.9,-0.0278669,-0.0281833,-7.08523,2,-0.00172187,11,0.000199685,-2.14965,-0.653798,-0.090242,-0.0225151,
2,0,0,1,0,2439.92,-0.0298645,-0.0301918,-7.15033,2,-0.00186415,11,0.000215881,-2.14567,-0.53129,-0.11105,-0.0244715,
2,0,0,1,0,2439.94,-0.0318621,-0.0322059,-7.2068,2,-0.00200767,11,0.000232102,-2.14226,-0.521816,-0.113067,-0.0264405,
2,0,0,1,0,2439.96,-0.0338597,-0.0342389,-7.27595,2,-0.00215166,11,0.000249121,-2.13811,-0.525181,-0.112342,-0.0284182,
2,0,0,1,0,2439.98,-0.0358573,-0.036234,-7.33198,2,-0.00229765,11,0.000265667,-2.13478,-0.52567,-0.112238,-0.0303684,
2,0,0,1,0,2440,-0.0378548,-0.0381498,-7.39848,2,-0.00244496,11,0.00028225,-2.13086,-0.573151,-0.10294,-0.032231,
2,0,0,1,0,2440.02,-0.0398524,-0.0402025,-7.44706,2,-0.00259345,11,0.00029939,-2.12802,-0.476973,-0.123697,-0.0342448,
2,0,0,1,0,2440.04,-0.04185,-0.042186,-7.53994,2,-0.00274244,11,0.00031808,-2.12263,-0.444731,-0.132664,-0.036154,
2,0,0,1,0,2440.06,-0.0438476,-0.0441884,-7.59761,2,-0.00289376,11,0.000335726,-2.11932,-0.572511,-0.103055,-0.0381104,
2,0,0,1,0,2440.08,-0.0458452,-0.0462043,-7.65983,2,-0.00304636,11,0.000353917,-2.11578,-0.524446,-0.1125,-0.0400765,
2,0,0,1,0,2440.1,-0.0478428,-0.0481616,-7.72777,2,-0.00320021,11,0.000372182,-2.11195,-0.404182,-0.145974,-0.0419794,
2,0,0,1,0,2440.12,-0.0498495,-0.0501996,-7.83009,2,-0.00335566,11,0.000393068,-2.10623,-0.397271,-0.148513,-0.0439356,
2,0,0,1,0,2440.14,-0.051838,-0.0521582,-7.90246,2,-0.00351216,11,0.000412178,-2.10224,-0.517841,-0.113935,-0.0458362,
2,0,0,1,0,2440.16,-0.0538355,-0.0541678,-7.96563,2,-0.00367068,11,0.00043148,-2.09878,-0.472651,-0.124828,-0.0477953,
2,0,0,1,0,2440.18,-0.0558331,-0.0561333,-8.05229,2,-0.00383085,11,0.000452002,-2.09408,-0.401632,-0.146901,-0.0496915,
2,0,0,1,0,2440.2,-0.0578216,-0.0582007,-8.14524,2,-0.00399196,11,0.000474059,-2.0891,-0.401056,-0.147112,-0.0516845,
2,0,0,1,0,2440.22,-0.0598283,-0.0601667,-8.23405,2,-0.00415578,11,0.000495415,-2.08439,-0.356838,-0.165341,-0.0535795,
2,0,0,1,0,2440.24,-0.0618259,-0.0621331,-8.34592,2,-0.00432142,11,0.000518558,-2.07853,-0.381797,-0.154532,-0.0554564,
2,0,0,1,0,2440.26,-0.0638235,-0.0641733,-8.42756,2,-0.00448912,11,0.000540825,-2.0743,-0.419313,-0.140706,-0.0574312,
2,0,0,1,0,2440.28,-0.0658211,-0.0661684,-8.52617,2,-0.00465867,11,0.000564162,-2.06925,-0.339348,-0.173863,-0.0593474,
2,0,0,1,0,2440.3,-0.0678187,-0.0681986,-8.65045,2,-0.00482969,11,0.000589948,-2.06296,-0.316568,-0.186374,-0.0612782,
2,0,0,1,0,2440.32,-0.0698162,-0.070153,-8.76472,2,-0.00500388,11,0.000614871,-2.05726,-0.336265,-0.175457,-0.0631412,
2,0,0,1,0,2440.34,-0.0718138,-0.0721331,-8.87571,2,-0.00518029,11,0.000640232,-2.0518,-0.320061,-0.18434,-0.0650325,
2,0,0,1,0,2440.36,-0.0738114,-0.0741501,-9.0078,2,-0.00535905,11,0.00066793,-2.04538,-0.275906,-0.213841,-0.0669439,
2,0,0,1,0,2440.38,-0.075809,-0.0761437,-9.16039,2,-0.00553984,11,0.000697505,-2.03809,-0.295878,-0.199406,-0.0688154,
2,0,0,1,0,2440.4,-0.0778066,-0.0781309,-9.27574,2,-0.00572421,11,0.000724722,-2.03265,-0.320843,-0.183891,-0.0707103,
2,0,0,1,0,2440.42,-0.0798042,-0.0801685,-9.41506,2,-0.00591103,11,0.000754791,-2.02618,-0.288321,-0.204633,-0.0726364,
2,0,0,1,0,2440.44,-0.0818018,-0.0821427,-9.56034,2,-0.0061008,11,0.000785312,-2.01953,-0.270008,-0.218512,-0.0744944,
2,0,0,1,0,2440.46,-0.0837994,-0.0841722,-9.72171,2,-0.00629275,11,0.000818298,-2.01226,-0.278013,-0.21222,-0.0763948,
2,0,0,1,0,2440.48,-0.0857969,-0.0861133,-9.86034,2,-0.00648848,11,0.000849107,-2.00611,-0.287518,-0.205204,-0.078225,
2,0,0,1,0,2440.5,-0.0877945,-0.0881307,-10.0159,2,-0.00668724,11,0.000882713,-1.99931,-0.286388,-0.206014,-0.080118,
2,0,0,1,0,2440.52,-0.0897921,-0.0901411,-10.165,2,-0.00688902,11,0.000916281,-1.99289,-0.291137,-0.202654,-0.0820092,
2,0,0,1,0,2440.54,-0.0917897,-0.0921024,-10.316,2,-0.00709269,11,0.000950124,-1.98649,-0.305785,-0.192946,-0.0838496,
2,0,0,1,0,2440.56,-0.0937873,-0.0941096,-10.455,2,-0.00730037,11,0.000983917,-1.98068,-0.338825,-0.174131,-0.0857456,
2,0,0,1,0,2440.58,-0.0957849,-0.0961016,-10.5847,2,-0.0075108,11,0.00101721,-1.97532,-0.37174,-0.158713,-0.0876339,
2,0,0,1,0,2440.6,-0.0977825,-0.0981288,-10.7053,2,-0.00772364,11,0.0010505,-1.9704,-0.375666,-0.157054,-0.0895646,
2,0,0,1,0,2440.62,-0.0997501,-0.100146,-10.837,2,-0.00793465,11,0.00108528,-1.96509,0.0208768,2.82611,-0.0914767,
2,0,0,1,1,2440.63,-0.0987313,-0.0991473,-6.74761,2,-0.00807173,11,0.000669008,-2.17085,0.00574621,10.2676,-0.0937493,
2,0,0,1,1,2440.65,-0.0967337,-0.0971315,-2.52818,2,-0.0081603,11,0.000245566,-2.59719,0.000376292,156.793,-0.0951089,
2,0,0,1,1,2440.67,-0.0947361,-0.0951212,0.00151328,2,-0.00818339,11,-1.43945e-07,-5.82008,-0.00386064,-15.2824,-0.0951224,
2,1,0,1,1,2440.69,-0.0927386,-0.0930637,1.60747,2,-0.00816612,11,-0.000149597,-2.79386,0.000584579,100.927,-0.0943497,
2,1,0,1,1,2440.71,-0.090741,-0.0910918,2.6664,2,-0.00812294,11,-0.000242887,-2.57408,0.00800377,7.37152,-0.0932249,
2,1,0,1,1,2440.73,-0.0887434,-0.0891166,3.35033,2,-0.00806248,11,-0.00029857,-2.47491,0.0188628,3.12785,-0.0917969,
2,1,0,1,1,2440.75,-0.0867458,-0.087078,3.8697,2,-0.00799013,11,-0.000336965,-2.41232,0.0327027,1.80413,-0.0901738,
2,1,0,1,1,2440.77,-0.0847482,-0.0851033,4.2296,2,-0.00790903,11,-0.000359953,-2.3737,0.0524531,1.12482,-0.088487,
2,1,0,1,1,2440.79,-0.0827529,-0.0831175,4.50321,2,-0.00782218,11,-0.000374295,-2.34648,0.077377,0.762501,-0.08672,
2,1,0,1,1,2440.81,-0.080753,-0.0810343,4.71876,2,-0.00772994,11,-0.000382382,-2.32617,0.105312,0.560239,-0.0848094,
2,1,0,1,1,2440.83,-0.0787554,-0.0791052,4.8835,2,-0.00763397,11,-0.000386311,-2.31127,0.144963,0.407,-0.083012,
2,1,0,1,1,2440.85,-0.0767579,-0.0771193,5.00339,2,-0.00753519,11,-0.000385858,-2.30074,0.184241,0.320233,-0.081122,
2,1,0,1,1,2440.87,-0.0747603,-0.0750847,5.12288,2,-0.00743397,11,-0.00038465,-2.29049,0.193735,0.304539,-0.079183,
2,1,0,1,1,2440.89,-0.0727627,-0.0730833,5.23757,2,-0.00733073,11,-0.000382779,-2.28087,0.242475,0.243324,-0.0772734,
2,1,0,1,1,2440.91,-0.0707651,-0.0711061,5.31247,2,-0.00722525,11,-0.000377749,-2.2747,0.316081,0.186661,-0.0753561,
2,1,0,1,1,2440.93,-0.0687675,-0.0691024,5.38699,2,-0.00711838,11,-0.000372254,-2.26865,0.330256,0.178649,-0.0734119,
2,1,0,1,1,2440.95,-0.0667699,-0.0671003,5.45849,2,-0.00701002,11,-0.000366266,-2.26293,0.338423,0.174338,-0.071467,
2,1,0,1,1,2440.97,-0.0647723,-0.0651316,5.5302,2,-0.00690068,11,-0.000360191,-2.25726,0.434993,0.135634,-0.0695557,
2,1,0,1,1,2440.99,-0.0627748,-0.0630645,5.57364,2,-0.0067898,11,-0.000351499,-2.25386,0.481708,0.122481,-0.0675234,
2,1,0,1,1,2441.01,-0.0607772,-0.0611202,5.63501,2,-0.0066778,11,-0.000344413,-2.24911,0.491681,0.119996,-0.0656282,
2,1,0,1,1,2441.03,-0.0587796,-0.0591026,5.67584,2,-0.00656484,11,-0.000335457,-2.24597,0.647287,0.0911496,-0.0636432,
2,1,0,1,1,2441.05,-0.056782,-0.0571454,5.71397,2,-0.00645168,11,-0.000326527,-2.24306,0.751533,0.0785062,-0.0617166,
2,1,0,1,1,2441.07,-0.0547844,-0.0550802,5.74524,2,-0.00633724,11,-0.000316449,-2.24069,1.10493,0.0533973,-0.0596764,
2,1,0,1,1,2441.09,-0.0527868,-0.05312,5.76164,2,-0.0062223,11,-0.000306059,-2.23945,1.39369,0.0423335,-0.0577293,
2,1,0,1,1,2441.11,-0.0507892,-0.0511325,5.78255,2,-0.00610698,11,-0.000295676,-2.23788,0.872267,0.0676398,-0.0557585,
2,1,0,1,1,2441.13,-0.0487916,-0.0491438,5.8217,2,-0.00599165,11,-0.0002861,-2.23495,0.972723,0.0606545,-0.0538011,
2,1,0,1,1,2441.15,-0.046794,-0.0471331,5.83696,2,-0.00587508,11,-0.000275114,-2.23381,5.32199,0.0110861,-0.0518027,
2,1,0,1,1,2441.17,-0.0447965,-0.0451268,5.8318,2,-0.00575843,11,-0.00026317,-2.2342,3.62509,0.0162755,-0.0497922,
2,1,0,1,1,2441.19,-0.0427989,-0.043097,5.8519,2,-0.00564169,11,-0.000252199,-2.2327,1.22268,0.0482547,-0.0477785,
2,1,0,1,1,2441.21,-0.0408013,-0.041166,5.87508,2,-0.0055252,11,-0.000241854,-2.23099,7.17605,0.00822179,-0.045866,
2,1,0,1,1,2441.23,-0.0388037,-0.0391149,5.85937,2,-0.00540788,11,-0.000229189,-2.23215,-8.06466,-0.00731587,-0.0438024,
2,1,0,1,1,2441.25,-0.0368061,-0.0371153,5.86828,2,-0.00529069,11,-0.000217803,-2.23149,3.39554,0.0173757,-0.0418099,
2,1,0,1,1,2441.27,-0.0348085,-0.0351331,5.87516,2,-0.00517335,11,-0.000206413,-2.23098,3.44435,0.0171295,-0.0398333,
2,1,0,1,1,2441.29,-0.0328109,-0.0331226,5.88392,2,-0.00505654,11,-0.00019489,-2.23033,-4.14827,-0.0142228,-0.0378297,
2,1,0,1,1,2441.31,-0.0308134,-0.0311613,5.86219,2,-0.00493923,11,-0.000182674,-2.23194,-2.41326,-0.0244482,-0.0358511,
2,1,0,1,1,2441.33,-0.0288158,-0.0291407,5.86151,2,-0.00482205,11,-0.000170808,-2.23199,-53.312,-0.00110669,-0.0338299,
2,1,0,1,1,2441.35,-0.0268182,-0.0271361,5.86117,2,-0.00470496,11,-0.000159049,-2.23202,-9.59736,-0.00614752,-0.031825,
2,1,0,1,1,2441.37,-0.0248138,-0.0251423,5.85588,2,-0.00458814,11,-0.00014723,-2.23241,-5.03484,-0.0117183,-0.029827,
2,1,0,1,1,2441.39,-0.022823,-0.0231554,5.85048,2,-0.00447178,11,-0.00013547,-2.23281,-2.10475,-0.0280318,-0.0278358,
2,1,0,1,1,2441.41,-0.0208254,-0.0211533,5.83025,2,-0.00435508,11,-0.000123329,-2.23431,-1.40686,-0.0419372,-0.0258175,
2,1,0,1,1,2441.43,-0.0188278,-0.0191848,5.8123,2,-0.00423877,11,-0.000111508,-2.23565,-1.91291,-0.030843,-0.0238347,
2,1,0,1,1,2441.45,-0.0168393,-0.0171543,5.8021,2,-0.00412327,11,-9.95307e-05,-2.23642,-4.34608,-0.0135754,-0.021796,
2,1,0,1,1,2441.47,-0.0148327,-0.015157,5.79988,2,-0.00400719,11,-8.7909e-05,-2.23658,-1.61774,-0.0364707,-0.0197969,
2,1,0,1,1,2441.49,-0.0128351,-0.0131767,5.76912,2,-0.00389153,11,-7.60182e-05,-2.23889,-1.50807,-0.0391228,-0.017792,
2,1,0,1,1,2441.51,-0.0108375,-0.0111617,5.76435,2,-0.00377629,11,-6.43401e-05,-2.23925,-3.1759,-0.0185774,-0.0157732,
2,1,0,1,1,2441.53,-0.00883989,-0.00919572,5.75244,2,-0.00366118,11,-5.28979e-05,-2.24015,-2.21071,-0.0266882,-0.0137977,
2,1,0,1,1,2441.55,-0.0068423,-0.0071673,5.74031,2,-0.00354679,11,-4.11425e-05,-2.24106,-1.60967,-0.0366536,-0.0117595,
2,1,0,1,1,2441.57,-0.00484471,-0.00518886,5.71935,2,-0.00343229,11,-2.96769e-05,-2.24265,-1.6559,-0.0356302,-0.00976433,
2,1,0,1,1,2441.59,-0.00284713,-0.00317224,5.7083,2,-0.00331814,11,-1.81081e-05,-2.24349,-1.57777,-0.0373944,-0.00773888,
2,1,0,1,1,2441.61,-0.000849538,-0.00121122,5.68602,2,-0.00320435,11,-6.88705e-06,-2.24519, , ,-0.00576004,
2,1,0,0,1,2441.62,-2.55332e-05,-0.000401673,5.6739,2,-0.00315839,11,-2.27905e-06,-2.24612, , ,-0.00494079,