File: Figure_codes/Fig_S3_S4/20221101_1-115_003_TrumpetPlot_ParaChange_from10_every3_05_CV_C01_16.csv
mode,ox/red,error,control changes,counter inc.,time/s,control/V,Ewe/V,<I>/mA,cycle number,(Q-Qo)/C,I Range,P/W,log(|I|),Tafel slope mV/dec,alpha_eff,dI/d(E-IR),E-IR/V,
2,0,0,1,0,32642.1,2.44065e-05,-0.000401673,-0.730338,17,0.0000000E+000,10,2.93357e-07,-3.13648, , , ,-0.000401673,
2,1,0,1,0,32642.2,0.00129787,0.000930132,0.132439,17,-1.03564e-05,10,1.23186e-07,-3.87798, , , ,0.000930132,
2,1,0,1,0,32642.2,0.00279606,0.00247421,0.468533,17,1.55982e-05,10,1.15925e-06,-3.32926,0.00452628,13.035,170.864,0.00247421,
2,1,0,1,0,32642.3,0.00429425,0.00396189,0.588423,17,5.71603e-05,10,2.33127e-06,-3.23031,0.0169134,3.48836,71.0923,0.00396189,
2,1,0,1,0,32642.4,0.00579244,0.00546512,0.65766,17,0.000105522,10,3.59419e-06,-3.182,0.0350423,1.68368,41.7826,0.00546512,
2,1,0,1,0,32642.5,0.00729063,0.0069798,0.709505,17,0.000158192,10,4.9522e-06,-3.14904,0.0552975,1.06696,29.018,0.006979798,
2,1,0,1,0,32642.5,0.00878882,0.00842101,0.747779,17,0.00021427,10,6.29706e-06,-3.12623,0.0715831,0.824217,23.7395,0.00842101,
2,1,0,1,0,32642.6,0.010287,0.00999247,0.778004,17,0.000272872,10,7.77418e-06,-3.10902,0.0956802,0.616637,18.5921,0.00999247,
2,1,0,1,0,32642.7,0.0117852,0.0114581,0.805084,17,0.000333609,10,9.22474e-06,-3.09416,0.107748,0.547573,17.1357,0.0114581,
2,1,0,1,0,32642.8,0.0132847,0.0129248,0.830379,17,0.000396224,10,1.07325e-05,-3.08072,0.11216,0.526034,17.0293,0.0129248,
2,1,0,1,0,32642.8,0.0147802,0.0144597,0.850164,17,0.000460522,10,1.22931e-05,-3.0705,0.13002,0.453777,15.0644,0.0144597,
2,1,0,1,0,32642.9,0.0162798,0.0159521,0.872933,17,0.000526864,10,1.39251e-05,-3.05902,0.14957,0.394465,13.4227,0.0159521,
2,1,0,1,0,32643,0.017778,0.0174355,0.895009,17,0.000594589,10,1.56049e-05,-3.04817,0.154199,0.382622,13.3467,0.01743551,
2,1,0,1,0,32643.1,0.0192761,0.0189118,0.91354,17,0.000663564,10,1.72767e-05,-3.03927,0.163844,0.360098,12.8174,0.0189118,
2,1,0,1,0,32643.1,0.0207743,0.0204777,0.932728,17,0.00073416,10,1.91001e-05,-3.03024,0.155674,0.378997,13.7461,0.02047766,
2,1,0,1,0,32643.2,0.0222725,0.0219323,0.952779,17,0.000806194,10,2.08966e-05,-3.02101,0.172911,0.341215,12.6767,0.0219323,
2,1,0,1,0,32643.3,0.0237707,0.0234765,0.971888,17,0.000879683,10,2.28165e-05,-3.01238,0.17944,0.3288,12.4581,0.0234765,
2,1,0,1,0,32643.4,0.0252689,0.0249569,0.984569,17,0.000954422,10,2.45717e-05,-3.00675,0.19634,0.300499,11.5991,0.0249569,
2,1,0,1,0,32643.4,0.0267671,0.0264636,1.00804,17,0.00103063,10,2.66764e-05,-2.99652,0.169304,0.348485,13.7183,0.0264636,
2,1,0,1,0,32643.5,0.0282653,0.0279472,1.0306,17,0.00110838,10,2.88025e-05,-2.98691,0.181051,0.325875,13.0663,0.0279472,
2,1,0,1,0,32643.6,0.0297644,0.0294002,1.04842,17,0.00118767,10,3.08237e-05,-2.97947,0.205512,0.287088,11.7236,0.0294002,
2,1,0,1,0,32643.7,0.0312599,0.0309092,1.061,17,0.00126803,10,3.27946e-05,-2.97428,0.189484,0.311372,12.9456,0.0309092,
2,1,0,1,0,32643.7,0.0327599,0.0324266,1.08125,17,0.00134995,10,3.50612e-05,-2.96608,0.193117,0.305514,12.9347,0.0324266,
2,1,0,1,0,32643.8,0.034258,0.0339389,1.10429,17,0.00143338,10,3.74784e-05,-2.95692,0.195456,0.301858,13.0039,0.0339389,
2,1,0,1,0,32643.9,0.0357562,0.0354144,1.12285,17,0.00151828,10,3.97649e-05,-2.94968,0.211435,0.279045,12.2314,0.0354144,
2,1,0,1,0,32644,0.0372544,0.0369424,1.14107,17,0.00160461,10,4.21538e-05,-2.94269,0.228158,0.258593,11.528,0.0369424,
2,1,0,1,0,32644,0.0387526,0.0384016,1.1593,17,0.00169222,10,4.45189e-05,-2.9358,0.206461,0.285768,12.9615,0.0384016,
2,1,0,1,0,32644.1,0.0402508,0.0399265,1.18087,17,0.00178129,10,4.71482e-05,-2.9278,0.215158,0.274217,12.6467,0.0399265,
2,1,0,1,0,32644.2,0.041749,0.0414821,1.20348,17,0.00187199,10,4.99228e-05,-2.91956,0.228042,0.258724,12.1008,0.0414821,
2,1,0,1,0,32644.3,0.0432472,0.0429234,1.22044,17,0.00196411,10,5.23855e-05,-2.91348,0.229362,0.257235,12.2202,0.0429234,
2,1,0,1,0,32644.3,0.0447449,0.0444566,1.23434,17,0.00205741,10,5.48744e-05,-2.90857,0.224788,0.26247,12.6785,0.04445659,
2,1,0,1,0,32644.4,0.0462445,0.0459061,1.25474,17,0.00215229,10,5.76004e-05,-2.90144,0.210266,0.280596,13.7206,0.0459061,
2,1,0,1,0,32644.5,0.04774,0.0474375,1.27373,17,0.00224835,10,6.04224e-05,-2.89492,0.220464,0.267617,13.3017,0.0474375,
2,1,0,1,0,32644.6,0.0492399,0.0489286,1.29228,17,0.00234604,10,6.32295e-05,-2.88864,0.26288,0.224437,11.3016,0.0489286,
2,1,0,1,0,32644.6,0.0507381,0.0503969,1.30335,17,0.00244481,10,6.5685e-05,-2.88494,0.261986,0.225203,11.5051,0.0503969,
2,1,0,1,0,32644.7,0.0522363,0.0519393,1.32714,17,0.00254484,10,6.89308e-05,-2.87708,0.258924,0.227866,11.789,0.0519393,
2,1,0,1,0,32644.8,0.0537345,0.0533791,1.34877,17,0.00264631,10,7.19963e-05,-2.87006,0.271223,0.217533,11.4086,0.0533791,
2,1,0,1,0,32644.9,0.0552327,0.0549028,1.36181,17,0.00274915,10,7.4767e-05,-2.86588,0.327141,0.18035,9.55685,0.0549028,
2,1,0,1,0,32644.9,0.0567309,0.0563982,1.37427,17,0.00285322,10,7.75067e-05,-2.86193,0.334208,0.176537,9.48058,0.0563982,
2,1,0,1,0,32645,0.0582291,0.0578689,1.39093,17,0.0029582,10,8.04917e-05,-2.85669,0.298851,0.197423,10.7524,0.05786892,
2,1,0,1,0,32645.1,0.0597291,0.0593912,1.40822,17,0.00306463,10,8.3636e-05,-2.85133,0.293113,0.201287,11.0569,0.0593912,
2,1,0,1,0,32645.2,0.0612246,0.0609091,1.42121,17,0.00317205,10,8.65648e-05,-2.84734,0.344749,0.171139,9.48308,0.0609091,
2,1,0,1,0,32645.2,0.0627241,0.0623783,1.43813,17,0.00328086,10,8.97079e-05,-2.8422,0.348345,0.169372,9.50395,0.0623783,
2,1,0,1,0,32645.3,0.0642218,0.0638749,1.45176,17,0.00339041,10,9.27307e-05,-2.83811,0.323888,0.182162,10.3384,0.0638749,
2,1,0,1,0,32645.4,0.06572,0.0654169,1.46572,17,0.00350119,10,9.58829e-05,-2.83395,0.340749,0.173148,9.90801,0.0654169,
2,1,0,1,0,32645.5,0.0672182,0.0669014,1.48292,17,0.00361315,10,9.92093e-05,-2.82888,0.384464,0.153461,8.85739,0.0669014,
2,1,0,1,0,32645.5,0.0687164,0.0684315,1.49452,17,0.00372612,10,0.000102272,-2.8255,0.409858,0.143952,8.39464,0.0684315,
2,1,0,1,0,32645.6,0.0702146,0.0698652,1.50681,17,0.00383985,10,0.000105273,-2.82194,0.442053,0.133468,7.84977,0.0698652,
2,1,0,1,0,32645.7,0.0717128,0.0713399,1.52147,17,0.00395456,10,0.000108541,-2.81774,0.380073,0.155233,9.19532,0.0713399,
2,1,0,1,0,32645.8,0.073211,0.0728768,1.53061,17,0.00407028,10,0.000111546,-2.81514,0.441329,0.133687,7.98565,0.0728768,
2,1,0,1,0,32645.8,0.0747092,0.0743697,1.54239,17,0.00418688,10,0.000114707,-2.81181,0.539151,0.109431,6.58172,0.0743697,
2,1,0,1,0,32645.9,0.0762087,0.0758843,1.5499,17,0.00430434,10,0.000117613,-2.8097,0.528414,0.111655,6.76815,0.07588429,
2,1,0,1,0,32646,0.0777042,0.0773317,1.56297,17,0.00442218,10,0.000120867,-2.80605,0.47532,0.124127,7.57798,0.0773317,
2,1,0,1,0,32646.1,0.0792037,0.0788954,1.5763,17,0.00454122,10,0.000124363,-2.80236,0.440028,0.134082,8.23283,0.07889539,
2,1,0,1,0,32646.1,0.0807019,0.080362,1.58535,17,0.00466107,10,0.000127402,-2.79988,0.570094,0.103492,6.38353,0.080362,
2,1,0,1,0,32646.2,0.0822001,0.0819092,1.59465,17,0.00478164,10,0.000130617,-2.79733,0.549925,0.107287,6.67997,0.0819092,
2,1,0,1,0,32646.3,0.0836983,0.0833531,1.60469,17,0.0049028,10,0.000133756,-2.79461,0.523829,0.112632,7.06127,0.0833531,
2,1,0,1,0,32646.4,0.0851965,0.0848744,1.61595,17,0.00502493,10,0.000137153,-2.79157,0.462613,0.127536,8.04529,0.0848744,
2,1,0,1,0,32646.4,0.0866947,0.0863714,1.62706,17,0.00514798,10,0.000140531,-2.7886,0.519135,0.113651,7.21749,0.0863714,
2,1,0,1,0,32646.5,0.0881929,0.0878174,1.64358,17,0.00527191,10,0.000144335,-2.78421,0.461916,0.127729,8.18661,0.0878174,
2,1,0,1,0,32646.6,0.0896911,0.0893194,1.65339,17,0.00539663,10,0.00014768,-2.78162,0.387384,0.152304,9.85793,0.0893194,
2,1,0,1,0,32646.7,0.0911893,0.0908527,1.67348,17,0.00552259,10,0.000152041,-2.77638,0.330161,0.178701,11.6462,0.0908527,
2,1,0,1,0,32646.7,0.0926884,0.0923422,1.69116,17,0.00565021,10,0.000156165,-2.77182,0.308887,0.191008,12.5844,0.0923422,
2,1,0,1,0,32646.8,0.0941839,0.0938782,1.70901,17,0.00577876,10,0.000160439,-2.76726,0.301075,0.195964,13.0978,0.0938782,
2,1,0,1,0,32646.9,0.0956838,0.0953707,1.7275,17,0.00590895,10,0.000164753,-2.76258,0.259842,0.227061,15.3546,0.0953707,
2,1,0,1,0,32647,0.097182,0.0968589,1.7517,17,0.00604075,10,0.000169667,-2.75654,0.21675,0.272203,18.632,0.0968589,
2,1,0,1,0,32647,0.0986802,0.0983817,1.78066,17,0.00617456,10,0.000175185,-2.74942,0.213798,0.275961,19.1731,0.0983817,
2,1,0,1,0,32647.1,0.100178,0.0998724,1.80677,17,0.0063104,10,0.000180447,-2.7431,0.224871,0.262372,18.5205,0.0998724,
2,1,0,1,0,32647.2,0.101677,0.101376,1.833,17,0.00644835,10,0.000185822,-2.73684,0.211389,0.279106,20.0475,0.101376,
2,1,0,1,0,32647.3,0.103175,0.102827,1.86574,17,0.00658851,10,0.000191849,-2.72915,0.191176,0.308617,22.5548,0.102827,
2,1,0,1,0,32647.3,0.104673,0.104388,1.90694,17,0.00673135,10,0.000199062,-2.71966,0.190538,0.309649,22.9943,0.104388,
2,1,0,1,0,32647.4,0.106171,0.105853,1.94158,17,0.00687689,10,0.000205523,-2.71184,0.211527,0.278924,21.0808,0.105853,
2,1,0,1,0,32647.5,0.107669,0.107348,1.97031,17,0.00702486,10,0.000211509,-2.70547,0.209781,0.281246,21.6431,0.107348,
2,1,0,1,0,32647.6,0.109168,0.108891,2.00261,17,0.00717527,10,0.000218066,-2.6984,0.220147,0.268003,20.9577,0.108891,
2,1,0,1,0,32647.6,0.110664,0.110317,2.03476,17,0.00732782,10,0.000224468,-2.69149,0.216693,0.272275,21.6131,0.1103167,
2,1,0,1,0,32647.7,0.112164,0.111841,2.06489,17,0.00748303,10,0.000230939,-2.6851,0.263536,0.223879,18.0242,0.111841,
2,1,0,1,0,32647.8,0.113662,0.113317,2.09623,17,0.00764038,10,0.000237539,-2.67856,0.275811,0.213915,17.4489,0.113317,
2,1,0,1,0,32647.9,0.11516,0.114835,2.11705,17,0.00779952,10,0.000243111,-2.67427,0.318332,0.185341,15.3046,0.114835,
2,1,0,1,0,32647.9,0.116658,0.116316,2.14451,17,0.00796058,10,0.000249441,-2.66867,0.308053,0.191526,15.9862,0.116316,
2,1,0,1,0,32648,0.118157,0.117836,2.16738,17,0.0081235,10,0.000255396,-2.66406,0.371582,0.158781,13.394,0.117836,
2,1,0,1,0,32648.1,0.119655,0.11938,2.18528,17,0.00828794,10,0.000260878,-2.66049,0.484994,0.121651,10.3571,0.11938,
2,1,0,1,0,32648.2,0.121153,0.120856,2.19675,17,0.00845351,10,0.00026549,-2.65822,0.506217,0.116551,10.0084,0.120856,
2,1,0,1,0,32648.2,0.122653,0.122331,2.21442,17,0.00862043,10,0.000270892,-2.65474,0.478831,0.123217,10.6428,0.122331,
2,1,0,1,0,32648.3,0.124149,0.123847,2.22985,17,0.00878806,10,0.00027616,-2.65173,0.513503,0.114897,9.99281,0.123847,
2,1,0,1,0,32648.4,0.125648,0.125364,2.24267,17,0.00895712,10,0.000281149,-2.64924,0.679042,0.0868871,7.58932,0.125364,
2,1,0,1,0,32648.5,0.127146,0.126778,2.24999,17,0.00912694,10,0.000285251,-2.64782,0.684743,0.0861637,7.56275,0.1267783,
2,1,0,1,0,32648.5,0.128644,0.128345,2.26437,17,0.00929745,10,0.000290621,-2.64505,0.725802,0.0812893,7.18916,0.128345,
2,1,0,1,0,32648.6,0.130142,0.129791,2.27814,17,0.00946891,10,0.000295682,-2.64242,0.741022,0.0796198,7.06602,0.129791,
2,1,0,1,0,32648.7,0.13164,0.131303,2.28448,17,0.00964124,10,0.000299959,-2.64121,1.25411,0.0470454,4.18711,0.131303,
2,1,0,1,0,32648.8,0.133139,0.132783,2.28968,17,0.00981412,10,0.000304032,-2.64022,4.41486,0.013364,1.19355,0.132783,
2,1,0,1,0,32648.8,0.134637,0.134324,2.29126,17,0.00998713,10,0.000307772,-2.63992,-4.86362,-0.0121309,-1.08397,0.134324,
2,1,0,1,0,32648.9,0.136135,0.135788,2.29165,17,0.0101602,10,0.000311179,-2.63985,-1.80244,-0.0327335,-2.91708,0.135788,
2,1,0,1,0,32649,0.137633,0.137281,2.28266,17,0.0103329,10,0.000313366,-2.64156,-0.561254,-0.105122,-9.32172,0.1372806,
2,1,0,1,0,32649.1,0.139133,0.138802,2.26358,17,0.0105048,10,0.000314188,-2.6452,-0.310687,-0.189902,-16.6708,0.138802,
2,1,0,1,0,32649.1,0.140628,0.140366,2.23156,17,0.0106743,10,0.000313237,-2.65139,-0.217057,-0.271818,-23.5699,0.140366,
2,1,0,1,0,32649.2,0.142128,0.141821,2.19103,17,0.0108415,10,0.000310735,-2.65935,-0.176896,-0.33353,-28.4072,0.141821,
2,1,0,1,0,32649.3,0.143626,0.143288,2.14367,17,0.0110053,10,0.000307162,-2.66884,-0.133645,-0.441468,-36.708,0.143288,
2,1,0,1,0,32649.4,0.145124,0.144808,2.07856,17,0.011165,10,0.000300993,-2.68224,-0.105422,-0.559656,-45.2463,0.144808,
2,1,0,1,0,32649.4,0.146622,0.146273,2.00469,17,0.0113194,10,0.000293231,-2.69795,-0.0917685,-0.642922,-50.1892,0.146273,
2,1,0,1,0,32649.5,0.14812,0.147806,1.92931,17,0.0114681,10,0.000285164,-2.7146,-0.0844744,-0.698436,-52.3943,0.147806,
2,1,0,1,0,32649.6,0.149619,0.149295,1.84597,17,0.011611,10,0.000275594,-2.73378,-0.077993,-0.756478,-54.3684,0.149295,
2,1,0,1,0,32649.7,0.151117,0.150793,1.76249,17,0.0117476,10,0.000265773,-2.75387,-0.0721099,-0.818196,-56.1058,0.150793,
2,1,0,1,0,32649.7,0.152615,0.152265,1.67569,17,0.0118779,10,0.00025515,-2.77581,-0.0719074,-0.8205,-53.7851,0.152265,
2,1,0,1,0,32649.8,0.154113,0.153745,1.59979,17,0.0120018,10,0.00024596,-2.79594,-0.0730067,-0.808146,-50.6202,0.153745,
2,1,0,1,0,32649.9,0.155613,0.155274,1.52758,17,0.0121205,10,0.000237193,-2.816,-0.078489,-0.751697,-44.9045,0.155274,
2,1,0,1,0,32650,0.157108,0.156786,1.46159,17,0.0122338,10,0.000229158,-2.83517,-0.07893,-0.747498,-42.695,0.156786,
2,1,0,1,0,32650,0.158608,0.158298,1.40218,17,0.0123425,10,0.000221961,-2.8532,-0.0842572,-0.700237,-38.494,0.158298,
2,1,0,1,0,32650.1,0.160106,0.159755,1.3507,17,0.0124467,10,0.000215782,-2.86944,-0.0951994,-0.619752,-32.7823,0.159755,
2,1,0,1,0,32650.2,0.161604,0.161265,1.3067,17,0.0125475,10,0.000210724,-2.88383,-0.106548,-0.553742,-28.2149,0.161265,
2,1,0,1,0,32650.3,0.163102,0.162727,1.26531,17,0.0126451,10,0.0002059,-2.8978,-0.112928,-0.522456,-25.8096,0.162727,
2,1,0,1,0,32650.3,0.164601,0.164307,1.22976,17,0.0127398,10,0.000202057,-2.91018,-0.12378,-0.476653,-22.9161,0.164307,
2,1,0,1,0,32650.4,0.166099,0.16579,1.19854,17,0.012832,10,0.000198706,-2.92135,-0.141624,-0.416597,-19.5496,0.16579,
2,1,0,1,0,32650.5,0.167597,0.167306,1.17268,17,0.0129221,10,0.000196196,-2.93082,-0.180807,-0.326315,-14.9597,0.167306,
2,1,0,1,0,32650.6,0.169095,0.168749,1.15134,17,0.0130105,10,0.000194287,-2.9388,-0.188102,-0.313659,-14.0962,0.168749,
2,1,0,1,0,32650.6,0.170593,0.170269,1.13021,17,0.0130974,10,0.000192439,-2.94684,-0.186649,-0.316101,-13.9654,0.170269,
2,1,0,1,0,32650.7,0.172092,0.171782,1.1074,17,0.0131827,10,0.000190232,-2.95569,-0.23418,-0.251943,-10.9416,0.171782,
2,1,0,1,0,32650.8,0.173588,0.173259,1.09522,17,0.0132666,10,0.000189757,-2.9605,-0.275051,-0.214506,-9.18078,0.1732585,
2,1,0,1,0,32650.9,0.175088,0.174769,1.08218,17,0.0133496,10,0.000189131,-2.9657,-0.308698,-0.191125,-8.06413,0.174769,
2,1,0,1,0,32650.9,0.176586,0.176308,1.0717,17,0.0134316,10,0.000188949,-2.96993,-0.274796,-0.214704,-8.95842,0.176308,
2,1,0,1,0,32651,0.178084,0.177773,1.05549,17,0.0135127,10,0.000187638,-2.97655,-0.324098,-0.182044,-7.52957,0.177773,
2,1,0,1,0,32651.1,0.179582,0.179247,1.04663,17,0.0135928,10,0.000187605,-2.98021,-0.376958,-0.156516,-6.42606,0.179247,
2,1,0,1,0,32651.2,0.181081,0.18079,1.04168,17,0.0136724,10,0.000188326,-2.98227,-0.446564,-0.13212,-5.3681,0.18079,
2,1,0,1,0,32651.2,0.182579,0.182253,1.03312,17,0.0137515,10,0.000188289,-2.98585,-0.398955,-0.147886,-5.96448,0.182253,
2,1,0,1,0,32651.3,0.184077,0.183759,1.02831,17,0.01383,10,0.000188961,-2.98788,-0.424601,-0.138954,-5.56827,0.183759,
2,1,0,1,0,32651.4,0.185577,0.185247,1.01814,17,0.0139079,10,0.000188608,-2.99219,-0.505259,-0.116772,-4.64302,0.185247,
2,1,0,1,0,32651.5,0.187073,0.186754,1.01392,17,0.0139853,10,0.000189353,-2.994,-1.25164,-0.0471381,-1.86145,0.186754,
2,1,0,1,0,32651.5,0.188572,0.188226,1.00867,17,0.0140625,10,0.000189859,-2.99625,-0.635566,-0.0928307,-3.65149,0.188226,
2,1,0,1,0,32651.6,0.19007,0.189735,1.00498,17,0.0141393,10,0.000190679,-2.99784,-0.823474,-0.0716477,-2.80412,0.189735,
2,1,0,1,0,32651.7,0.191568,0.191252,0.995423,17,0.0142154,10,0.000190376,-3.00199,-1.1925,-0.0494759,-1.9308,0.1912517,
2,1,0,1,0,32651.8,0.193066,0.192756,0.992242,17,0.0142914,10,0.00019126,-3.00338,-1.50134,-0.0392983,-1.52329,0.192756,
2,1,0,1,0,32651.8,0.194564,0.194255,0.994363,17,0.0143672,10,0.00019316,-3.00246,-0.859674,-0.0686307,-2.65521,0.194255,
2,1,0,1,0,32651.9,0.196063,0.195757,0.985183,17,0.0144427,10,0.000192857,-3.00648,-0.739158,-0.0798205,-3.07479,0.195757,
2,1,0,1,0,32652,0.197561,0.197246,0.979809,17,0.0145178,10,0.000193263,-3.00886,-0.880893,-0.0669775,-2.57002,0.197246,
2,1,0,1,0,32652.1,0.199059,0.198709,0.979129,17,0.0145926,10,0.000194561,-3.00916,-1.13557,-0.0519561,-1.98535,0.198709,
2,1,0,1,0,32652.1,0.200557,0.200258,0.975821,17,0.0146673,10,0.000195416,-3.01063,-0.970069,-0.0608204,-2.31378,0.200258,
2,1,0,1,0,32652.2,0.202057,0.201761,0.974217,17,0.0147418,10,0.000196559,-3.01134,-1.2058,-0.0489304,-1.85638,0.201761,
2,1,0,1,0,32652.3,0.203552,0.20321,0.968035,17,0.0148159,10,0.000196714,-3.01411,-1.74275,-0.0338544,-1.28177,0.20321,
2,1,0,1,0,32652.4,0.205052,0.204746,0.966127,17,0.0148899,10,0.000197811,-3.01497,3.34167,0.0176558,0.669574,0.204746,
2,1,0,1,0,32652.4,0.20655,0.206216,0.966552,17,0.0149637,10,0.000199319,-3.01477,-1.93269,-0.0305274,-1.15237,0.206216,
2,1,0,1,0,32652.5,0.208048,0.207704,0.963815,17,0.0150376,10,0.000200188,-3.01601,-0.922042,-0.0639884,-2.4062,0.207704,
2,1,0,1,0,32652.6,0.209546,0.209258,0.959807,17,0.0151111,10,0.000200847,-3.01782,-0.861896,-0.0684538,-2.56825,0.2092578,
2,1,0,1,0,32652.7,0.211044,0.210759,0.958863,17,0.0151843,10,0.000202089,-3.01824,-1.3169,-0.0448023,-1.67571,0.2107591,
2,1,0,1,0,32652.7,0.212543,0.212175,0.957418,17,0.0152575,10,0.00020314,-3.0189,-2.40632,-0.0245188,-0.916156,0.212175,
2,1,0,1,0,32652.8,0.214041,0.213727,0.955879,17,0.0153304,10,0.000204297,-3.0196,-1.16554,-0.0506204,-1.88701,0.213727,
2,1,0,1,0,32652.9,0.215539,0.215215,0.952231,17,0.0154033,10,0.000204935,-3.02126,-2.04501,-0.0288507,-1.07247,0.215215,
2,1,0,1,0,32653,0.217037,0.216745,0.949547,17,0.0154759,10,0.00020581,-3.02248,-1.63768,-0.0360265,-1.33649,0.216745,
2,1,0,1,0,32653,0.218536,0.218212,0.94785,17,0.0155485,10,0.000206832,-3.02326,-4.94547,-0.0119301,-0.441718,0.218212,
2,1,0,1,0,32653.1,0.220032,0.219755,0.949894,17,0.0156208,10,0.000208744,-3.02232,-4.65817,-0.0126659,-0.467842,0.2197547,
2,1,0,1,0,32653.2,0.221532,0.221242,0.945027,17,0.0156932,10,0.00020908,-3.02456,-1.17649,-0.0501492,-1.8521,0.221242,
2,1,0,1,0,32653.3,0.22303,0.222738,0.938955,17,0.0157654,10,0.000209141,-3.02736,-2.63004,-0.0224331,-0.825713,0.222738,
2,1,0,1,0,32653.3,0.224528,0.224245,0.942615,17,0.0158373,10,0.000211377,-3.02567,-1.42107,-0.041518,-1.52747,0.2242455,
2,1,0,1,0,32653.4,0.226026,0.225718,0.942336,17,0.0159092,10,0.000212702,-3.02579,-2.17283,-0.0271536,-0.997088,0.225718,
2,1,0,1,0,32653.5,0.227525,0.227194,0.938484,17,0.015981,10,0.000213218,-3.02757,-1.11982,-0.0526871,-1.92671,0.227194,
2,1,0,1,0,32653.6,0.229023,0.22871,0.935427,17,0.0160527,10,0.000213942,-3.02899,-1.24529,-0.0473785,-1.7341,0.22871,
2,1,0,1,0,32653.6,0.230521,0.230197,0.935059,17,0.0161241,10,0.000215248,-3.02916,-2.18872,-0.0269564,-0.986311,0.2301975,
2,1,0,1,0,32653.7,0.232019,0.231678,0.935308,17,0.0161955,10,0.00021669,-3.02905,-3.73021,-0.0158168,-0.577133,0.2316778,
2,1,0,1,0,32653.8,0.233517,0.2332,0.935703,17,0.0162669,10,0.000218206,-3.02886,-3.12884,-0.0188568,-0.684907,0.2332,
2,1,0,1,0,32653.9,0.235016,0.234666,0.932699,17,0.0163382,10,0.000218872,-3.03026,-1.44583,-0.0408071,-1.48162,0.2346658,
2,1,0,1,0,32653.9,0.236512,0.236165,0.930241,17,0.0164092,10,0.000219691,-3.0314,-3.52284,-0.0167479,-0.608595,0.236165,
2,1,0,1,0,32654,0.238012,0.237703,0.930554,17,0.0164802,10,0.000221196,-3.03126,-3.18104,-0.0185474,-0.672359,0.237703,
2,1,0,1,0,32654.1,0.23951,0.239164,0.926667,17,0.0165512,10,0.000221626,-3.03308,-2.86668,-0.0205813,-0.743965,0.239164,
2,1,0,1,0,32654.2,0.241008,0.240688,0.925682,17,0.0166221,10,0.000222801,-3.03354,-0.901168,-0.0654706,-2.3696,0.240688,
2,1,0,1,0,32654.2,0.242506,0.242173,0.924545,17,0.0166927,10,0.0002239,-3.03407,-5.20884,-0.0113269,-0.409758,0.242173,
2,1,0,1,0,32654.3,0.244005,0.243686,0.923504,17,0.0167632,10,0.000225045,-3.03456,4.18439,0.0141,0.508792,0.243686,
2,1,0,1,0,32654.4,0.245503,0.245177,0.924392,17,0.0168338,10,0.000226639,-3.03414,-2.14501,-0.0275057,-0.990334,0.245177,
2,1,0,1,0,32654.5,0.247001,0.246676,0.923379,17,0.0169043,10,0.000227775,-3.03462,-1.68217,-0.0350738,-1.25908,0.246676,
2,1,0,1,0,32654.5,0.248501,0.248188,0.917384,17,0.0169747,10,0.000227683,-3.03745,-1.71196,-0.0344634,-1.2363,0.248188,
2,1,0,1,0,32654.6,0.249997,0.249681,0.919042,17,0.0170447,10,0.000229467,-3.03666,-9.20836,-0.00640722,-0.229943,0.2496812,
2,1,0,1,0,32654.7,0.251496,0.25116,0.91736,17,0.017115,10,0.000230404,-3.03746,-16.4499,-0.00358666,-0.128214,0.25116,
2,1,0,1,0,32654.8,0.252994,0.252651,0.915541,17,0.017185,10,0.000231312,-3.03832,-0.970239,-0.0608098,-2.16858,0.252651,
2,1,0,1,0,32654.8,0.254492,0.254188,0.915363,17,0.0172549,10,0.000232674,-3.03841,-3.9164,-0.0150648,-0.537688,0.254188,
2,1,0,1,0,32654.9,0.25599,0.255674,0.913166,17,0.0173246,10,0.000233473,-3.03945,-2.22874,-0.0264723,-0.944372,0.255674,
2,1,0,1,0,32655,0.257488,0.25718,0.911006,17,0.0173944,10,0.000234293,-3.04048,-2.91342,-0.0202511,-0.720538,0.25718,
2,1,0,1,0,32655.1,0.258987,0.258695,0.913382,17,0.0174641,10,0.000236287,-3.03935,-1.5148,-0.038949,-1.38264,0.258695,
2,1,0,1,0,32655.1,0.260485,0.260183,0.910624,17,0.0175337,10,0.000236929,-3.04066,-1.13336,-0.0520575,-1.84769,0.260183,
2,1,0,1,0,32655.2,0.261983,0.261664,0.906247,17,0.017603,10,0.000237132,-3.04275,-1.68893,-0.0349333,-1.23957,0.261664,
2,1,0,1,0,32655.3,0.263481,0.263142,0.907445,17,0.0176722,10,0.000238787,-3.04218,6.06081,0.00973467,0.34366,0.2631422,
2,1,0,1,0,32655.4,0.264981,0.264666,0.905419,17,0.0177416,10,0.000239634,-3.04315,-21.998,-0.00268206,-0.0946949,0.264666,
2,1,0,1,0,32655.4,0.266476,0.266144,0.904013,17,0.0178106,10,0.000240597,-3.04383,-1.64596,-0.0358453,-1.26567,0.266144,
2,1,0,1,0,32655.5,0.267976,0.267695,0.899733,17,0.0178796,10,0.000240854,-3.04589,-3.11489,-0.0189413,-0.667032,0.2676948,
2,1,0,1,0,32655.6,0.269474,0.269158,0.899656,17,0.0179484,10,0.00024215,-3.04592,-4.49942,-0.0131128,-0.459911,0.269158,
2,1,0,1,0,32655.7,0.270972,0.270648,0.903055,17,0.0180172,10,0.00024441,-3.04429,-5.10318,-0.0115614,-0.40517,0.270648,
2,1,0,1,0,32655.7,0.27247,0.272159,0.897691,17,0.018086,10,0.000244314,-3.04687,-1.23282,-0.0478579,-1.67378,0.272159,
2,1,0,1,0,32655.8,0.273968,0.273641,0.894329,17,0.0181545,10,0.000244725,-3.0485,-2.0863,-0.0282797,-0.987626,0.2736415,
2,1,0,1,0,32655.9,0.275467,0.275161,0.893519,17,0.0182228,10,0.000245862,-3.0489,-2.45376,-0.0240447,-0.840214,0.275161,
2,1,0,1,0,32656,0.276965,0.276665,0.892059,17,0.0182912,10,0.000246802,-3.04961,-1.4746,-0.0400108,-1.39455,0.276665,
2,1,0,1,0,32656,0.278463,0.278184,0.893113,17,0.0183593,10,0.000248449,-3.04909,-1.36407,-0.0432528,-1.50257,0.2781837,
2,1,0,1,0,32656.1,0.279961,0.279661,0.891784,17,0.0184274,10,0.000249397,-3.04974,-2.41293,-0.0244516,-0.848763,0.279661,
2,1,0,1,0,32656.2,0.28146,0.281128,0.885485,17,0.0184953,10,0.000248935,-3.05282,-2.40031,-0.0245801,-0.8511,0.281128,
2,1,0,1,0,32656.2,0.282956,0.282634,0.887723,17,0.018563,10,0.0002509,-3.05172,-2.2897,-0.0257676,-0.889222,0.282634,
2,1,0,1,0,32656.3,0.284456,0.284113,0.885982,17,0.0186309,10,0.000251719,-3.05258,-4.04213,-0.0145963,-0.503736,0.284113,
2,1,0,1,0,32656.4,0.285954,0.285654,0.882749,17,0.0186985,10,0.00025216,-3.05416,-1.46521,-0.0402672,-1.38726,0.285654,
2,1,0,1,0,32656.5,0.287452,0.287106,0.878349,17,0.0187658,10,0.00025218,-3.05633,-2.21752,-0.0266064,-0.91697,0.287106,
2,1,0,1,0,32656.5,0.28895,0.288652,0.880171,17,0.0188331,10,0.000254063,-3.05543,1.27504,0.046273,1.59011,0.288652,
2,1,0,1,0,32656.6,0.290449,0.290099,0.882383,17,0.0189005,10,0.000255978,-3.05434,3.66139,0.0161141,0.553796,0.290099,
2,1,0,1,0,32656.7,0.291947,0.29165,0.880632,17,0.0189679,10,0.000256836,-3.05521,-0.971374,-0.0607387,-2.08656,0.29165,
2,1,0,1,0,32656.8,0.293445,0.2931,0.875716,17,0.0190352,10,0.000256672,-3.05764,-1.02303,-0.0576716,-1.97244,0.2931,
2,1,0,1,0,32656.8,0.294943,0.294587,0.877474,17,0.0191022,10,0.000258493,-3.05677,-1.52418,-0.0387094,-1.32531,0.2945874,
2,1,0,1,0,32656.9,0.296441,0.296109,0.878615,17,0.0191691,10,0.000260166,-3.0562,-1.58634,-0.0371925,-1.26821,0.296109,
2,1,0,1,0,32657,0.29794,0.29769,0.872289,17,0.019236,10,0.000259672,-3.05934,-2.0609,-0.0286283,-0.974184,0.29769,
2,1,0,1,0,32657.1,0.299436,0.29914,0.866451,17,0.0193026,10,0.00025919,-3.06226,-0.00310557,-18.9981,-357.563,0.29914,
2,1,0,1,0,32657.1,0.299739,0.299447,0.52662,17,0.0193358,10,0.000157695,-3.2785,0.00093538,63.0759,765.727,0.299447,
2,1,0,1,0,32657.2,0.298239,0.297949,0.00464687,17,0.0193486,10,1.38453e-06,-5.33284,0.00465682,12.6696,258.985,0.297949,
2,0,0,1,0,32657.3,0.296741,0.29644,-0.105118,17,0.0193427,10,-3.11613e-05,-3.97832,-0.0135732,-4.34679,65.0548,0.29644,
2,0,0,1,0,32657.3,0.295243,0.294948,-0.158838,17,0.0193311,10,-4.68491e-05,-3.79904,-0.0100299,-5.88242,30.2486,0.294948,
2,0,0,1,0,32657.4,0.293745,0.293404,-0.194823,17,0.0193163,10,-5.71619e-05,-3.71036,-0.0203125,-2.90461,20.8868,0.293404,
2,0,0,1,0,32657.5,0.292246,0.291916,-0.224217,17,0.0192993,10,-6.54525e-05,-3.64933,-0.0286583,-2.05874,17.4204,0.291916,
2,0,0,1,0,32657.6,0.290748,0.290415,-0.245469,17,0.0192804,10,-7.12879e-05,-3.61,-0.0368958,-1.5991,14.9891,0.2904149,
2,0,0,1,0,32657.6,0.28925,0.288935,-0.266198,17,0.0192598,10,-7.69141e-05,-3.57479,-0.0506533,-1.16478,11.9577,0.288935,
2,0,0,1,0,32657.7,0.287752,0.287416,-0.281165,17,0.0192379,10,-8.08115e-05,-3.55104,-0.0619958,-0.951677,10.409,0.287416,
2,0,0,1,0,32657.8,0.286254,0.28594,-0.294406,17,0.0192149,10,-8.41824e-05,-3.53105,-0.0721573,-0.817659,9.43714,0.28594,
2,0,0,1,0,32657.9,0.284754,0.284417,-0.311663,17,0.0191907,10,-8.8642e-05,-3.50632,-0.0707723,-0.83366,10.0916,0.284417,
2,0,0,1,0,32657.9,0.283259,0.282894,-0.325447,17,0.0191654,10,-9.20672e-05,-3.48752,-0.0798876,-0.738537,9.31677,0.282894,
2,0,0,1,0,32658,0.281759,0.281445,-0.339273,17,0.0191391,10,-9.54867e-05,-3.46945,-0.0947755,-0.622524,8.15801,0.281445,
2,0,0,1,0,32658.1,0.280261,0.27992,-0.347304,17,0.0191119,10,-9.72172e-05,-3.45929,-0.101377,-0.581986,7.95301,0.27992,
2,0,0,1,0,32658.2,0.278763,0.278443,-0.36097,17,0.0190839,10,-0.000100509,-3.44253,-0.129006,-0.457342,6.43434,0.278443,
2,0,0,1,0,32658.2,0.277264,0.276936,-0.373603,17,0.0190551,10,-0.000103464,-3.42759,-0.141567,-0.416765,6.04564,0.276936,
2,0,0,1,0,32658.3,0.275766,0.275445,-0.38219,17,0.0190254,10,-0.000105272,-3.41772,-0.156379,-0.377289,5.59678,0.275445,
2,0,0,1,0,32658.4,0.274268,0.273978,-0.390831,17,0.0189951,10,-0.000107079,-3.40801,-0.14012,-0.421068,6.4378,0.273978,
2,0,0,1,0,32658.5,0.27277,0.272445,-0.401625,17,0.0189642,10,-0.000109421,-3.39618,-0.151886,-0.38845,6.09435,0.272445,
2,0,0,1,0,32658.5,0.271272,0.270978,-0.40868,17,0.0189325,10,-0.000110743,-3.38862,-0.139466,-0.423043,6.74972,0.270978,
2,0,0,1,0,32658.6,0.269774,0.269442,-0.419998,17,0.0189,10,-0.000113165,-3.37675,-0.166473,-0.354411,5.74573,0.269442,
2,0,0,1,0,32658.7,0.268274,0.267933,-0.428151,17,0.0188669,10,-0.000114716,-3.3684,-0.195941,-0.301111,5.01353,0.267933,
2,0,0,1,0,32658.8,0.266779,0.26645,-0.431626,17,0.0188335,10,-0.000115007,-3.36489,-0.163717,-0.360378,6.10964,0.26645,
2,0,0,1,0,32658.8,0.265279,0.264946,-0.438695,17,0.0187992,10,-0.00011623,-3.35784,-0.165404,-0.356702,6.12368,0.264946,
2,0,0,1,0,32658.9,0.263781,0.26348,-0.448907,17,0.0187644,10,-0.000118278,-3.34784,-0.22483,-0.26242,4.6009,0.26348,
2,0,0,1,0,32659,0.262283,0.26196,-0.456365,17,0.0187291,10,-0.000119549,-3.34069,-0.204514,-0.288489,5.15089,0.26196,
2,0,0,1,0,32659.1,0.260784,0.260479,-0.459963,17,0.0186932,10,-0.000119811,-3.33728,-0.216282,-0.272792,4.93371,0.260479,
2,0,0,1,0,32659.1,0.259286,0.258978,-0.469694,17,0.0186568,10,-0.000121641,-3.32818,-0.204868,-0.28799,5.2913,0.258978,
2,0,0,1,0,32659.2,0.257788,0.257459,-0.481724,17,0.0186198,10,-0.000124024,-3.3172,-0.259632,-0.227245,4.24282,0.257459,
2,0,0,1,0,32659.3,0.25629,0.255994,-0.48737,17,0.0185823,10,-0.000124764,-3.31214,-0.307738,-0.191721,3.61697,0.255994,
2,0,0,1,0,32659.4,0.25479,0.254467,-0.490213,17,0.0185443,10,-0.000124743,-3.30962,-0.287312,-0.205352,3.94014,0.254467,
2,0,0,1,0,32659.4,0.253294,0.252973,-0.498334,17,0.0185059,10,-0.000126065,-3.30248,-0.297594,-0.198257,3.8622,0.252973,
2,0,0,1,0,32659.5,0.251795,0.25145,-0.503216,17,0.0184669,10,-0.000126533,-3.29825,-0.258175,-0.228527,4.50129,0.25145,
2,0,0,1,0,32659.6,0.250297,0.249994,-0.511262,17,0.0184276,10,-0.000127812,-3.29136,-0.299285,-0.197137,3.92616,0.249994,
2,0,0,1,0,32659.7,0.248799,0.248455,-0.514383,17,0.0183877,10,-0.000127801,-3.28871,-0.25436,-0.231955,4.66901,0.248455,
2,0,0,1,0,32659.7,0.247301,0.246952,-0.520884,17,0.0183475,10,-0.000128633,-3.28326,-0.290821,-0.202874,4.1343,0.246952,
2,0,0,1,0,32659.8,0.245802,0.245468,-0.530285,17,0.0183068,10,-0.000130168,-3.27549,-0.259583,-0.227287,4.67935,0.245468,
2,0,0,1,0,32659.9,0.244304,0.243953,-0.5377,17,0.0182655,10,-0.000131174,-3.26946,-0.378793,-0.155758,3.23724,0.243953,
2,0,0,1,0,32660,0.242806,0.242425,-0.539514,17,0.0182238,10,-0.000130792,-3.268,-0.496964,-0.118721,2.49833,0.242425,
2,0,0,1,0,32660,0.241308,0.240989,-0.544887,17,0.0181819,10,-0.000131312,-3.26369,-0.367504,-0.160543,3.41413,0.240989,
2,0,0,1,0,32660.1,0.23981,0.239486,-0.550418,17,0.0181394,10,-0.000131817,-3.25931,-0.270283,-0.218289,4.67855,0.239486,
2,0,0,1,0,32660.2,0.23831,0.23797,-0.554822,17,0.0180965,10,-0.000132031,-3.25585,-0.319625,-0.184591,4.01199,0.2379702,
2,0,0,1,0,32660.3,0.236815,0.236464,-0.563683,17,0.0180532,10,-0.000133291,-3.24897,-0.411386,-0.143418,3.14251,0.236464,
2,0,0,1,0,32660.3,0.235315,0.234953,-0.562382,17,0.0180095,10,-0.000132133,-3.24997,-0.392383,-0.150363,3.32895,0.234953,
2,0,0,1,0,32660.4,0.233817,0.233529,-0.571641,17,0.0179655,10,-0.000133495,-3.24288,-0.335043,-0.176097,3.94257,0.233529,
2,0,0,1,0,32660.5,0.232319,0.231963,-0.580089,17,0.0179209,10,-0.00013456,-3.23651,-0.37959,-0.155431,3.49981,0.2319634,
2,0,0,1,0,32660.6,0.230821,0.230462,-0.581311,17,0.0178759,10,-0.00013397,-3.23559,-0.515368,-0.114481,2.59545,0.230462,
2,0,0,1,0,32660.6,0.229322,0.22898,-0.584933,17,0.0178306,10,-0.000133938,-3.23289,-0.55649,-0.106022,2.43586,0.22898,
2,0,0,1,0,32660.7,0.227824,0.227466,-0.592431,17,0.017785,10,-0.000134758,-3.22736,-0.415634,-0.141952,3.29738,0.227466,
2,0,0,1,0,32660.8,0.226326,0.226013,-0.59891,17,0.0177389,10,-0.000135361,-3.22264,-0.409771,-0.143983,3.36736,0.226013,
2,0,0,1,0,32660.9,0.224828,0.224487,-0.603011,17,0.0176924,10,-0.000135368,-3.21967,-0.653736,-0.0902505,2.12345,0.224487,
2,0,0,1,0,32660.9,0.22333,0.223008,-0.611821,17,0.0176455,10,-0.000136441,-3.21338,-0.4275,-0.138012,3.28223,0.223008,
2,0,0,1,0,32661,0.22183,0.221541,-0.61356,17,0.0175983,10,-0.000135929,-3.21214,-0.390871,-0.150945,3.6248,0.221541,
2,0,0,1,0,32661.1,0.220335,0.220005,-0.619986,17,0.0175508,10,-0.0001364,-3.20762,-0.297373,-0.198404,4.78938,0.220005,
2,0,0,1,0,32661.2,0.218835,0.218484,-0.623158,17,0.0175025,10,-0.00013615,-3.2054,-0.380919,-0.154888,3.77882,0.218484,
2,0,0,1,0,32661.2,0.217337,0.217014,-0.629626,17,0.0174541,10,-0.000136638,-3.20092,-0.858553,-0.0687202,1.69358,0.217014,
2,0,0,1,0,32661.3,0.215839,0.215514,-0.633562,17,0.0174054,10,-0.000136541,-3.19821,-0.482127,-0.122374,3.03318,0.215514,
2,0,0,1,0,32661.4,0.21434,0.213979,-0.638906,17,0.0173563,10,-0.000136712,-3.19456,-0.326194,-0.180874,4.51146,0.213979,
2,0,0,1,0,32661.5,0.212842,0.212503,-0.643233,17,0.0173068,10,-0.000136689,-3.19163,-0.410456,-0.143743,3.61126,0.2125027,
2,0,0,1,0,32661.5,0.211344,0.211,-0.648889,17,0.0172568,10,-0.000136916,-3.18783,-0.516021,-0.114336,2.8923,0.211,
2,0,0,1,0,32661.6,0.209846,0.209533,-0.654257,17,0.0172065,10,-0.000137089,-3.18425,-0.524946,-0.112392,2.87575,0.209533,
2,0,0,1,0,32661.7,0.208348,0.20804,-0.661947,17,0.0171559,10,-0.000137712,-3.17918,-0.353862,-0.166732,4.31668,0.20804,
2,0,0,1,0,32661.8,0.20685,0.206475,-0.67184,17,0.0171048,10,-0.000138718,-3.17273,-0.401843,-0.146823,3.80782,0.206475,
2,0,0,1,0,32661.8,0.20535,0.205037,-0.674049,17,0.0170529,10,-0.000138205,-3.17131,-0.466883,-0.12637,3.29661,0.205037,
2,0,0,1,0,32661.9,0.203855,0.20354,-0.676572,17,0.017001,10,-0.00013771,-3.16969,-0.510993,-0.115461,3.05567,0.20354,
2,0,0,1,0,32662,0.202355,0.202,-0.679138,17,0.0169488,10,-0.000137186,-3.16804,-0.452577,-0.130365,3.4781,0.202,
2,0,0,1,0,32662.1,0.200857,0.200499,-0.685467,17,0.016896,10,-0.000137435,-3.16401,-0.393488,-0.149941,4.01198,0.200499,
2,0,0,1,0,32662.1,0.199359,0.199017,-0.692328,17,0.0168428,10,-0.000137785,-3.15969,-0.339657,-0.173705,4.68311,0.199017,
2,0,0,1,0,32662.2,0.19786,0.197503,-0.701442,17,0.0167893,10,-0.000138537,-3.15401,-0.451566,-0.130656,3.56819,0.197503,
2,0,0,1,0,32662.3,0.196362,0.196029,-0.703481,17,0.0167354,10,-0.000137903,-3.15275,-0.440648,-0.133894,3.6787,0.196029,
2,0,0,1,0,32662.4,0.194864,0.194529,-0.713402,17,0.016681,10,-0.000138777,-3.14667,-0.351338,-0.167929,4.65174,0.194529,
2,0,0,1,0,32662.4,0.193366,0.193044,-0.719065,17,0.016626,10,-0.000138811,-3.14323,-0.384138,-0.153591,4.29595,0.193044,
2,0,0,1,0,32662.5,0.191866,0.19155,-0.724317,17,0.0165705,10,-0.000138743,-3.14007,-0.524847,-0.112414,3.17411,0.19155,
2,0,0,1,0,32662.6,0.19037,0.190047,-0.7253,17,0.0165149,10,-0.000137841,-3.13948,-0.375223,-0.15724,4.47844,0.190047,
2,0,0,1,0,32662.7,0.188871,0.18857,-0.732949,17,0.0164585,10,-0.000138212,-3.13493,-0.293649,-0.20092,5.75557,0.18857,
2,0,0,1,0,32662.7,0.187373,0.187032,-0.7416,17,0.0164018,10,-0.000138703,-3.12983,-0.39257,-0.150292,4.35181,0.187032,
2,0,0,1,0,32662.8,0.185875,0.185553,-0.74865,17,0.0163445,10,-0.000138915,-3.12572,-0.386226,-0.15276,4.45892,0.185553,
2,0,0,1,0,32662.9,0.184377,0.184045,-0.754313,17,0.0162868,10,-0.000138827,-3.12245,-0.459029,-0.128532,3.79001,0.184045,
2,0,0,1,0,32663,0.182878,0.18255,-0.761574,17,0.0162286,10,-0.000139025,-3.11829,-0.358922,-0.164381,4.89246,0.18255,
2,0,0,1,0,32663,0.18138,0.181015,-0.76973,17,0.0161697,10,-0.000139332,-3.11366,-0.323328,-0.182477,5.48813,0.181015,
2,0,0,1,0,32663.1,0.179882,0.179544,-0.777863,17,0.0161103,10,-0.000139661,-3.1091,-0.452807,-0.130298,3.94879,0.179544,
2,0,0,1,0,32663.2,0.178384,0.178073,-0.781931,17,0.0160503,10,-0.000139241,-3.10683,-0.364593,-0.161824,4.96198,0.178073,
2,0,0,1,0,32663.3,0.176886,0.176551,-0.792041,17,0.0159899,10,-0.000139835,-3.10125,-0.364693,-0.16178,5.01212,0.176551,
2,0,0,1,0,32663.3,0.175386,0.175075,-0.803172,17,0.0159286,10,-0.000140616,-3.09519,-0.287105,-0.2055,6.43311,0.175075,
2,0,0,1,0,32663.4,0.173891,0.17357,-0.811448,17,0.0158668,10,-0.000140843,-3.09074,-0.282109,-0.209139,6.62236,0.17357,
2,0,0,1,0,32663.5,0.172391,0.172053,-0.820292,17,0.015804,10,-0.000141134,-3.08603,-0.27406,-0.215281,6.89515,0.172053,
2,0,0,1,0,32663.6,0.170893,0.170598,-0.830909,17,0.0157408,10,-0.000141752,-3.08045,-0.261719,-0.225433,7.31939,0.1705984,
2,0,0,1,0,32663.6,0.169395,0.169064,-0.84247,17,0.0156766,10,-0.000142431,-3.07445,-0.243074,-0.242725,7.9822,0.169064,
2,0,0,1,0,32663.7,0.167897,0.167572,-0.85635,17,0.0156115,10,-0.0001435,-3.06735,-0.244594,-0.241216,8.07601,0.167572,
2,0,0,1,0,32663.8,0.166398,0.16609,-0.866263,17,0.0155456,10,-0.000143878,-3.06235,-0.247312,-0.238565,8.09341,0.16609,
2,0,0,1,0,32663.9,0.1649,0.164554,-0.874888,17,0.0154788,10,-0.000143966,-3.05805,-0.211857,-0.27849,9.58106,0.164554,
2,0,0,1,0,32663.9,0.163402,0.163081,-0.893275,17,0.015411,10,-0.000145676,-3.04901,-0.209798,-0.281223,9.80749,0.163081,
2,0,0,1,0,32664,0.161904,0.161558,-0.911529,17,0.015342,10,-0.000147265,-3.04023,-0.185671,-0.317767,11.2851,0.161558,
2,0,0,1,0,32664.1,0.160406,0.16012,-0.92832,17,0.0152718,10,-0.000148642,-3.0323,-0.195182,-0.302282,10.8969,0.16012,
2,0,0,1,0,32664.2,0.158906,0.158556,-0.94181,17,0.0152002,10,-0.00014933,-3.02604,-0.165502,-0.356491,13.1523,0.1585564,
2,0,0,1,0,32664.2,0.157411,0.157083,-0.964554,17,0.0151275,10,-0.000151515,-3.01567,-0.146662,-0.402285,15.1926,0.157083,
2,0,0,1,0,32664.3,0.155911,0.155552,-0.98542,17,0.0150529,10,-0.000153284,-3.00638,-0.141401,-0.417252,16.1221,0.155552,
2,0,0,1,0,32664.4,0.154413,0.154058,-1.01256,17,0.0149764,10,-0.000155994,-2.99458,-0.145693,-0.40496,15.9863,0.154058,
2,0,0,1,0,32664.5,0.152915,0.15256,-1.04022,17,0.0148981,10,-0.000158696,-2.98287,-0.132072,-0.446727,18.1386,0.15256,
2,0,0,1,0,32664.5,0.151417,0.15108,-1.06773,17,0.0148178,10,-0.000161313,-2.97154,-0.118457,-0.498069,20.8517,0.15108,
2,0,0,1,0,32664.6,0.149918,0.149612,-1.10423,17,0.014735,10,-0.000165205,-2.95694,-0.1031,-0.572259,24.6798,0.149612,
2,0,0,1,0,32664.7,0.14842,0.148121,-1.14148,17,0.0146495,10,-0.000169077,-2.94253,-0.0997602,-0.591418,26.4039,0.148121,
2,0,0,1,0,32664.8,0.146922,0.14658,-1.18369,17,0.014561,10,-0.000173506,-2.92676,-0.0928389,-0.63551,29.3987,0.14658,
2,0,0,1,0,32664.8,0.145424,0.145022,-1.22813,17,0.0144694,10,-0.000178106,-2.91076,-0.0851371,-0.693,33.3046,0.145022,
2,0,0,1,0,32664.9,0.143926,0.143598,-1.28078,17,0.014374,10,-0.000183918,-2.89252,-0.0780114,-0.756299,37.7964,0.143598,
2,0,0,1,0,32665,0.142426,0.142078,-1.34017,17,0.0142743,10,-0.000190408,-2.87284,-0.0804243,-0.733609,38.3413,0.142078,
2,0,0,1,0,32665.1,0.140931,0.140621,-1.39455,17,0.0141706,10,-0.000196103,-2.85557,-0.0804798,-0.733103,39.9996,0.140621,
2,0,0,1,0,32665.1,0.139431,0.139107,-1.45414,17,0.014062,10,-0.000202282,-2.83739,-0.0787187,-0.749504,42.7285,0.139107,
2,0,0,1,0,32665.2,0.137933,0.137603,-1.52662,17,0.0139489,10,-0.000210067,-2.81627,-0.0776039,-0.760271,45.2015,0.137603,
2,0,0,1,0,32665.3,0.136435,0.136087,-1.59393,17,0.0138306,10,-0.000216912,-2.79753,-0.08153,-0.72366,44.9083,0.136087,
2,0,0,1,0,32665.4,0.134936,0.134576,-1.66085,17,0.0137071,10,-0.00022351,-2.77967,-0.0853623,-0.691171,44.7376,0.134576,
2,0,0,1,0,32665.4,0.133438,0.133109,-1.72868,17,0.0135786,10,-0.000230103,-2.76229,-0.0903701,-0.652871,44.0327,0.133109,
2,0,0,1,0,32665.5,0.13194,0.131612,-1.79545,17,0.0134452,10,-0.000236304,-2.74583,-0.0915166,-0.644692,45.2365,0.131612,
2,0,0,1,0,32665.6,0.130442,0.130125,-1.86184,17,0.0133066,10,-0.000242272,-2.73006,-0.0986654,-0.597981,43.3335,0.130125,
2,0,0,1,0,32665.7,0.128942,0.12859,-1.92441,17,0.0131629,10,-0.000247459,-2.7157,-0.110604,-0.533434,39.9244,0.12859,
2,0,0,1,0,32665.7,0.127446,0.127113,-1.98369,17,0.0130152,10,-0.000252153,-2.70253,-0.121412,-0.485948,37.5131,0.127113,
2,0,0,1,0,32665.8,0.125947,0.125603,-2.03875,17,0.012863,10,-0.000256073,-2.69064,-0.132273,-0.446046,35.4132,0.125603,
2,0,0,1,0,32665.9,0.124449,0.12411,-2.09061,17,0.0127069,10,-0.000259466,-2.67973,-0.143004,-0.412577,33.5639,0.12411,
2,0,0,1,0,32666,0.122951,0.122655,-2.13669,17,0.0125469,10,-0.000262075,-2.67026,-0.164929,-0.35773,29.7569,0.122655,
2,0,0,1,0,32666,0.121453,0.121126,-2.18029,17,0.0123836,10,-0.00026409,-2.66149,-0.199664,-0.295497,25.0674,0.121126,
2,0,0,1,0,32666.1,0.119955,0.119595,-2.21122,17,0.0122177,10,-0.000264451,-2.65537,-0.233744,-0.252413,21.7843,0.119595,
2,0,0,1,0,32666.2,0.118456,0.118108,-2.24317,17,0.0120492,10,-0.000264937,-2.64914,-0.250343,-0.235677,20.6122,0.118108,
2,0,0,1,0,32666.3,0.116958,0.116605,-2.27759,17,0.0118783,10,-0.000265578,-2.64252,-0.333884,-0.176708,15.6359,0.116605,
2,0,0,1,0,32666.3,0.11546,0.115126,-2.29746,17,0.0117056,10,-0.000264497,-2.63875,-0.461286,-0.127903,11.4208,0.1151255,
2,0,0,1,0,32666.4,0.113962,0.113611,-2.30669,17,0.0115316,10,-0.000262065,-2.63701,-0.708941,-0.0832227,7.48373,0.113611,
2,0,0,1,0,32666.5,0.112462,0.112139,-2.31879,17,0.0113568,10,-0.000260027,-2.63474,-1.05967,-0.0556778,5.02999,0.112139,
2,0,0,1,0,32666.6,0.110967,0.110688,-2.32558,17,0.0111816,10,-0.000257414,-2.63347,-2.34814,-0.0251263,2.27479,0.1106878,
2,0,0,1,0,32666.6,0.109467,0.109148,-2.32404,17,0.0110057,10,-0.000253664,-2.63376,2.39277,0.0246576,-2.23131,0.109148,
2,0,0,1,0,32666.7,0.107969,0.107658,-2.3191,17,0.0108302,10,-0.000249669,-2.63468,1.50741,0.0391399,-3.5396,0.107658,
2,0,0,1,0,32666.8,0.106471,0.106101,-2.30824,17,0.0106555,10,-0.000244905,-2.63672,0.793201,0.0743821,-6.71119,0.1061007,
2,0,0,1,0,32666.9,0.104973,0.104635,-2.30006,17,0.0104812,10,-0.000240666,-2.63826,0.748577,0.0788162,-7.06733,0.104635,
2,0,0,1,0,32666.9,0.103474,0.103142,-2.2922,17,0.0103076,10,-0.000236421,-2.63975,0.535924,0.11009,-9.82068,0.103142,
2,0,0,1,0,32667,0.101976,0.101626,-2.27644,17,0.0101351,10,-0.000231346,-2.64274,0.435578,0.135452,-12.0144,0.101626,
2,0,0,1,0,32667.1,0.100478,0.100132,-2.25523,17,0.00996417,10,-0.000225821,-2.64681,0.448476,0.131557,-11.5801,0.100132,
2,0,0,1,0,32667.2,0.0989799,0.0986553,-2.23681,17,0.00979448,10,-0.000220673,-2.65037,0.467923,0.126089,-11.0126,0.0986553,
2,0,0,1,0,32667.2,0.0974817,0.0971856,-2.22175,17,0.00962604,10,-0.000215922,-2.6533,0.447726,0.131777,-11.4138,0.0971856,
2,0,0,1,0,32667.3,0.0959821,0.0956605,-2.20259,17,0.00945872,10,-0.0002107,-2.65707,0.400777,0.147214,-12.6399,0.09566053,
2,0,0,1,0,32667.4,0.0944866,0.0941719,-2.17662,17,0.00929345,10,-0.000204976,-2.66222,0.393686,0.149866,-12.7673,0.0941719,
2,0,0,1,0,32667.5,0.0929871,0.0926501,-2.15879,17,0.00912918,10,-0.000200012,-2.66579,0.468109,0.126039,-10.6374,0.0926501,
2,0,0,1,0,32667.5,0.0914889,0.0911621,-2.14869,17,0.00896631,10,-0.000195879,-2.66783,0.464104,0.127127,-10.651,0.09116213,
2,0,0,1,0,32667.6,0.0899907,0.0896209,-2.1315,17,0.00880465,10,-0.000191027,-2.67132,0.437812,0.134761,-11.1879,0.0896209,
2,0,0,1,0,32667.7,0.0884925,0.0881424,-2.10915,17,0.00864436,10,-0.000185905,-2.67589,0.44393,0.132904,-10.9689,0.0881424,
2,0,0,1,0,32667.8,0.0869943,0.086646,-2.09677,17,0.00848536,10,-0.000181677,-2.67845,0.466734,0.12641,-10.354,0.086646,
2,0,0,1,0,32667.8,0.0854961,0.0851641,-2.08443,17,0.00832732,10,-0.000177518,-2.68101,0.538215,0.109622,-8.92307,0.08516407,
2,0,0,1,0,32667.9,0.083998,0.0836304,-2.06949,17,0.00817026,10,-0.000173072,-2.68414,0.451108,0.130789,-10.5638,0.08363042,
2,0,0,1,0,32668,0.0824998,0.0821614,-2.05782,17,0.00801415,10,-0.000169073,-2.68659,0.477042,0.123679,-9.93428,0.0821614,
2,0,0,1,0,32668.1,0.081002,0.0806736,-2.0456,17,0.0078592,10,-0.000165026,-2.68918,0.587181,0.10048,-8.01527,0.0806736,
2,0,0,1,0,32668.1,0.0795025,0.0791546,-2.03278,17,0.00770486,10,-0.000160904,-2.69191,0.692095,0.0852484,-6.75834,0.0791546,
2,0,0,1,0,32668.2,0.078007,0.0776819,-2.02387,17,0.00755169,10,-0.000157218,-2.69382,0.700388,0.0842391,-6.64647,0.0776819,
2,0,0,1,0,32668.3,0.076507,0.0761644,-2.01141,17,0.007399,10,-0.000153198,-2.6965,0.56367,0.104671,-8.20425,0.0761644,
2,0,0,1,0,32668.4,0.0750088,0.074676,-1.99527,17,0.00724758,10,-0.000148999,-2.7,0.570195,0.103473,-8.0658,0.074676,
2,0,0,1,0,32668.4,0.0735106,0.0731832,-1.9866,17,0.00709699,10,-0.000145386,-2.70189,0.654566,0.0901361,-6.98056,0.0731832,
2,0,0,1,0,32668.5,0.0720124,0.0717019,-1.97681,17,0.00694718,10,-0.000141741,-2.70404,0.686385,0.0859576,-6.627,0.0717019,
2,0,0,1,0,32668.6,0.0705142,0.0702223,-1.96341,17,0.00679822,10,-0.000137875,-2.70699,0.513285,0.114946,-8.80825,0.0702223,
2,0,0,1,0,32668.7,0.0690161,0.0687104,-1.94549,17,0.00665019,10,-0.000133675,-2.71097,0.567174,0.104025,-7.92678,0.0687104,
2,0,0,1,0,32668.7,0.0675179,0.0672159,-1.941,17,0.00650309,10,-0.000130466,-2.71197,0.638029,0.0924723,-7.00614,0.0672159,
2,0,0,1,0,32668.8,0.0660179,0.0656617,-1.93624,17,0.0063565,10,-0.000127137,-2.71304,0.606328,0.0973071,-7.32547,0.0656617,
2,0,0,1,0,32668.9,0.0645224,0.0642072,-1.91896,17,0.00621095,10,-0.000123211,-2.71693,0.550728,0.107131,-8.00803,0.0642072,
2,0,0,1,0,32669,0.0630229,0.0626892,-1.90406,17,0.00606604,10,-0.000119364,-2.72032,0.526324,0.112098,-8.34068,0.0626892,
2,0,0,1,0,32669,0.0615251,0.0611983,-1.89493,17,0.00592235,10,-0.000115967,-2.72241,0.521776,0.113075,-8.366,0.0611983,
2,0,0,1,0,32669.1,0.0600269,0.0596851,-1.8819,17,0.00577944,10,-0.000112321,-2.7254,0.609992,0.0967225,-7.1185,0.0596851,
2,0,0,1,0,32669.2,0.0585287,0.0581743,-1.8707,17,0.00563736,10,-0.000108827,-2.728,0.486918,0.12117,-8.84161,0.0581743,
2,0,0,1,0,32669.3,0.0570305,0.0567142,-1.86117,17,0.00549603,10,-0.000105555,-2.73021,0.490713,0.120233,-8.72515,0.0567142,
2,0,0,1,0,32669.3,0.0555323,0.0551744,-1.84737,17,0.00535586,10,-0.000101928,-2.73344,0.520922,0.113261,-8.18096,0.0551744,
2,0,0,1,0,32669.4,0.0540342,0.0537291,-1.83699,17,0.00521649,10,-9.86998e-05,-2.73589,0.545202,0.108217,-7.75444,0.0537291,
2,0,0,1,0,32669.5,0.052536,0.0521933,-1.82695,17,0.00507784,10,-9.53545e-05,-2.73827,0.477196,0.123639,-8.79762,0.0521933,
2,0,0,1,0,32669.6,0.0510378,0.0507452,-1.8101,17,0.00494015,10,-9.1854e-05,-2.7423,0.443981,0.132889,-9.39707,0.0507452,
2,0,0,1,0,32669.6,0.0495382,0.0491966,-1.79819,17,0.00480341,10,-8.84649e-05,-2.74516,0.471658,0.125091,-8.79053,0.0491966,
2,0,0,1,0,32669.7,0.0480427,0.0477127,-1.7856,17,0.00466797,10,-8.51958e-05,-2.74822,0.533292,0.110634,-7.70816,0.04771268,
2,0,0,1,0,32669.8,0.0465432,0.0461967,-1.77165,17,0.00453297,10,-8.18445e-05,-2.75162,0.545022,0.108253,-7.48351,0.0461967,
2,0,0,1,0,32669.9,0.045045,0.0447104,-1.75971,17,0.0043991,10,-7.86771e-05,-2.75456,0.386112,0.152805,-10.492,0.0447104,
2,0,0,1,0,32669.9,0.0435468,0.0432267,-1.74147,17,0.00426632,10,-7.52781e-05,-2.75908,0.397589,0.148394,-10.1103,0.0432267,
2,0,0,1,0,32670,0.0420486,0.0416972,-1.73304,17,0.00413472,10,-7.22629e-05,-2.76119,0.45127,0.130742,-8.83973,0.0416972,
2,0,0,1,0,32670.1,0.0405504,0.0402243,-1.72169,17,0.00400398,10,-6.92538e-05,-2.76404,0.461903,0.127732,-8.56568,0.0402243,
2,0,0,1,0,32670.2,0.0390523,0.038706,-1.7086,17,0.00387405,10,-6.61331e-05,-2.76736,0.387516,0.152252,-10.1265,0.038706,
2,0,0,1,0,32670.2,0.0375541,0.0371939,-1.69117,17,0.00374527,10,-6.29012e-05,-2.77181,0.368699,0.160022,-10.5801,0.0371939,
2,0,0,1,0,32670.3,0.0360559,0.0357314,-1.67706,17,0.00361785,10,-5.99238e-05,-2.77545,0.373724,0.157871,-10.3475,0.0357314,
2,0,0,1,0,32670.4,0.0345577,0.0342091,-1.6619,17,0.00349124,10,-5.68522e-05,-2.77939,0.453989,0.129959,-8.43068,0.0342091,
2,0,0,1,0,32670.5,0.0330582,0.0327574,-1.64912,17,0.00336549,10,-5.40208e-05,-2.78275,0.37648,0.156715,-10.0829,0.0327574,
2,0,0,1,0,32670.5,0.0315626,0.0312186,-1.63552,17,0.00324107,10,-5.10587e-05,-2.78634,0.400423,0.147344,-9.40336,0.0312186,
2,0,0,1,0,32670.6,0.0300631,0.0297168,-1.62124,17,0.00311761,10,-4.81781e-05,-2.79015,0.408125,0.144564,-9.1563,0.0297168,
2,0,0,1,0,32670.7,0.0285649,0.0282199,-1.61016,17,0.00299521,10,-4.54387e-05,-2.79313,0.488012,0.120899,-7.57977,0.0282199,
2,0,0,1,0,32670.8,0.0270667,0.0267308,-1.5958,17,0.00287362,10,-4.2657e-05,-2.79702,0.513251,0.114953,-7.15782,0.0267308,
2,0,0,1,0,32670.8,0.0255685,0.0252456,-1.58529,17,0.00275299,10,-4.00216e-05,-2.79989,0.385717,0.152962,-9.45933,0.0252456,
2,0,0,1,0,32670.9,0.0240704,0.0237324,-1.56745,17,0.00263353,10,-3.71992e-05,-2.80481,0.439835,0.134141,-8.23869,0.0237324,
2,0,0,1,0,32671,0.0225722,0.0222292,-1.55855,17,0.00251492,10,-3.46453e-05,-2.80728,0.516122,0.114314,-6.95411,0.0222292,
2,0,0,1,0,32671,0.021074,0.0207415,-1.54778,17,0.00239706,10,-3.21032e-05,-2.81029,0.521313,0.113176,-6.8322,0.0207415,
2,0,0,1,0,32671.1,0.0195758,0.0192296,-1.5394,17,0.00228,10,-2.96021e-05,-2.81265,0.424872,0.138865,-8.32817,0.0192296,
2,0,0,1,0,32671.2,0.018078,0.0177694,-1.52537,17,0.00216376,10,-2.71048e-05,-2.81663,0.518309,0.113832,-6.78468,0.0177694,
2,0,0,1,0,32671.3,0.0165785,0.0162397,-1.51608,17,0.00204826,10,-2.46207e-05,-2.81928,0.612319,0.096355,-5.70987,0.01623974,
2,0,0,1,0,32671.3,0.015083,0.0147616,-1.5104,17,0.00193366,10,-2.22959e-05,-2.82091,0.810534,0.0727916,-4.28914,0.0147616,
2,0,0,1,0,32671.4,0.013583,0.0132224,-1.50161,17,0.00181921,10,-1.98549e-05,-2.82344,0.623714,0.0945946,-5.53451,0.0132224,
2,0,0,1,0,32671.5,0.0120848,0.0117537,-1.49358,17,0.00170559,10,-1.75552e-05,-2.82577,0.660562,0.0893179,-5.21208,0.01175374,
2,0,0,1,0,32671.6,0.0105866,0.0102718,-1.4843,17,0.00159267,10,-1.52464e-05,-2.82848,0.837863,0.0704172,-4.08896,0.0102718,
2,0,0,1,0,32671.6,0.00908845,0.0087572,-1.48066,17,0.00148007,10,-1.29664e-05,-2.82954,0.948903,0.0621771,-3.59131,0.0087572,
2,0,0,1,0,32671.7,0.00759027,0.00727569,-1.47568,17,0.00136785,10,-1.07366e-05,-2.83101,0.945029,0.0624319,-3.59618,0.00727569,
2,0,0,1,0,32671.8,0.00609208,0.00573726,-1.4737,17,0.00125606,10,-8.45499e-06,-2.83159,1.19537,0.0493571,-2.83603,0.00573726,
2,0,0,1,0,32671.9,0.00459389,0.00423433,-1.46764,17,0.00114464,10,-6.21446e-06,-2.83338,2.27808,0.025899,-1.4853,0.00423433,
2,0,0,1,0,32671.9,0.00309391,0.00277159,-1.46492,17,0.00103317,10,-4.06016e-06,-2.83419,-1.49788,-0.0393891,2.25976,0.00277159,
2,0,0,1,0,32672,0.0015984,0.0012187,-1.48386,17,0.000921075,10,-1.80838e-06,-2.82861, , , ,0.001218704,
2,0,0,1,0,32672.1,0.000199195,-0.000201564,-1.47216,17,0.00081648,10,2.96733e-07,-2.83205, , , ,-0.000201564,