File: Figure_codes/Fig_S3_S4/20221101_1-115_003_TrumpetPlot_ParaChange_from10_every3_14_CV_C01_16.csv
mode,ox/red,error,control changes,counter inc.,time/s,control/V,Ewe/V,<I>/mA,cycle number,(Q-Qo)/C,I Range,P/W,log(|I|),Tafel slope mV/dec,alpha_eff,dI/d(E-IR),E-IR/V,
2,1,0,1,0,32721.2,2.44065e-05,-0.000344411,38.2826,17,0.0000000E+000,10,-1.31849e-05,-1.417, , , ,-0.000344411,
2,1,0,1,0,32721.2,0.00332042,0.00292376,39.774,17,0.00012165,10,0.00011629,-1.4004, , , ,0.002923762,
2,1,0,1,0,32721.2,0.0073156,0.00693316,40.9224,17,0.00028322,10,0.000283721,-1.38804, , , ,0.00693316,
2,1,0,1,0,32721.2,0.0113108,0.0109213,41.8943,17,0.000448981,10,0.000457542,-1.37785,0.402611,0.146543,238.219,0.0109213,
2,1,0,1,0,32721.2,0.0153059,0.0149403,42.7856,17,0.00061843,10,0.000639229,-1.3687,0.453555,0.130083,216.476,0.01494029,
2,1,0,1,0,32721.2,0.0193011,0.0189433,43.5902,17,0.000791301,10,0.000825743,-1.36061,0.502319,0.117455,199.275,0.0189433,
2,1,0,1,0,32721.2,0.0233462,0.023028,44.4065,17,0.000967453,10,0.00102259,-1.35255,0.551188,0.107042,184.872,0.023028,
2,1,0,1,0,32721.2,0.0273414,0.0269589,45.0902,17,0.00114652,10,0.00121558,-1.34592,0.591893,0.0996802,174.979,0.0269589,
2,1,0,1,0,32721.2,0.0313366,0.0310086,45.7562,17,0.0013283,10,0.00141884,-1.33955,0.646609,0.0912452,162.686,0.0310086,
2,1,0,1,0,32721.2,0.0353317,0.0349894,46.3979,17,0.00151266,10,0.00162343,-1.3335,0.686731,0.0859143,155.315,0.0349894,
2,1,0,1,0,32721.2,0.0393269,0.038897,46.9882,17,0.00169952,10,0.0018277,-1.32801,0.72948,0.0808795,148.122,0.038897,
2,1,0,1,0,32721.2,0.0433221,0.0429583,47.5751,17,0.00188872,10,0.00204375,-1.32262,0.777997,0.0758357,140.611,0.0429583,
2,1,0,1,0,32721.2,0.0473173,0.0469412,48.1162,17,0.00208014,10,0.00225863,-1.31771,0.812132,0.0726483,136.299,0.0469412,
2,1,0,1,0,32721.2,0.0513124,0.0509284,48.6391,17,0.00227373,10,0.00247711,-1.31301,0.851141,0.0693187,131.532,0.0509284,
2,1,0,1,0,32721.2,0.0553076,0.054942,49.1751,17,0.00246942,10,0.00270178,-1.30825,0.861292,0.0685017,131.438,0.054942,
2,1,0,1,0,32721.3,0.0593028,0.0589641,49.6804,17,0.00266718,10,0.00292936,-1.30382,0.884229,0.0667248,129.337,0.0589641,
2,1,0,1,0,32721.3,0.0633479,0.0630128,50.2286,17,0.00286702,10,0.00316504,-1.29905,0.919371,0.0641743,125.66,0.0630128,
2,1,0,1,0,32721.3,0.0673431,0.0669394,50.7099,17,0.00306892,10,0.00339449,-1.29491,0.922748,0.0639394,126.476,0.0669394,
2,1,0,1,0,32721.3,0.0713382,0.070935,51.1848,17,0.00327275,10,0.00363079,-1.29086,0.947715,0.062255,124.424,0.070935,
2,1,0,1,0,32721.3,0.0753334,0.0749476,51.7019,17,0.00347857,10,0.00387493,-1.28649,0.960442,0.06143,123.93,0.0749476,
2,1,0,1,0,32721.3,0.0793286,0.0789125,52.2069,17,0.00368643,10,0.00411977,-1.28227,0.955716,0.0617338,125.723,0.0789125,
2,1,0,1,0,32721.3,0.0833238,0.082906,52.6886,17,0.0038963,10,0.0043682,-1.27828,0.979095,0.0602597,123.9,0.082906,
2,1,0,1,0,32721.3,0.0873189,0.0869175,53.1941,17,0.00410812,10,0.0046235,-1.27414,0.997567,0.0591439,122.747,0.08691749,
2,1,0,1,0,32721.3,0.0913141,0.0909004,53.6784,17,0.00432191,10,0.00487939,-1.2702,0.954726,0.0617978,129.553,0.0909004,
2,1,0,1,0,32721.3,0.0953093,0.094844,54.1624,17,0.00453767,10,0.00513698,-1.2663,0.91704,0.0643375,136.274,0.094844,
2,1,0,1,0,32721.3,0.0993045,0.0988821,54.7584,17,0.00475554,10,0.00541462,-1.26155,0.878937,0.0671266,143.625,0.0988821,
2,1,0,1,0,32721.3,0.103319,0.102861,55.3668,17,0.00497582,10,0.00569507,-1.25675,0.85796,0.0687678,148.55,0.102861,
2,1,0,1,0,32721.3,0.107345,0.106968,55.9861,17,0.00519865,10,0.0059887,-1.25192,0.867807,0.0679874,148.438,0.106968,
2,1,0,1,0,32721.3,0.11134,0.110961,56.5566,17,0.00542378,10,0.00627559,-1.24752,0.876237,0.0673334,148.617,0.110961,
2,1,0,1,0,32721.3,0.115335,0.114967,57.146,17,0.00565125,10,0.00656993,-1.24301,0.881082,0.0669631,149.407,0.114967,
2,1,0,1,0,32721.3,0.11933,0.118968,57.7606,17,0.00588112,10,0.00687168,-1.23837,0.871417,0.0677058,152.64,0.118968,
2,1,0,1,0,32721.3,0.123325,0.12293,58.371,17,0.00611345,10,0.00717554,-1.2338,0.854398,0.0690545,157.366,0.12293,
2,1,0,1,0,32721.3,0.127321,0.12693,58.9941,17,0.00634825,10,0.00748811,-1.22919,0.843305,0.0699628,161.198,0.1269298,
2,1,0,1,0,32721.3,0.131316,0.13092,59.6565,17,0.00658561,10,0.00781023,-1.22434,0.82473,0.0715386,166.658,0.13092,
2,1,0,1,0,32721.3,0.135311,0.13493,60.3336,17,0.00682564,10,0.00814078,-1.21944,0.804547,0.0733332,172.766,0.13493,
2,1,0,1,0,32721.3,0.139306,0.138911,61.0344,17,0.00706844,10,0.00847837,-1.21443,0.781869,0.0754602,179.921,0.138911,
2,1,0,1,0,32721.3,0.143301,0.142936,61.7593,17,0.00731409,10,0.00882761,-1.2093,0.763503,0.0772754,186.419,0.142936,
2,1,0,1,0,32721.3,0.147346,0.14703,62.5549,17,0.00756283,10,0.00919744,-1.20374,0.75302,0.0783511,191.288,0.1470298,
2,1,0,1,0,32721.3,0.151342,0.15094,63.3181,17,0.00781463,10,0.00955721,-1.19847,0.745137,0.0791801,195.661,0.15094,
2,1,0,1,0,32721.3,0.155337,0.154965,64.1052,17,0.00806954,10,0.00993406,-1.19311,0.750244,0.0786411,196.765,0.154965,
2,1,0,1,0,32721.4,0.159332,0.158999,64.9022,17,0.00832765,10,0.0103194,-1.18774,0.760415,0.0775892,196.457,0.158999,
2,1,0,1,0,32721.4,0.163327,0.162979,65.6933,17,0.00858893,10,0.0107066,-1.18248,0.772311,0.0763941,195.757,0.162979,
2,1,0,1,0,32721.4,0.167322,0.166956,66.4647,17,0.00885331,10,0.0110967,-1.17741,0.792966,0.0744042,192.894,0.1669559,
2,1,0,1,0,32721.4,0.171317,0.170966,67.2376,17,0.00912082,10,0.0114954,-1.17239,0.829329,0.0711418,186.498,0.170966,
2,1,0,1,0,32721.4,0.175313,0.17495,67.9792,17,0.0093913,10,0.011893,-1.16762,0.869618,0.0678458,179.767,0.17495,
2,1,0,1,0,32721.4,0.179308,0.178952,68.6722,17,0.0096647,10,0.012289,-1.16322,0.911985,0.0646941,173.243,0.178952,
2,1,0,1,0,32721.4,0.183303,0.182955,69.3408,17,0.00994083,10,0.0126863,-1.15901,0.998753,0.0590736,159.659,0.182955,
2,1,0,1,0,32721.4,0.187348,0.186989,70.0135,17,0.0102195,10,0.0130918,-1.15482,1.08638,0.0543088,148.045,0.186989,
2,1,0,1,0,32721.4,0.191343,0.191002,70.542,17,0.0105007,10,0.0134736,-1.15155,1.24351,0.0474462,130.319,0.191002,
2,1,0,1,0,32721.4,0.195338,0.194941,71.0392,17,0.010784,10,0.0138485,-1.1485,1.51464,0.0389531,107.739,0.1949411,
2,1,0,1,0,32721.4,0.199334,0.19897,71.4278,17,0.011069,10,0.014212,-1.14613,1.89706,0.0311007,86.4556,0.1989696,
2,1,0,1,0,32721.4,0.203329,0.202969,71.7352,17,0.0113554,10,0.01456,-1.14427,2.80924,0.0210021,58.612,0.202969,
2,1,0,1,0,32721.4,0.207324,0.206954,71.9212,17,0.0116427,10,0.0148844,-1.14314,5.08092,0.0116121,32.4875,0.206954,
2,1,0,1,0,32721.4,0.211319,0.210998,71.9804,17,0.0119305,10,0.0151877,-1.14279,74.7417,0.000789385,2.21051,0.210998,
2,1,0,1,0,32721.4,0.215314,0.214974,71.9477,17,0.0122184,10,0.0154669,-1.14298,-5.86455,-0.0100604,-28.1497,0.214974,
2,1,0,1,0,32721.4,0.219309,0.218953,71.7705,17,0.0125059,10,0.0157144,-1.14405,-2.84537,-0.0207354,-57.8746,0.218953,
2,1,0,1,0,32721.4,0.223305,0.222959,71.4707,17,0.0127924,10,0.015935,-1.14587,-1.86815,-0.031582,-87.8074,0.222959,
2,1,0,1,0,32721.4,0.227314,0.226961,71.0565,17,0.0130774,10,0.0161271,-1.1484,-1.37994,-0.0427554,-118.17,0.226961,
2,1,0,1,0,32721.4,0.231345,0.231027,70.5382,17,0.0133606,10,0.0162962,-1.15158,-1.08879,-0.0541887,-148.611,0.231027,
2,1,0,1,0,32721.4,0.23534,0.234981,69.8765,17,0.0136414,10,0.0164196,-1.15567,-0.899164,-0.0656165,-178.263,0.234981,
2,1,0,1,0,32721.4,0.239335,0.239011,69.0852,17,0.0139193,10,0.0165121,-1.16061,-0.758268,-0.0778089,-209.082,0.239011,
2,1,0,1,0,32721.4,0.24333,0.243055,68.1876,17,0.0141938,10,0.0165733,-1.16629,-0.66575,-0.0886218,-235.082,0.243055,
2,1,0,1,0,32721.4,0.247326,0.247017,67.195,17,0.0144645,10,0.0165983,-1.17266,-0.593295,-0.0994447,-259.978,0.247017,
2,1,0,1,0,32721.4,0.251321,0.251054,66.0981,17,0.014731,10,0.0165942,-1.17981,-0.540219,-0.109215,-280.966,0.251054,
2,1,0,1,0,32721.4,0.255316,0.254987,64.9318,17,0.014993,10,0.0165567,-1.18754,-0.496455,-0.118843,-300.393,0.254987,
2,1,0,1,0,32721.5,0.259311,0.259025,63.7006,17,0.0152501,10,0.0165,-1.19586,-0.463091,-0.127405,-315.966,0.259025,
2,1,0,1,0,32721.5,0.263306,0.262985,62.3982,17,0.0155022,10,0.0164098,-1.20483,-0.445164,-0.132535,-322.291,0.262985,
2,1,0,1,0,32721.5,0.267302,0.266995,61.0612,17,0.015749,10,0.016303,-1.21423,-0.42046,-0.140322,-334.035,0.266995,
2,1,0,1,0,32721.5,0.271347,0.271039,59.7583,17,0.0159905,10,0.0161968,-1.2236,-0.40948,-0.144085,-335.498,0.271039,
2,1,0,1,0,32721.5,0.275342,0.274986,58.369,17,0.0162266,10,0.0160507,-1.23382,-0.397894,-0.148281,-337.446,0.274986,
2,1,0,1,0,32721.5,0.279337,0.279047,57.0094,17,0.0164572,10,0.0159083,-1.24405,-0.385723,-0.152959,-340.219,0.279047,
2,1,0,1,0,32721.5,0.283332,0.283042,55.6462,17,0.0166824,10,0.0157502,-1.25456,-0.383438,-0.153871,-334.208,0.283042,
2,1,0,1,0,32721.5,0.287327,0.287043,54.3135,17,0.0169022,10,0.0155903,-1.26509,-0.381159,-0.154791,-328.315,0.287043,
2,1,0,1,0,32721.5,0.291322,0.290978,53.0244,17,0.0171167,10,0.0154289,-1.27552,-0.385327,-0.153117,-317.402,0.290978,
2,1,0,1,0,32721.5,0.295318,0.295005,51.7701,17,0.0173262,10,0.0152725,-1.28592,-0.38513,-0.153195,-312.753,0.295005,
2,1,0,1,0,32721.5,0.299013,0.298741,50.6632,17,0.0175157,10,0.0151352,-1.29531,-0.144682,-0.407791,-794.665,0.298741,
2,1,0,0,0,32721.5,0.300012,0.299689,50.3583,17,0.0175662,10,0.0150918,-1.29793,0.0037314,15.8118,27793.6,0.2996892,
2,1,0,1,0,32721.5,0.298714,0.298605,46.963,17,0.0176281,10,0.0140234,-1.32824,0.043605,1.35305,2169.1,0.298605,
2,1,0,1,0,32721.5,0.294718,0.294543,38.9206,17,0.0177983,10,0.0114638,-1.40982,0.0504254,1.17005,1727.62,0.294543,
2,1,0,1,0,32721.5,0.290723,0.290499,32.7842,17,0.0179408,10,0.00952376,-1.48434,0.0521415,1.13154,1483.24,0.290499,
2,1,0,1,0,32721.5,0.286728,0.286505,27.5812,17,0.0180608,10,0.00790215,-1.55939,0.0515501,1.14452,1241.09,0.286505,
2,1,0,1,0,32721.5,0.282733,0.28247,23.0307,17,0.0181614,10,0.00650549,-1.63769,0.0487753,1.20963,1085.83,0.28247,
2,1,0,1,0,32721.5,0.278738,0.278499,19.0086,17,0.0182449,10,0.00529386,-1.72105,0.0448963,1.31414,964.693,0.278499,
2,1,0,1,0,32721.5,0.274742,0.274479,15.3896,17,0.0183133,10,0.00422413,-1.81277,0.0400076,1.47472,865.145,0.274479,
2,1,0,1,0,32721.5,0.270747,0.270489,12.1303,17,0.0183679,10,0.00328111,-1.91613,0.0343994,1.71514,779.232,0.270489,
2,1,0,1,0,32721.5,0.266702,0.266417,9.14211,17,0.01841,10,0.00243561,-2.03895,0.0274768,2.14727,710.883,0.266417,
2,1,0,1,0,32721.5,0.262707,0.26242,6.47933,17,0.018441,10,0.00170031,-2.18847,0.0193451,3.04987,643.019,0.26242,
2,1,0,1,0,32721.5,0.258712,0.258508,4.0363,17,0.0184617,10,0.00104342,-2.39402,0.010401,5.67251,588.292,0.258508,
2,1,0,1,0,32721.5,0.254717,0.254406,1.78849,17,0.0184731,10,0.000455002,-2.74751,0.0333081,1.77134,539.697,0.2544055,
2,1,0,1,0,32721.5,0.250722,0.250426,-0.265222,17,0.0184759,10,-6.64184e-05,-3.57639,1.07816,0.0547227,494.481,0.250426,
2,0,0,1,0,32721.5,0.246726,0.246438,-2.14632,17,0.0184708,10,-0.000528934,-2.66831,-0.0327051,-1.804,456.726,0.246438,
2,0,0,1,0,32721.6,0.242731,0.242458,-3.90029,17,0.0184585,10,-0.000945655,-2.4089,-0.0112046,-5.2657,423.124,0.242458,
2,0,0,1,0,32721.6,0.238736,0.238436,-5.50528,17,0.0184395,10,-0.00131266,-2.25922,-0.0270041,-2.18486,391.047,0.238436,
2,0,0,1,0,32721.6,0.234741,0.234494,-7.00624,17,0.0184143,10,-0.00164292,-2.15451,-0.0401832,-1.46827,366.168,0.234494,
2,0,0,1,0,32721.6,0.230746,0.230423,-8.40866,17,0.0183833,10,-0.00193755,-2.07527,-0.0535515,-1.10174,340.533,0.230423,
2,0,0,1,0,32721.6,0.226701,0.226443,-9.76457,17,0.0183468,10,-0.00221111,-2.01035,-0.0678096,-0.870083,316.39,0.226443,
2,0,0,1,0,32721.6,0.222705,0.222434,-10.9543,17,0.0183053,10,-0.00243662,-1.96041,-0.0823173,-0.716739,296.674,0.222434,
2,0,0,1,0,32721.6,0.21871,0.218431,-12.0884,17,0.018259,10,-0.00264049,-1.91763,-0.0991859,-0.594842,274.676,0.218431,
2,0,0,1,0,32721.6,0.214715,0.21442,-13.1565,17,0.0182084,10,-0.00282102,-1.88086,-0.114242,-0.516446,260.619,0.21442,
2,0,0,1,0,32721.6,0.21072,0.210395,-14.1723,17,0.0181536,10,-0.0029818,-1.84856,-0.130815,-0.451017,245.785,0.210395,
2,0,0,1,0,32721.6,0.206725,0.206407,-15.1313,17,0.018095,10,-0.0031232,-1.82012,-0.147657,-0.399576,233.06,0.206407,
2,0,0,1,0,32721.6,0.20273,0.202421,-16.0234,17,0.0180325,10,-0.00324348,-1.79524,-0.164686,-0.358258,222.006,0.202421,
2,0,0,1,0,32721.6,0.198734,0.198403,-16.8893,17,0.0179666,10,-0.00335089,-1.77239,-0.182397,-0.32347,211.624,0.198403,
2,0,0,1,0,32721.6,0.194739,0.194433,-17.7161,17,0.0178973,10,-0.00344459,-1.75163,-0.198093,-0.297839,204.701,0.194433,
2,0,0,1,0,32721.6,0.190744,0.190445,-18.5093,17,0.0178248,10,-0.003525,-1.73261,-0.214135,-0.275527,198.186,0.190445,
2,0,0,1,0,32721.6,0.186735,0.186419,-19.2992,17,0.0177491,10,-0.00359773,-1.71446,-0.230991,-0.255421,191.491,0.186419,
2,0,0,1,0,32721.6,0.182704,0.182388,-20.0633,17,0.0176702,10,-0.00365931,-1.6976,-0.246238,-0.239606,186.757,0.182388,
2,0,0,1,0,32721.6,0.178709,0.178403,-20.7857,17,0.0175884,10,-0.00370823,-1.68224,-0.262812,-0.224495,181.542,0.178403,
2,0,0,1,0,32721.6,0.174713,0.174381,-21.5094,17,0.0175038,10,-0.00375082,-1.66737,-0.2754,-0.214234,179.496,0.174381,
2,0,0,1,0,32721.6,0.170718,0.170382,-22.2105,17,0.0174163,10,-0.00378427,-1.65344,-0.285073,-0.206964,179.199,0.1703821,
2,0,0,1,0,32721.6,0.166723,0.166373,-22.938,17,0.0173259,10,-0.00381626,-1.63944,-0.292224,-0.2019,180.601,0.166373,
2,0,0,1,0,32721.6,0.162728,0.162433,-23.6474,17,0.0172327,10,-0.00384113,-1.62622,-0.293879,-0.200763,185.38,0.162433,
2,0,0,1,0,32721.6,0.158733,0.158421,-24.3918,17,0.0171365,10,-0.00386416,-1.61276,-0.294988,-0.200008,190.654,0.158421,
2,0,0,1,0,32721.6,0.154737,0.15441,-25.1713,17,0.0170373,10,-0.00388671,-1.59909,-0.290059,-0.203407,200.148,0.15441,
2,0,0,1,0,32721.6,0.150742,0.150444,-25.9748,17,0.016935,10,-0.00390776,-1.58545,-0.280447,-0.210378,214.005,0.150444,
2,0,0,1,0,32721.6,0.146747,0.146453,-26.8459,17,0.0168293,10,-0.00393166,-1.57112,-0.274019,-0.215314,226.378,0.146453,
2,0,0,1,0,32721.7,0.142702,0.142433,-27.8132,17,0.0167199,10,-0.00396152,-1.55575,-0.264012,-0.223475,243.136,0.142433,
2,0,0,1,0,32721.7,0.138707,0.138426,-28.7899,17,0.0166066,10,-0.00398526,-1.54076,-0.254436,-0.231886,261.428,0.138426,
2,0,0,1,0,32721.7,0.134712,0.134418,-29.8713,17,0.0164892,10,-0.00401525,-1.52475,-0.246219,-0.239624,280.588,0.134418,
2,0,0,1,0,32721.7,0.130717,0.130445,-31.0308,17,0.0163673,10,-0.00404781,-1.50821,-0.235046,-0.251015,305.316,0.130445,
2,0,0,1,0,32721.7,0.126721,0.12642,-32.3064,17,0.0162405,10,-0.00408416,-1.49071,-0.226866,-0.260066,329.136,0.12642,
2,0,0,1,0,32721.7,0.122726,0.122441,-33.6703,17,0.0161084,10,-0.00412262,-1.47275,-0.220227,-0.267906,353.155,0.122441,
2,0,0,1,0,32721.7,0.118731,0.118448,-35.1278,17,0.0159707,10,-0.00416081,-1.45435,-0.216657,-0.272319,374.171,0.118448,
2,0,0,1,0,32721.7,0.114736,0.114448,-36.6803,17,0.015827,10,-0.00419798,-1.43557,-0.217291,-0.271526,388.787,0.114448,
2,0,0,1,0,32721.7,0.110741,0.110465,-38.2762,17,0.0156769,10,-0.00422818,-1.41707,-0.218468,-0.270062,403.372,0.110465,
2,0,0,1,0,32721.7,0.106745,0.106461,-39.8832,17,0.0155204,10,-0.004246,-1.39921,-0.223806,-0.263621,410.253,0.106461,
2,0,0,1,0,32721.7,0.102703,0.102408,-41.5978,17,0.0153574,10,-0.00425994,-1.38093,-0.232454,-0.253813,410.956,0.102408,
2,0,0,1,0,32721.7,0.0987052,0.0984303,-43.2515,17,0.0151875,10,-0.00425726,-1.364,-0.24106,-0.244752,411.637,0.0984303,
2,0,0,1,0,32721.7,0.09471,0.0944114,-44.8735,17,0.0150111,10,-0.00423657,-1.34801,-0.257033,-0.229542,400.647,0.0944114,
2,0,0,1,0,32721.7,0.0907148,0.0904486,-46.4744,17,0.0148282,10,-0.00420355,-1.33279,-0.272094,-0.216837,391.836,0.09044864,
2,0,0,1,0,32721.7,0.0867197,0.0864234,-48.002,17,0.0146391,10,-0.00414849,-1.31874,-0.291246,-0.202578,378.098,0.0864234,
2,0,0,1,0,32721.7,0.0827245,0.0824977,-49.4945,17,0.014444,10,-0.00408318,-1.30544,-0.317331,-0.185926,357.474,0.0824977,
2,0,0,1,0,32721.7,0.0787293,0.0784682,-50.9016,17,0.014243,10,-0.00399415,-1.29327,-0.337754,-0.174683,345.631,0.0784682,
2,0,0,1,0,32721.7,0.0747342,0.0745277,-52.1657,17,0.0140367,10,-0.00388779,-1.28261,-0.367204,-0.160674,326.443,0.0745277,
2,0,0,1,0,32721.7,0.070739,0.070531,-53.4948,17,0.0138253,10,-0.00377305,-1.27169,-0.395023,-0.149358,310.907,0.07053104,
2,0,0,1,0,32721.7,0.0667438,0.0665163,-54.7115,17,0.0136087,10,-0.00363921,-1.26192,-0.423347,-0.139366,296.493,0.06651634,
2,0,0,1,0,32721.7,0.0627403,0.0625483,-55.8512,17,0.0133874,10,-0.0034934,-1.25297,-0.472087,-0.124977,271.417,0.0625483,
2,0,0,1,0,32721.7,0.0587035,0.0584647,-56.9283,17,0.0131616,10,-0.00332829,-1.24467,-0.524706,-0.112444,248.756,0.0584647,
2,0,0,1,0,32721.7,0.0547083,0.0544606,-57.8566,17,0.012932,10,-0.00315091,-1.23765,-0.586935,-0.100522,226.145,0.0544606,
2,0,0,1,0,32721.7,0.0507132,0.0504544,-58.707,17,0.0126987,10,-0.00296202,-1.23131,-0.662317,-0.0890812,203.507,0.05045436,
2,0,0,1,0,32721.7,0.046718,0.046516,-59.4768,17,0.0124623,10,-0.00276662,-1.22565,-0.730159,-0.0808044,187.128,0.046516,
2,0,0,1,0,32721.8,0.0427228,0.0425077,-60.1756,17,0.0122229,10,-0.00255793,-1.22058,-0.805191,-0.0732745,171.767,0.0425077,
2,0,0,1,0,32721.8,0.0387276,0.0384834,-60.8464,17,0.0119808,10,-0.00234158,-1.21577,-0.906243,-0.065104,154.249,0.0384834,
2,0,0,1,0,32721.8,0.0347325,0.0345196,-61.4441,17,0.0117361,10,-0.00212103,-1.21152,-1.01077,-0.0583712,139.62,0.0345196,
2,0,0,1,0,32721.8,0.0307373,0.0304318,-61.9578,17,0.0114892,10,-0.00188549,-1.2079,-1.17019,-0.0504192,121.633,0.0304318,
2,0,0,1,0,32721.8,0.0267421,0.0264563,-62.4167,17,0.0112404,10,-0.00165132,-1.2047,-1.32087,-0.0446674,108.631,0.0264563,
2,0,0,1,0,32721.8,0.022747,0.0224734,-62.7938,17,0.0109899,10,-0.00141119,-1.20208,-1.51402,-0.0389692,95.3871,0.0224734,
2,0,0,1,0,32721.8,0.0187018,0.0183909,-63.1962,17,0.0107379,10,-0.00116223,-1.19931,-1.79348,-0.0328969,80.9631,0.0183909,
2,0,0,1,0,32721.8,0.0147067,0.014391,-63.4879,17,0.0104845,10,-0.000913654,-1.19731,-2.11687,-0.0278713,68.9062,0.014391,
2,0,0,1,0,32721.8,0.0107115,0.010458,-63.712,17,0.0102301,10,-0.000666297,-1.19578,-2.74202,-0.021517,53.4267,0.01045795,
2,0,0,1,0,32721.8,0.00671632,0.00631918,-63.9069,17,0.00997477,10,-0.000403839,-1.19445,-3.42317,-0.0172355,42.9364,0.00631918,
2,0,0,1,0,32721.8,0.00272115,0.00237765,-64.0517,17,0.00971886,10,-0.000152293,-1.19347,-4.49664,-0.0131209,32.7595,0.00237765,
2,0,0,1,0,32721.8,-0.00127403,-0.0016625,-64.1772,17,0.00946232,10,0.000106694,-1.19262,-6.99542,-0.00843409,21.0906,-0.0016625,
2,0,0,1,0,32721.8,-0.0052692,-0.00561463,-64.2385,17,0.00920547,10,0.000360676,-1.1922,-15.2241,-0.00387542,9.69926,-0.00561463,
2,0,0,1,0,32721.8,-0.00926438,-0.00961555,-64.243,17,0.00894851,10,0.000617731,-1.19217,38.8645,0.00151809,-3.80047,-0.009615548,
2,0,0,1,0,32721.8,-0.0132596,-0.0136122,-64.2068,17,0.0086916,10,0.000873997,-1.19242,11.7598,0.00501711,-12.5583,-0.0136122,
2,0,0,1,0,32721.8,-0.0172547,-0.0176343,-64.1165,17,0.00843497,10,0.00113065,-1.19303,6.55304,0.00900346,-22.51,-0.0176343,
2,0,0,1,0,32721.8,-0.0212915,-0.0216745,-64.0369,17,0.00817871,10,0.00138797,-1.19357,4.36155,0.0135273,-33.7531,-0.0216745,
2,0,0,1,0,32721.8,-0.025295,-0.0256553,-63.8819,17,0.00792286,10,0.00163891,-1.19462,3.33033,0.017716,-44.0856,-0.0256553,
2,0,0,1,0,32721.8,-0.0292902,-0.0296912,-63.6641,17,0.00766779,10,0.00189026,-1.19611,2.60008,0.0226916,-56.3111,-0.0296912,
2,0,0,1,0,32721.8,-0.0332854,-0.0336454,-63.4106,17,0.00741364,10,0.00213348,-1.19784,2.21626,0.0266214,-65.8212,-0.0336454,
2,0,0,1,0,32721.8,-0.0372805,-0.0376294,-63.1384,17,0.00716057,10,0.00237586,-1.19971,2.02139,0.0291879,-71.8653,-0.0376294,
2,0,0,1,0,32721.8,-0.0412757,-0.0416632,-62.8282,17,0.00690866,10,0.00261762,-1.20185,1.87489,0.0314685,-77.1159,-0.04166317,
2,0,0,1,0,32721.8,-0.0452709,-0.0456503,-62.5172,17,0.00665799,10,0.00285393,-1.204,1.76136,0.0334969,-81.6819,-0.0456503,
2,0,0,1,0,32721.8,-0.0492661,-0.0496364,-62.1774,17,0.00640865,10,0.00308626,-1.20637,1.68287,0.0350593,-85.0317,-0.0496364,
2,0,0,1,0,32721.8,-0.0532612,-0.0536383,-61.8308,17,0.00616064,10,0.0033165,-1.2088,1.62987,0.0361993,-87.3324,-0.0536383,
2,0,0,1,0,32721.9,-0.0572564,-0.0576477,-61.4691,17,0.00591409,10,0.00354355,-1.21134,1.69217,0.0348664,-83.6903,-0.0576477,
2,0,0,1,0,32721.9,-0.0612544,-0.0616115,-61.1232,17,0.00566894,10,0.0037659,-1.21379,1.69138,0.0348828,-83.2628,-0.0616115,
2,0,0,1,0,32721.9,-0.0652967,-0.0656687,-60.8357,17,0.00542495,10,0.003995,-1.21584,1.72075,0.0342874,-81.3797,-0.0656687,
2,0,0,1,0,32721.9,-0.0692919,-0.0696622,-60.4966,17,0.00518234,10,0.00421432,-1.21827,1.75253,0.0336656,-79.469,-0.0696622,
2,0,0,1,0,32721.9,-0.0732871,-0.0736376,-60.1678,17,0.00494105,10,0.00443061,-1.22064,1.73516,0.0340027,-79.8819,-0.07363762,
2,0,0,1,0,32721.9,-0.0772822,-0.0776194,-59.8511,17,0.00470104,10,0.00464561,-1.22293,1.85031,0.0318865,-74.5393,-0.0776194,
2,0,0,1,0,32721.9,-0.0812774,-0.0816151,-59.5619,17,0.00446226,10,0.00486115,-1.22503,2.00559,0.0294177,-68.4472,-0.0816151,
2,0,0,1,0,32721.9,-0.0852726,-0.0856626,-59.3039,17,0.00422455,10,0.00508013,-1.22692,2.19286,0.0269055,-62.3201,-0.0856626,
2,0,0,1,0,32721.9,-0.0892678,-0.0896328,-59.073,17,0.00398782,10,0.00529488,-1.22861,2.38206,0.0247685,-57.1313,-0.0896328,
2,0,0,1,0,32721.9,-0.0932629,-0.0936433,-58.8525,17,0.00375201,10,0.00551114,-1.23024,2.69129,0.0219226,-50.3928,-0.0936433,
2,0,0,1,0,32721.9,-0.0972581,-0.0976346,-58.6467,17,0.00351702,10,0.00572594,-1.23176,3.3215,0.0177631,-40.725,-0.0976346,
2,0,0,1,0,32721.9,-0.101253,-0.101669,-58.4973,17,0.00328276,10,0.00594739,-1.23286,3.90824,0.0150963,-34.5101,-0.101669,
2,0,0,1,0,32721.9,-0.105298,-0.105651,-58.4206,17,0.00304897,10,0.00617222,-1.23343,4.86249,0.0121337,-27.6665,-0.105651,
2,0,0,1,0,32721.9,-0.109294,-0.109708,-58.2981,17,0.00281555,10,0.00639579,-1.23435,5.73089,0.0102951,-23.4281,-0.109708,
2,0,0,1,0,32721.9,-0.113289,-0.113654,-58.2035,17,0.00258257,10,0.00661507,-1.23505,6.38013,0.00924746,-21.0233,-0.1136542,
2,0,0,1,0,32721.9,-0.117284,-0.11764,-58.1231,17,0.00234993,10,0.00683762,-1.23565,9.36799,0.00629804,-14.3013,-0.11764,
2,0,0,1,0,32721.9,-0.121279,-0.121625,-58.0848,17,0.00211753,10,0.00706458,-1.23594,16.7346,0.00352563,-7.99965,-0.121625,
2,0,0,1,0,32721.9,-0.125274,-0.125625,-58.0704,17,0.00188524,10,0.00729511,-1.23604,229.531,0.000257046,-0.583026,-0.125625,
2,0,0,1,0,32721.9,-0.129269,-0.12964,-58.0756,17,0.00165292,10,0.00752891,-1.23601,-34.224,-0.00172394,3.91004,-0.12964,
2,0,0,1,0,32721.9,-0.133265,-0.133638,-58.1138,17,0.00142054,10,0.00776619,-1.23572,-15.0364,-0.00392382,8.90349,-0.133638,
2,0,0,1,0,32721.9,-0.13726,-0.13762,-58.1473,17,0.00118802,10,0.00800226,-1.23547,-7.62116,-0.00774161,17.589,-0.13762,
2,0,0,1,0,32721.9,-0.141255,-0.141615,-58.2128,17,0.000955277,10,0.00824381,-1.23498,-6.52603,-0.00904072,20.5625,-0.141615,
2,0,0,1,0,32721.9,-0.145286,-0.145673,-58.3576,17,0.000722195,10,0.00850113,-1.2339,-5.25194,-0.0112339,25.5829,-0.145673,
2,0,0,1,0,32721.9,-0.149295,-0.149686,-58.4438,17,0.00048855,10,0.0087482,-1.23326,-4.90116,-0.012038,27.4517,-0.149686,
2,0,0,1,0,32721.9,-0.15329,-0.153623,-58.5567,17,0.000254542,10,0.00899567,-1.23242,-5.1484,-0.0114599,26.1934,-0.153623,
2,0,0,1,0,32722,-0.157286,-0.157626,-58.6523,17,2.01296e-05,10,0.00924514,-1.23171,-4.44174,-0.0132831,30.4223,-0.157626,
2,0,0,1,0,32722,-0.161281,-0.161639,-58.7758,17,-0.000214742,10,0.00950044,-1.2308,-4.28804,-0.0137592,31.5791,-0.161639,
2,0,0,1,0,32722,-0.165276,-0.165587,-58.9275,17,-0.000450156,10,0.00975761,-1.22968,-3.95609,-0.0149137,34.2967,-0.165587,
2,0,0,1,0,32722,-0.169271,-0.169618,-59.0618,17,-0.000686141,10,0.010018,-1.22869,-3.82481,-0.0154256,35.5541,-0.169618,
2,0,0,1,0,32722,-0.173266,-0.173579,-59.1995,17,-0.000922682,10,0.0102758,-1.22768,-3.93254,-0.015003,34.6654,-0.173579,
2,0,0,1,0,32722,-0.177261,-0.177583,-59.3427,17,-0.00115977,10,0.0105382,-1.22663,-3.72022,-0.0158593,36.7367,-0.177583,
2,0,0,1,0,32722,-0.181257,-0.181583,-59.4821,17,-0.00139744,10,0.0108009,-1.22561,-3.37711,-0.0174706,40.5849,-0.181583,
2,0,0,1,0,32722,-0.185252,-0.185576,-59.6481,17,-0.0016357,10,0.0110693,-1.2244,-3.38936,-0.0174074,40.5349,-0.1855763,
2,0,0,1,0,32722,-0.189297,-0.189615,-59.8503,17,-0.00187479,10,0.0113485,-1.22293,-3.36081,-0.0175553,40.9778,-0.189615,
2,0,0,1,0,32722,-0.193292,-0.193597,-59.9918,17,-0.00211451,10,0.0116142,-1.22191,-3.49447,-0.0168838,39.4951,-0.193597,
2,0,0,1,0,32722,-0.197287,-0.197645,-60.1402,17,-0.00235477,10,0.0118864,-1.22083,-80.9716,-0.00072865,1.70222,-0.197645,
2,0,0,0,0,32722,-0.199984,-0.200322,-60.2305,17,-0.00251727,10,0.0120655,-1.22018,0.0583183,1.01169,-2208.69,-0.200322,
2,0,0,0,1,32722,-0.199984,-0.200532,-59.8689,17,-0.00255324,10,0.0120056,-1.2228,-0.0367268,-1.60646,3287.03,-0.200532,
2,0,0,1,1,32722,-0.196688,-0.197181,-52.0755,17,-0.00272349,10,0.0102683,-1.28337,-0.0630154,-0.936279,1806.15,-0.1971814,
2,0,0,1,1,32722,-0.192693,-0.193162,-45.4066,17,-0.00291732,10,0.00877085,-1.34288,-0.0672007,-0.877967,1593.54,-0.193162,
2,0,0,1,1,32722,-0.188698,-0.189123,-40.0036,17,-0.00308735,10,0.00756563,-1.3979,-0.0723567,-0.815404,1296.66,-0.189123,
2,0,0,1,1,32722,-0.184653,-0.185114,-35.2992,17,-0.00323735,10,0.00653438,-1.45223,-0.0736585,-0.800994,1115.94,-0.185114,
2,0,0,1,1,32722,-0.180657,-0.181077,-31.1934,17,-0.0033698,10,0.00564841,-1.50594,-0.0726617,-0.811982,994.144,-0.181077,
2,0,0,1,1,32722,-0.176662,-0.177102,-27.4836,17,-0.0034867,10,0.00486739,-1.56093,-0.0705215,-0.836625,897.384,-0.177102,
2,0,0,1,1,32722,-0.172667,-0.173107,-24.081,17,-0.0035894,10,0.0041686,-1.61832,-0.0666794,-0.884831,827.552,-0.173107,
2,0,0,1,1,32722,-0.168672,-0.169088,-20.9178,17,-0.00367902,10,0.00353695,-1.67948,-0.0619301,-0.952687,770.328,-0.169088,
2,0,0,1,1,32722,-0.164677,-0.165073,-17.9496,17,-0.00375642,10,0.002963,-1.74595,-0.0564658,-1.04488,721.397,-0.165073,
2,0,0,1,1,32722,-0.160681,-0.161113,-15.167,17,-0.00382233,10,0.00244359,-1.8191,-0.0502417,-1.17432,679.754,-0.161113,
2,0,0,1,1,32722,-0.156686,-0.157116,-12.5452,17,-0.00387746,10,0.00197106,-1.90152,-0.0432474,-1.36424,643.995,-0.157116,
2,0,0,1,1,32722,-0.152691,-0.153114,-10.0594,17,-0.00392238,10,0.00154024,-1.99743,-0.0353743,-1.66788,614.001,-0.153114,
2,0,0,1,1,32722,-0.148696,-0.149124,-7.67814,17,-0.00395758,10,0.00114499,-2.11474,-0.0268063,-2.20098,586.4,-0.149124,
2,0,0,1,1,32722,-0.14467,-0.14515,-5.36609,17,-0.00398345,10,0.00077889,-2.27034,-0.0167332,-3.52593,558.244,-0.14515,
2,0,0,1,1,32722.1,-0.140656,-0.141152,-3.18369,17,-0.00400028,10,0.000449383,-2.49707,-0.0170078,-3.46901,535.605,-0.141152,
2,0,0,1,1,32722.1,-0.136661,-0.137078,-1.10715,17,-0.00400863,10,0.000151766,-2.95579,-0.0570381,-1.0344,511.081,-0.137078,
2,1,0,1,1,32722.1,-0.132665,-0.133141,0.882144,17,-0.00400887,10,-0.00011745,-3.05446,0.0950476,0.620742,492.008,-0.133141,
2,1,0,1,1,32722.1,-0.12867,-0.129148,2.81254,17,-0.00400126,10,-0.000363233,-2.5509,0.0206789,2.85315,478.355,-0.129148,
2,1,0,1,1,32722.1,-0.124675,-0.125145,4.6918,17,-0.00398605,10,-0.000587154,-2.32866,0.0164521,3.58617,460.858,-0.125145,
2,1,0,1,1,32722.1,-0.12068,-0.121195,6.49046,17,-0.0039635,10,-0.00078661,-2.18772,0.0290867,2.02842,446.958,-0.121195,
2,1,0,1,1,32722.1,-0.116685,-0.117177,8.23948,17,-0.00393383,10,-0.000965476,-2.0841,0.0405882,1.45362,433.102,-0.117177,
2,1,0,1,1,32722.1,-0.112689,-0.113198,9.94132,17,-0.0038973,10,-0.00112534,-2.00256,0.0517191,1.14078,421.544,-0.113198,
2,1,0,1,1,32722.1,-0.108694,-0.109178,11.6069,17,-0.00385401,10,-0.00126723,-1.93528,0.0626782,0.941317,412.462,-0.109178,
2,1,0,1,1,32722.1,-0.104699,-0.105178,13.2421,17,-0.00380414,10,-0.00139278,-1.87804,0.0740131,0.797156,401.25,-0.105178,
2,1,0,1,1,32722.1,-0.100654,-0.101118,14.8631,17,-0.0037477,10,-0.00150293,-1.82789,0.0858602,0.687164,389.315,-0.101118,
2,1,0,1,1,32722.1,-0.0966588,-0.0971299,16.3887,17,-0.00368501,10,-0.00159184,-1.78545,0.097783,0.603377,379.018,-0.0971299,
2,1,0,1,1,32722.1,-0.0926636,-0.0930728,17.8771,17,-0.00361633,10,-0.00166387,-1.7477,0.110751,0.532724,366.929,-0.0930728,
2,1,0,1,1,32722.1,-0.0886685,-0.08911,19.3323,17,-0.00354175,10,-0.0017227,-1.71372,0.122861,0.480218,358.261,-0.08911,
2,1,0,1,1,32722.1,-0.0846733,-0.0850402,20.7626,17,-0.00346139,10,-0.00176565,-1.68272,0.135202,0.436385,349.889,-0.0850402,
2,1,0,1,1,32722.1,-0.0806781,-0.0811039,22.1302,17,-0.00337546,10,-0.00179485,-1.65501,0.148377,0.397636,340.506,-0.0811039,
2,1,0,1,1,32722.1,-0.076683,-0.077102,23.4651,17,-0.0032841,10,-0.0018092,-1.62958,0.161498,0.365331,332.235,-0.077102,
2,1,0,1,1,32722.1,-0.0726878,-0.0731212,24.7766,17,-0.00318748,10,-0.00181169,-1.60596,0.175553,0.336082,322.931,-0.07312119,
2,1,0,1,1,32722.1,-0.0686926,-0.0691532,26.0408,17,-0.0030857,10,-0.0018008,-1.58435,0.187021,0.315473,319.324,-0.06915316,
2,1,0,1,1,32722.1,-0.0646974,-0.0651215,27.2914,17,-0.00297889,10,-0.00177726,-1.56397,0.203227,0.290316,307.838,-0.0651215,
2,1,0,1,1,32722.1,-0.0606523,-0.0610994,28.5751,17,-0.00286708,10,-0.00174592,-1.54401,0.21799,0.270655,299.81,-0.0610994,
2,1,0,1,1,32722.1,-0.0566571,-0.0570868,29.7125,17,-0.00275038,10,-0.00169619,-1.52706,0.233556,0.252616,291.495,-0.0570868,
2,1,0,1,1,32722.1,-0.052662,-0.05307,30.8627,17,-0.00262912,10,-0.00163788,-1.51057,0.253154,0.23306,279.789,-0.05307,
2,1,0,1,1,32722.1,-0.0486668,-0.049086,31.9657,17,-0.00250335,10,-0.00156907,-1.49532,0.2673,0.220726,274.425,-0.049086,
2,1,0,1,1,32722.1,-0.0446716,-0.0450862,33.0554,17,-0.00237319,10,-0.00149034,-1.48076,0.28462,0.207294,266.531,-0.0450862,
2,1,0,1,1,32722.2,-0.0406764,-0.0410895,34.1026,17,-0.00223875,10,-0.00140126,-1.46721,0.303733,0.19425,257.67,-0.0410895,
2,1,0,1,1,32722.2,-0.0366813,-0.037096,35.1202,17,-0.0021002,10,-0.00130282,-1.45444,0.322474,0.18296,250.024,-0.037096,
2,1,0,1,1,32722.2,-0.0326861,-0.0330558,36.0962,17,-0.00195765,10,-0.00119319,-1.44254,0.341441,0.172797,242.837,-0.0330558,
2,1,0,1,1,32722.2,-0.0286909,-0.0291026,37.0516,17,-0.00181124,10,-0.0010783,-1.43119,0.359569,0.164085,236.823,-0.0291026,
2,1,0,1,1,32722.2,-0.0246957,-0.0250986,37.9858,17,-0.00166105,10,-0.000953389,-1.42038,0.378665,0.155811,230.511,-0.0250986,
2,1,0,1,1,32722.2,-0.0206756,-0.0210998,38.9085,17,-0.0015072,10,-0.00082096,-1.40996,0.403231,0.146318,221.543,-0.0210998,
2,1,0,1,1,32722.2,-0.0166554,-0.0170766,39.7796,17,-0.00134968,10,-0.000679299,-1.40034,0.430282,0.137119,212.265,-0.0170766,
2,1,0,1,1,32722.2,-0.0126603,-0.0131032,40.5962,17,-0.00118883,10,-0.000531941,-1.39151,0.459672,0.128352,202.948,-0.0131032,
2,1,0,1,1,32722.2,-0.0086651,-0.00903869,41.3948,17,-0.00102476,10,-0.000374154,-1.38305,0.48597,0.121407,195.671,-0.00903869,
2,1,0,1,1,32722.2,-0.00466992,-0.00505262,42.1652,17,-0.000857551,10,-0.000213045,-1.37505, , , ,-0.00505262,
2,1,0,1,1,32722.2,-0.000974387,-0.00137035,42.8528,17,-0.000700228,10,-5.87236e-05,-1.36802, , , ,-0.00137035,
2,1,0,0,1,32722.2,-0.000175352,-0.000573459,42.9835,17,-0.00066591,10,-2.46493e-05,-1.3667, , , ,-0.000573459,