File: Figure_codes/Fig_S3_S4/20221101_1-115_002_TrumpetPlot_ParaChange_14_CV_C01_1.csv
mode,ox/red,error,control changes,counter inc.,time/s,control/V,Ewe/V,<I>/mA,cycle number,(Q-Qo)/C,I Range,P/W,log(|I|),Tafel slope mV/dec,alpha_eff,E-IR/V,
2,1,0,1,0,2447.92,2.44065e-05,-0.000840681,21.7769,2,0.0000000E+000,10,-1.83075e-05,-1.662, , ,-0.0182622,
2,1,0,1,0,2447.92,0.00188327,0.00147101,22.8564,2,7.01901e-05,10,3.36219e-05,-1.64099, , ,-0.0168141,
2,1,0,1,0,2447.93,0.00428592,0.00398523,23.9596,2,0.00016395,10,9.54847e-05,-1.62052, , ,-0.0151825,
2,1,0,1,0,2447.93,0.0066858,0.00633721,24.9673,2,0.000261935,10,0.000158223,-1.60263,0.0970999,0.607622,-0.0136367,
2,1,0,1,0,2447.94,0.00908291,0.00872419,25.8951,2,0.000363781,10,0.000225914,-1.58678,0.115261,0.511881,-0.0119919,
2,1,0,1,0,2447.94,0.01148,0.0111387,26.7161,2,0.000469106,10,0.000297583,-1.57323,0.138828,0.424986,-0.0102341,
2,1,0,1,0,2447.94,0.0138882,0.013566,27.4427,2,0.000577506,10,0.000372288,-1.56157,0.172358,0.34231,-0.00838818,
2,1,0,1,0,2447.95,0.0162853,0.0159551,28.0949,2,0.000688672,10,0.000448258,-1.55137,0.210422,0.280389,-0.00652086,
2,1,0,1,0,2447.95,0.0186824,0.0183643,28.6115,2,0.000802167,10,0.000525431,-1.54346,0.261264,0.225825,-0.00452487,
2,1,0,1,0,2447.96,0.0210878,0.0207481,29.0725,2,0.000917583,10,0.000603199,-1.53652,0.333894,0.176703,-0.00250983,
2,1,0,1,0,2447.96,0.023485,0.0232019,29.4544,2,0.0010347,10,0.000683397,-1.53085,0.407354,0.144837,-0.000361573,
2,1,0,1,0,2447.96,0.0258821,0.0255539,29.7455,2,0.00115315,10,0.000760114,-1.52658,0.499356,0.118152,0.00175748,
2,1,0,1,0,2447.97,0.0282792,0.0279928,30.02,2,0.00127272,10,0.000840346,-1.52259,0.62956,0.0937163,0.00397681,
2,1,0,1,0,2447.97,0.0306874,0.0303862,30.2607,2,0.00139336,10,0.000919507,-1.51912,0.773274,0.076299,0.00617761,
2,1,0,1,0,2447.98,0.0330845,0.0327594,30.4164,2,0.00151473,10,0.000996423,-1.51689,0.972421,0.0606733,0.00842622,
2,1,0,1,0,2447.98,0.0354816,0.0351781,30.5516,2,0.00163669,10,0.00107475,-1.51497,1.24343,0.0474492,0.0107369,
2,1,0,1,0,2447.98,0.0378898,0.0375556,30.6698,2,0.00175916,10,0.00115182,-1.51329,1.42781,0.0413219,0.0130198,
2,1,0,1,0,2447.99,0.0402869,0.0399659,30.7787,2,0.00188206,10,0.0012301,-1.51175,1.75786,0.0335635,0.0153429,
2,1,0,1,0,2447.99,0.042684,0.0423582,30.8727,2,0.0020054,10,0.00130771,-1.51042,1.95469,0.0301838,0.01766,
2,1,0,1,0,2448,0.0450811,0.0448109,30.9273,2,0.002129,10,0.00138588,-1.50966,2.2287,0.0264729,0.020069,
2,1,0,1,0,2448,0.0474865,0.0471427,31.0082,2,0.00225289,10,0.00146181,-1.50852,2.55015,0.0231359,0.0223361,
2,1,0,1,0,2448,0.0498836,0.0495594,31.0776,2,0.00237707,10,0.00154019,-1.50755,2.02398,0.0291505,0.0246973,
2,1,0,1,0,2448.01,0.0522807,0.0519633,31.1357,2,0.00250149,10,0.00161792,-1.50674,2.10009,0.028094,0.0270547,
2,1,0,1,0,2448.01,0.0546889,0.0543715,31.2562,2,0.00262626,10,0.00169945,-1.50506,1.92397,0.0306657,0.0293665,
2,1,0,1,0,2448.02,0.057086,0.056732,31.3272,2,0.00275145,10,0.00177725,-1.50408,1.60463,0.0367686,0.0316702,
2,1,0,1,0,2448.02,0.0594831,0.0592133,31.4282,2,0.00287695,10,0.00186097,-1.50268,1.44749,0.0407603,0.0340708,
2,1,0,1,0,2448.02,0.061883,0.06156,31.5524,2,0.00300291,10,0.00194236,-1.50097,1.1556,0.0510556,0.0363181,
2,1,0,1,0,2448.03,0.0642857,0.0639374,31.7169,2,0.00312948,10,0.00202789,-1.49871,0.976981,0.0603901,0.0385639,
2,1,0,1,0,2448.03,0.0666828,0.0663764,31.9056,2,0.00325674,10,0.00211778,-1.49613,0.828637,0.0712013,0.0408519,
2,1,0,1,0,2448.04,0.0690799,0.0687633,32.1027,2,0.00338476,10,0.00220749,-1.49346,0.734349,0.0803432,0.0430812,
2,1,0,1,0,2448.04,0.0714881,0.0711418,32.3466,2,0.00351367,10,0.0023012,-1.49017,0.653064,0.0903434,0.0452645,
2,1,0,1,0,2448.04,0.0738852,0.0735437,32.6133,2,0.00364361,10,0.0023985,-1.48661,0.5805,0.101637,0.047453,
2,1,0,1,0,2448.05,0.0762823,0.0759391,32.9066,2,0.00377467,10,0.0024989,-1.48272,0.527946,0.111754,0.0496138,
2,1,0,1,0,2448.05,0.0786849,0.0783558,33.2288,2,0.00390696,10,0.00260367,-1.47849,0.49218,0.119875,0.0517727,
2,1,0,1,0,2448.06,0.0810876,0.0807417,33.5843,2,0.00404065,10,0.00271165,-1.47386,0.461716,0.127784,0.0538742,
2,1,0,1,0,2448.06,0.0834847,0.0831181,33.9386,2,0.00417573,10,0.00282091,-1.46931,0.420233,0.140398,0.0559672,
2,1,0,1,0,2448.06,0.0858818,0.0855549,34.3279,2,0.00431231,10,0.00293692,-1.46435,0.38687,0.152506,0.0580926,
2,1,0,1,0,2448.07,0.0882872,0.0878888,34.7742,2,0.00445057,10,0.00305627,-1.45874,0.348525,0.169285,0.0600694,
2,1,0,1,0,2448.07,0.0906843,0.0902938,35.2656,2,0.00459065,10,0.00318426,-1.45265,0.31818,0.185429,0.0620814,
2,1,0,1,0,2448.08,0.0930814,0.0927359,35.8093,2,0.00473286,10,0.00332081,-1.446,0.298452,0.197686,0.0640885,
2,1,0,1,0,2448.08,0.0954841,0.0951261,36.3596,2,0.00487724,10,0.00345875,-1.43938,0.283755,0.207926,0.0660384,
2,1,0,1,0,2448.08,0.0978867,0.0975512,36.9629,2,0.00502396,10,0.00360578,-1.43223,0.275435,0.214207,0.0679809,
2,1,0,1,0,2448.09,0.100284,0.0999626,37.5761,2,0.00517309,10,0.0037562,-1.42509,0.268184,0.219998,0.0699018,
2,1,0,1,0,2448.09,0.102681,0.102316,38.1838,2,0.00532466,10,0.0039068,-1.41812,0.264564,0.223009,0.0717686,
2,1,0,1,0,2448.1,0.105086,0.104791,38.8385,2,0.00547877,10,0.00406991,-1.41074,0.258306,0.228412,0.0737199,
2,1,0,1,0,2448.1,0.107483,0.10719,39.4951,2,0.00563551,10,0.00423349,-1.40346,0.248557,0.23737,0.0755943,
2,1,0,1,0,2448.1,0.109881,0.109531,40.1712,2,0.00579488,10,0.00439998,-1.39608,0.242486,0.243313,0.0773937,
2,1,0,1,0,2448.11,0.112289,0.111947,40.9119,2,0.00595708,10,0.00457997,-1.38815,0.239025,0.246836,0.0792178,
2,1,0,1,0,2448.11,0.114686,0.114342,41.6325,2,0.00612225,10,0.00476033,-1.38057,0.23401,0.252126,0.0810357,
2,1,0,1,0,2448.12,0.117083,0.116779,42.3682,2,0.00629032,10,0.0049477,-1.37296,0.233573,0.252597,0.082884,
2,1,0,1,0,2448.12,0.11948,0.119162,43.1433,2,0.00646143,10,0.00514106,-1.36509,0.224882,0.26236,0.0846477,
2,1,0,1,0,2448.12,0.121888,0.1216,43.9358,2,0.00663568,10,0.00534261,-1.35718,0.218031,0.270604,0.0864515,
2,1,0,1,0,2448.13,0.124285,0.123945,44.769,2,0.00681318,10,0.00554888,-1.34902,0.212987,0.277012,0.0881296,
2,1,0,1,0,2448.13,0.126682,0.126371,45.6162,2,0.00699403,10,0.00576456,-1.34088,0.206625,0.285542,0.089878,
2,1,0,1,0,2448.14,0.129088,0.128739,46.4859,2,0.0071783,10,0.00598455,-1.33268,0.205874,0.286582,0.0915501,
2,1,0,1,0,2448.14,0.131485,0.131142,47.3852,2,0.00736611,10,0.00621417,-1.32436,0.196141,0.300804,0.0932336,
2,1,0,1,0,2448.14,0.133882,0.133572,48.3056,2,0.0075576,10,0.00645229,-1.316,0.189379,0.311545,0.0949277,
2,1,0,1,0,2448.15,0.136279,0.135938,49.3018,2,0.00775291,10,0.00670198,-1.30714,0.183961,0.320721,0.0964966,
2,1,0,1,0,2448.15,0.138687,0.138362,50.3355,2,0.00795231,10,0.00696452,-1.29813,0.174967,0.337207,0.0980937,
2,1,0,1,0,2448.16,0.141085,0.140763,51.3624,2,0.00815581,10,0.00722992,-1.28935,0.169603,0.347871,0.0996729,
2,1,0,1,0,2448.16,0.143482,0.143152,52.4543,2,0.00836353,10,0.00750893,-1.28022,0.163162,0.361604,0.101189,
2,1,0,1,0,2448.16,0.145887,0.145569,53.6161,2,0.00857577,10,0.00780482,-1.2707,0.154306,0.382358,0.102676,
2,1,0,1,0,2448.17,0.148284,0.147945,54.795,2,0.0087927,10,0.00810665,-1.26126,0.150829,0.391171,0.104109,
2,1,0,1,0,2448.17,0.150681,0.150314,56.0241,2,0.00901446,10,0.00842119,-1.25163,0.146222,0.403495,0.105495,
2,1,0,1,0,2448.18,0.153084,0.152765,57.2733,2,0.0092412,10,0.00874933,-1.24205,0.143441,0.411318,0.106946,
2,1,0,1,0,2448.18,0.155487,0.155157,58.5769,2,0.00947302,10,0.00908861,-1.23227,0.140515,0.419884,0.108295,
2,1,0,1,0,2448.18,0.157884,0.157583,59.9027,2,0.00971011,10,0.00943964,-1.22255,0.135819,0.4344,0.109661,
2,1,0,1,0,2448.19,0.160281,0.159966,61.266,2,0.00995258,10,0.00980046,-1.21278,0.134865,0.437476,0.110953,
2,1,0,1,0,2448.19,0.162689,0.16238,62.6624,2,0.0102006,10,0.0101751,-1.20299,0.134322,0.439242,0.11225,
2,1,0,1,0,2448.2,0.165086,0.16474,64.0341,2,0.0104541,10,0.010549,-1.19359,0.137642,0.428647,0.113512,
2,1,0,1,0,2448.2,0.167483,0.167104,65.401,2,0.0107131,10,0.0109288,-1.18442,0.140623,0.419562,0.114784,
2,1,0,1,0,2448.2,0.169886,0.169565,66.8013,2,0.0109777,10,0.0113271,-1.17522,0.146713,0.402145,0.116124,
2,1,0,1,0,2448.21,0.172286,0.171914,68.1601,2,0.0112478,10,0.0117177,-1.16647,0.154913,0.380859,0.117386,
2,1,0,1,0,2448.21,0.174683,0.17434,69.5047,2,0.0115232,10,0.0121174,-1.15799,0.164367,0.358953,0.118736,
2,1,0,1,0,2448.22,0.17708,0.17674,70.7886,2,0.011804,10,0.0125112,-1.15004,0.18217,0.323874,0.120109,
2,1,0,1,0,2448.22,0.179488,0.179125,72.0289,2,0.0120898,10,0.0129022,-1.14249,0.200295,0.294565,0.121502,
2,1,0,1,0,2448.22,0.181885,0.181577,73.193,2,0.0123803,10,0.0132901,-1.13553,0.227915,0.258869,0.123022,
2,1,0,1,0,2448.23,0.184282,0.183953,74.2868,2,0.0126754,10,0.0136653,-1.12909,0.266784,0.221153,0.124524,
2,1,0,1,0,2448.23,0.186688,0.186394,75.2667,2,0.0129746,10,0.0140293,-1.1234,0.326018,0.180972,0.126181,
2,1,0,1,0,2448.24,0.189085,0.188761,76.1038,2,0.0132775,10,0.0143654,-1.11859,0.427524,0.138004,0.127878,
2,1,0,1,0,2448.24,0.191482,0.191144,76.7509,2,0.0135834,10,0.0146705,-1.11492,0.594826,0.0991886,0.129743,
2,1,0,1,0,2448.24,0.193879,0.193566,77.2436,2,0.0138915,10,0.0149517,-1.11214,1.02336,0.0576533,0.131771,
2,1,0,1,0,2448.25,0.196287,0.195967,77.5561,2,0.0142012,10,0.0151984,-1.11038,3.01376,0.0195769,0.133922,
2,1,0,1,0,2448.25,0.198684,0.198376,77.564,2,0.0145115,10,0.0153868,-1.11034,-3.3296,-0.0177199,0.136325,
2,1,0,1,0,2448.26,0.201081,0.200742,77.2903,2,0.0148212,10,0.0155154,-1.11187,-1.09466,-0.0538982,0.138909,
2,1,0,1,0,2448.26,0.20349,0.203196,76.7082,2,0.0151292,10,0.0155868,-1.11516,-0.69399,-0.0850157,0.14183,
2,1,0,1,0,2448.26,0.205887,0.205574,75.7774,2,0.0154342,10,0.0155778,-1.12046,-0.51745,-0.114021,0.144952,
2,1,0,1,0,2448.27,0.208284,0.207994,74.5242,2,0.0157348,10,0.0155006,-1.1277,-0.415171,-0.14211,0.148374,
2,1,0,1,0,2448.27,0.210681,0.210391,72.8912,2,0.0160296,10,0.0153357,-1.13732,-0.354241,-0.166553,0.152078,
2,1,0,1,0,2448.28,0.213086,0.212751,70.8978,2,0.016317,10,0.0150835,-1.14937,-0.308649,-0.191155,0.156032,
2,1,0,1,0,2448.28,0.215484,0.215213,68.5499,2,0.0165958,10,0.0147528,-1.16399,-0.27749,-0.21262,0.160373,
2,1,0,1,0,2448.28,0.217881,0.217619,65.8683,2,0.0168644,10,0.0143342,-1.18132,-0.252774,-0.23341,0.164924,
2,1,0,1,0,2448.29,0.220289,0.220066,62.988,2,0.0171219,10,0.0138615,-1.20074,-0.230103,-0.256407,0.169676,
2,1,0,1,0,2448.29,0.222686,0.222517,59.8419,2,0.0173673,10,0.0133158,-1.22299,-0.212684,-0.277406,0.174643,
2,1,0,1,0,2448.3,0.225083,0.224863,56.5304,2,0.0175997,10,0.0127116,-1.24772,-0.196239,-0.300654,0.179638,
2,1,0,1,0,2448.3,0.227483,0.227274,53.136,2,0.0178187,10,0.0120764,-1.27461,-0.183248,-0.321968,0.184765,
2,1,0,1,0,2448.3,0.229886,0.229631,49.6978,2,0.0180241,10,0.0114122,-1.30366,-0.171894,-0.343235,0.189873,
2,1,0,1,0,2448.31,0.232283,0.232091,46.3113,2,0.0182157,10,0.0107485,-1.33431,-0.162114,-0.363941,0.195042,
2,1,0,1,0,2448.31,0.23468,0.234443,43.0195,2,0.018394,10,0.0100856,-1.36633,-0.153783,-0.383658,0.200028,
2,1,0,1,0,2448.32,0.237088,0.236873,39.8813,2,0.0185595,10,0.0094468,-1.39923,-0.145843,-0.404543,0.204968,
2,1,0,1,0,2448.32,0.239485,0.239257,36.922,2,0.0187127,10,0.00883383,-1.43271,-0.140983,-0.418489,0.209719,
2,1,0,1,0,2448.32,0.241882,0.241611,34.1939,2,0.0188546,10,0.00826161,-1.46605,-0.137073,-0.430428,0.214256,
2,1,0,1,0,2448.33,0.244285,0.24404,31.738,2,0.0189862,10,0.00774535,-1.49842,-0.135202,-0.436383,0.21865,
2,1,0,1,0,2448.33,0.246687,0.246414,29.5846,2,0.0191085,10,0.00729007,-1.52893,-0.136585,-0.431965,0.222747,
2,1,0,1,0,2448.34,0.249085,0.2488,27.6642,2,0.0192228,10,0.00688287,-1.55808,-0.139807,-0.422009,0.226669,
2,1,0,1,0,2448.34,0.251482,0.25122,26.058,2,0.01933,10,0.00654629,-1.58406,-0.146161,-0.403663,0.230374,
2,1,0,1,0,2448.34,0.253887,0.253622,24.7063,2,0.0194313,10,0.00626605,-1.60719,-0.158479,-0.37229,0.233857,
2,1,0,1,0,2448.35,0.256284,0.255992,23.5899,2,0.0195278,10,0.00603883,-1.62727,-0.17493,-0.337278,0.23712,
2,1,0,1,0,2448.35,0.258681,0.25843,22.705,2,0.0196202,10,0.00586766,-1.64388,-0.197853,-0.298201,0.240266,
2,1,0,1,0,2448.36,0.261084,0.260849,21.9946,2,0.0197095,10,0.00573726,-1.65768,-0.232255,-0.254031,0.243253,
2,1,0,1,0,2448.36,0.263487,0.263197,21.4387,2,0.0197963,10,0.00564261,-1.6688,-0.27906,-0.211424,0.246046,
2,1,0,1,0,2448.36,0.265884,0.265589,21.0155,2,0.0198811,10,0.00558147,-1.67746,-0.347979,-0.16955,0.248776,
2,1,0,1,0,2448.37,0.268281,0.268001,20.7058,2,0.0199645,10,0.00554919,-1.68391,-0.455094,-0.129644,0.251436,
2,1,0,1,0,2448.37,0.270686,0.270377,20.4864,2,0.0200469,10,0.00553905,-1.68853,-0.594442,-0.0992527,0.253988,
2,1,0,1,0,2448.38,0.273083,0.272774,20.3335,2,0.0201285,10,0.00554645,-1.69179,-0.85203,-0.0692464,0.256507,
2,1,0,1,0,2448.38,0.27548,0.275167,20.1989,2,0.0202095,10,0.00555806,-1.69467,-1.24904,-0.0472364,0.259008,
2,1,0,1,0,2448.38,0.277889,0.277611,20.1508,2,0.0202902,10,0.00559409,-1.69571,-1.81346,-0.0325344,0.261491,
2,1,0,1,0,2448.39,0.280286,0.28002,20.1144,2,0.0203707,10,0.00563243,-1.69649,-3.76112,-0.0156868,0.263928,
2,1,0,1,0,2448.39,0.282683,0.282373,20.0821,2,0.0204511,10,0.00567063,-1.69719,-5.21255,-0.0113188,0.266307,
2,1,0,1,0,2448.4,0.28508,0.284813,20.0788,2,0.0205314,10,0.00571868,-1.69726,-10.3427,-0.00570449,0.26875,
2,1,0,1,0,2448.4,0.287488,0.28717,20.0653,2,0.0206117,10,0.00576215,-1.69755,-103.234,-0.000571515,0.271118,
2,1,0,1,0,2448.4,0.289885,0.289559,20.0716,2,0.020692,10,0.00581191,-1.69742,23.6986,0.0024896,0.273502,
2,1,0,1,0,2448.41,0.292282,0.291995,20.0778,2,0.0207723,10,0.0058626,-1.69728,14.0143,0.00420997,0.275933,
2,1,0,1,0,2448.41,0.294688,0.294423,20.0975,2,0.0208526,10,0.00591716,-1.69686,34.5201,0.00170915,0.278345,
2,1,0,1,0,2448.42,0.297085,0.296835,20.0971,2,0.020933,10,0.00596551,-1.69687,-23.8323,-0.00247564,0.280757,
2,1,0,1,0,2448.42,0.299363,0.299039,20.0843,2,0.0210094,10,0.00600597,-1.69714,-0.108734,-0.542608,0.282971,
2,1,0,1,0,2448.42,0.300012,0.299689,20.0628,2,0.0210314,10,0.00601261,-1.69761,-0.0256863,-2.29694,0.283639,
2,1,0,1,0,2448.42,0.299243,0.299138,17.3652,2,0.0210547,10,0.00519459,-1.76032,-0.0112699,-5.23518,0.285246,
2,1,0,1,0,2448.43,0.296846,0.29674,9.43469,2,0.0211069,10,0.00279965,-2.02527,-0.00655,-9.00764,0.289192,
2,1,0,1,0,2448.43,0.294449,0.294295,3.54768,2,0.0211318,10,0.00104406,-2.45006,-0.0121783,-4.84468,0.291457,
2,1,0,1,0,2448.43,0.292041,0.291881,-0.867155,2,0.0211363,10,-0.000253106,-3.0619,-0.0211153,-2.79419,0.292575,
2,0,0,1,0,2448.44,0.289644,0.289396,-4.19848,2,0.0211256,10,-0.00121502,-2.37691,0.000108249,545.038,0.292755,
2,0,0,1,0,2448.44,0.287247,0.287007,-6.68367,2,0.0211034,10,-0.00191826,-2.17499,-0.00225577,-26.1552,0.292354,
2,0,0,1,0,2448.45,0.284841,0.284631,-8.58356,2,0.0210726,10,-0.00244315,-2.06633,-0.00967307,-6.09941,0.291498,
2,0,0,1,0,2448.45,0.282444,0.282157,-10.0248,2,0.0210351,10,-0.00282857,-1.99893,-0.0212224,-2.78008,0.290177,
2,0,0,1,0,2448.45,0.280047,0.279774,-11.1141,2,0.0209926,10,-0.00310944,-1.95412,-0.0376293,-1.56793,0.288665,
2,0,0,1,0,2448.46,0.27765,0.277387,-11.9827,2,0.0209463,10,-0.00332385,-1.92144,-0.0596988,-0.988294,0.286973,
2,0,0,1,0,2448.46,0.275242,0.275006,-12.6665,2,0.0208969,10,-0.00348336,-1.89734,-0.0866026,-0.681273,0.285139,
2,0,0,1,0,2448.47,0.272845,0.272553,-13.1747,2,0.0208451,10,-0.00359081,-1.88026,-0.121349,-0.486201,0.283093,
2,0,0,1,0,2448.47,0.270448,0.270202,-13.5974,2,0.0207915,10,-0.00367404,-1.86655,-0.163878,-0.360024,0.28108,
2,0,0,1,0,2448.47,0.268039,0.267739,-13.9637,2,0.0207363,10,-0.00373862,-1.855,-0.20384,-0.289443,0.27891,
2,0,0,1,0,2448.48,0.265642,0.26535,-14.251,2,0.0206799,10,-0.00378149,-1.84616,-0.257228,-0.229369,0.276751,
2,0,0,1,0,2448.48,0.263245,0.262997,-14.5016,2,0.0206224,10,-0.00381386,-1.83859,-0.308792,-0.191067,0.274598,
2,0,0,1,0,2448.49,0.260843,0.260558,-14.7062,2,0.0205639,10,-0.00383181,-1.8325,-0.360494,-0.163664,0.272323,
2,0,0,1,0,2448.49,0.258443,0.258159,-14.9129,2,0.0205046,10,-0.00384991,-1.82644,-0.410083,-0.143873,0.27009,
2,0,0,1,0,2448.49,0.256046,0.255765,-15.0862,2,0.0204446,10,-0.00385852,-1.82142,-0.421162,-0.140089,0.267834,
2,0,0,1,0,2448.5,0.253649,0.253303,-15.2607,2,0.0203839,10,-0.00386557,-1.81643,-0.459077,-0.128519,0.265511,
2,0,0,1,0,2448.5,0.25124,0.250979,-15.4467,2,0.0203225,10,-0.00387681,-1.81116,-0.492533,-0.119789,0.263337,
2,0,0,1,0,2448.51,0.248843,0.24853,-15.6073,2,0.0202603,10,-0.00387889,-1.80667,-0.49014,-0.120374,0.261016,
2,0,0,1,0,2448.51,0.246446,0.246186,-15.7386,2,0.0201977,10,-0.00387464,-1.80303,-0.517169,-0.114083,0.258777,
2,0,0,1,0,2448.51,0.244041,0.243773,-15.9199,2,0.0201343,10,-0.00388084,-1.79806,-0.521816,-0.113067,0.256509,
2,0,0,1,0,2448.52,0.241644,0.241408,-16.0827,2,0.0200703,10,-0.0038825,-1.79364,-0.503506,-0.117178,0.254274,
2,0,0,1,0,2448.52,0.239247,0.238981,-16.2426,2,0.0200056,10,-0.00388166,-1.78935,-0.519804,-0.113504,0.251975,
2,0,0,1,0,2448.53,0.236849,0.236582,-16.4052,2,0.0199403,10,-0.00388119,-1.78502,-0.51894,-0.113693,0.249706,
2,0,0,1,0,2448.53,0.234441,0.234138,-16.5755,2,0.0198743,10,-0.00388096,-1.78053,-0.495519,-0.119067,0.247398,
2,0,0,1,0,2448.53,0.232044,0.231755,-16.747,2,0.0198077,10,-0.0038812,-1.77606,-0.478123,-0.123399,0.245153,
2,0,0,1,0,2448.54,0.229647,0.229366,-16.9407,2,0.0197403,10,-0.00388562,-1.77107,-0.470649,-0.125359,0.242919,
2,0,0,1,0,2448.54,0.227239,0.22697,-17.1343,2,0.0196722,10,-0.00388897,-1.76613,-0.466395,-0.126502,0.240677,
2,0,0,1,0,2448.55,0.224842,0.224574,-17.319,2,0.0196032,10,-0.00388941,-1.76148,-0.466209,-0.126553,0.238429,
2,0,0,1,0,2448.55,0.222445,0.222184,-17.5049,2,0.0195335,10,-0.0038893,-1.75684,-0.431503,-0.136731,0.236188,
2,0,0,1,0,2448.55,0.220047,0.219804,-17.7062,2,0.0194631,10,-0.00389191,-1.75187,-0.416667,-0.1416,0.233969,
2,0,0,1,0,2448.56,0.217642,0.217358,-17.9717,2,0.0193917,10,-0.0039063,-1.74541,-0.402028,-0.146756,0.231735,
2,0,0,1,0,2448.56,0.215245,0.214975,-18.1922,2,0.0193193,10,-0.00391087,-1.74012,-0.373609,-0.157919,0.229529,
2,0,0,1,0,2448.57,0.212848,0.212497,-18.4256,2,0.0192461,10,-0.00391539,-1.73458,-0.381346,-0.154715,0.227238,
2,0,0,1,0,2448.57,0.21044,0.210189,-18.6958,2,0.0191718,10,-0.00392965,-1.72826,-0.350165,-0.168492,0.225145,
2,0,0,1,0,2448.57,0.208042,0.207823,-18.9473,2,0.0190965,10,-0.00393768,-1.72245,-0.333765,-0.176771,0.222981,
2,0,0,1,0,2448.58,0.205645,0.205377,-19.2681,2,0.0190201,10,-0.00395721,-1.71516,-0.32418,-0.181998,0.220791,
2,0,0,1,0,2448.58,0.203246,0.202935,-19.5592,2,0.0189424,10,-0.00396927,-1.70865,-0.305779,-0.19295,0.218583,
2,0,0,1,0,2448.59,0.200843,0.200542,-19.8867,2,0.0188634,10,-0.00398812,-1.70144,-0.302789,-0.194855,0.216452,
2,0,0,1,0,2448.59,0.198446,0.19816,-20.2215,2,0.0187832,10,-0.0040071,-1.69419,-0.274194,-0.215176,0.214338,
2,0,0,1,0,2448.59,0.196049,0.195765,-20.5661,2,0.0187016,10,-0.00402613,-1.68685,-0.260723,-0.226294,0.212218,
2,0,0,1,0,2448.6,0.19364,0.193352,-20.995,2,0.0186184,10,-0.00405942,-1.67788,-0.247706,-0.238186,0.210148,
2,0,0,1,0,2448.6,0.191243,0.190945,-21.4134,2,0.0185336,10,-0.0040888,-1.66931,-0.228799,-0.257869,0.208076,
2,0,0,1,0,2448.61,0.188846,0.188555,-21.8447,2,0.018447,10,-0.00411894,-1.66065,-0.220868,-0.267128,0.206031,
2,0,0,1,0,2448.61,0.186444,0.186168,-22.3317,2,0.0183587,10,-0.00415746,-1.65108,-0.207062,-0.284939,0.204034,
2,0,0,1,0,2448.61,0.184041,0.183777,-22.8438,2,0.0182682,10,-0.00419817,-1.64123,-0.19203,-0.307244,0.202052,
2,0,0,1,0,2448.62,0.181644,0.181392,-23.397,2,0.0181757,10,-0.00424403,-1.63084,-0.182737,-0.322868,0.20011,
2,0,0,1,0,2448.62,0.179247,0.178976,-24.0019,2,0.0180809,10,-0.00429576,-1.61975,-0.170977,-0.345076,0.198177,
2,0,0,1,0,2448.63,0.176841,0.176535,-24.6353,2,0.0179835,10,-0.00434898,-1.60844,-0.160744,-0.367043,0.196243,
2,0,0,1,0,2448.63,0.174444,0.174161,-25.3181,2,0.0178835,10,-0.00440944,-1.59657,-0.15079,-0.391273,0.194416,
2,0,0,1,0,2448.63,0.172047,0.171793,-26.0437,2,0.0177808,10,-0.00447413,-1.5843,-0.138994,-0.424479,0.192628,
2,0,0,1,0,2448.64,0.169644,0.169355,-26.8498,2,0.0176749,10,-0.00454714,-1.57106,-0.131695,-0.448007,0.190834,
2,0,0,1,0,2448.64,0.167242,0.166948,-27.7189,2,0.0175657,10,-0.00462763,-1.55722,-0.124001,-0.475805,0.189124,
2,0,0,1,0,2448.65,0.164845,0.164551,-28.6049,2,0.017453,10,-0.00470697,-1.54356,-0.115694,-0.509968,0.187435,
2,0,0,1,0,2448.65,0.162448,0.162165,-29.5581,2,0.0173366,10,-0.00479329,-1.52932,-0.109148,-0.540549,0.185812,
2,0,0,1,0,2448.65,0.160042,0.159776,-30.6039,2,0.0172161,10,-0.00488976,-1.51422,-0.102148,-0.577593,0.184259,
2,0,0,1,0,2448.66,0.157645,0.157411,-31.6961,2,0.0170914,10,-0.00498932,-1.49899,-0.0951919,-0.619801,0.182768,
2,0,0,1,0,2448.66,0.155248,0.155007,-32.8542,2,0.0169622,10,-0.00509264,-1.48341,-0.0898324,-0.656778,0.181291,
2,0,0,1,0,2448.67,0.152845,0.152602,-34.1099,2,0.0168282,10,-0.00520525,-1.46712,-0.0850544,-0.693673,0.17989,
2,0,0,1,0,2448.67,0.150443,0.150195,-35.4337,2,0.016689,10,-0.00532197,-1.45058,-0.0795396,-0.741769,0.178542,
2,0,0,1,0,2448.67,0.148046,0.147787,-36.8144,2,0.0165444,10,-0.00544069,-1.43398,-0.0752434,-0.784122,0.177238,
2,0,0,1,0,2448.68,0.145648,0.145403,-38.2704,2,0.0163941,10,-0.00556463,-1.41714,-0.0721422,-0.817829,0.176019,
2,0,0,1,0,2448.68,0.14324,0.143021,-39.7921,2,0.0162378,10,-0.00569113,-1.4002,-0.0689897,-0.8552,0.174855,
2,0,0,1,0,2448.69,0.140843,0.140611,-41.3584,2,0.0160753,10,-0.00581545,-1.38344,-0.0677411,-0.870963,0.173698,
2,0,0,1,0,2448.69,0.138446,0.138239,-42.964,2,0.0159065,10,-0.00593929,-1.3669,-0.0671778,-0.878267,0.17261,
2,0,0,1,0,2448.69,0.136041,0.135781,-44.638,2,0.0157312,10,-0.006061,-1.3503,-0.0678644,-0.86938,0.171491,
2,0,0,1,0,2448.7,0.133644,0.133502,-46.2257,2,0.0155493,10,-0.00617124,-1.33512,-0.0660557,-0.893186,0.170483,
2,0,0,1,0,2448.7,0.131246,0.131043,-47.9049,2,0.0153609,10,-0.00627761,-1.31962,-0.0652902,-0.903658,0.169367,
2,0,0,1,0,2448.71,0.128849,0.128629,-49.7315,2,0.0151654,10,-0.0063969,-1.30337,-0.0655523,-0.900045,0.168414,
2,0,0,1,0,2448.71,0.126441,0.126291,-51.4595,2,0.0149629,10,-0.0064989,-1.28853,-0.0656029,-0.899351,0.167459,
2,0,0,1,0,2448.71,0.124044,0.12388,-53.2316,2,0.0147533,10,-0.00659434,-1.27383,-0.0704036,-0.838025,0.166465,
2,0,0,1,0,2448.72,0.121647,0.121453,-54.9842,2,0.0145367,10,-0.00667799,-1.25976,-0.0750799,-0.78583,0.16544,
2,0,0,1,0,2448.72,0.119241,0.119065,-56.6847,2,0.0143132,10,-0.00674915,-1.24653,-0.0802084,-0.735584,0.164413,
2,0,0,1,0,2448.73,0.116844,0.116677,-58.3536,2,0.0140829,10,-0.0068085,-1.23393,-0.085752,-0.68803,0.16336,
2,0,0,1,0,2448.73,0.114447,0.114277,-60.0137,2,0.013846,10,-0.00685819,-1.22175,-0.0906356,-0.650958,0.162288,
2,0,0,1,0,2448.73,0.11205,0.111869,-61.6428,2,0.0136026,10,-0.00689591,-1.21012,-0.0987969,-0.597185,0.161183,
2,0,0,1,0,2448.74,0.109642,0.109447,-63.2865,2,0.0133525,10,-0.00692651,-1.19869,-0.10736,-0.549555,0.160076,
2,0,0,1,0,2448.74,0.107245,0.106995,-64.8194,2,0.0130961,10,-0.00693536,-1.1883,-0.119596,-0.493327,0.158851,
2,0,0,1,0,2448.75,0.104848,0.104639,-66.2763,2,0.0128337,10,-0.00693509,-1.17864,-0.140367,-0.420328,0.15766,
2,0,0,1,0,2448.75,0.10244,0.102229,-67.6528,2,0.0125657,10,-0.00691606,-1.16971,-0.158209,-0.372924,0.156351,
2,0,0,1,0,2448.75,0.100042,0.0997484,-68.916,2,0.0122924,10,-0.00687426,-1.16168,-0.185903,-0.317369,0.154881,
2,0,0,1,0,2448.76,0.0976454,0.0973996,-70.0943,2,0.0120142,10,-0.00682716,-1.15432,-0.221581,-0.266268,0.153475,
2,0,0,1,0,2448.76,0.0952427,0.0950105,-71.1503,2,0.0117316,10,-0.00676003,-1.14782,-0.26292,-0.224403,0.151931,
2,0,0,1,0,2448.77,0.0928428,0.0925822,-72.0823,2,0.011445,10,-0.00667354,-1.14217,-0.333228,-0.177056,0.150248,
2,0,0,1,0,2448.77,0.0904457,0.0902122,-72.8712,2,0.011155,10,-0.00657387,-1.13744,-0.426833,-0.138227,0.148509,
2,0,0,1,0,2448.77,0.0880486,0.0877701,-73.5141,2,0.0108621,10,-0.00645234,-1.13363,-0.570369,-0.103442,0.146581,
2,0,0,1,0,2448.78,0.0856404,0.0853513,-74.0302,2,0.0105669,10,-0.00631857,-1.13059,-0.876527,-0.0673111,0.144575,
2,0,0,1,0,2448.78,0.0832433,0.083012,-74.3701,2,0.01027,10,-0.00617362,-1.1286,-1.57109,-0.0375535,0.142508,
2,0,0,1,0,2448.79,0.0808462,0.0805455,-74.4913,2,0.00997224,10,-0.00599994,-1.12789,-7.31982,-0.00806031,0.140139,
2,0,0,1,0,2448.79,0.0784408,0.0781702,-74.472,2,0.0096743,10,-0.00582149,-1.12801,3.29861,0.0178863,0.137748,
2,0,0,1,0,2448.79,0.0760437,0.0757779,-74.2494,2,0.00937682,10,-0.00562647,-1.12931,1.45442,0.040566,0.135177,
2,0,0,1,0,2448.8,0.0736466,0.0733581,-73.8492,2,0.00908061,10,-0.00541743,-1.13165,0.954869,0.0617885,0.132437,
2,0,0,1,0,2448.8,0.0712495,0.070951,-73.2534,2,0.00878643,10,-0.0051974,-1.13517,0.736758,0.0800805,0.129554,
2,0,0,1,0,2448.81,0.0688413,0.0685619,-72.4885,2,0.00849494,10,-0.00496995,-1.13973,0.607532,0.0971143,0.126553,
2,0,0,1,0,2448.81,0.0664442,0.0661335,-71.5624,2,0.0082069,10,-0.00473268,-1.14531,0.530136,0.111292,0.123383,
2,0,0,1,0,2448.81,0.0640471,0.0637306,-70.4792,2,0.00792289,10,-0.00449169,-1.15194,0.476376,0.123852,0.120114,
2,0,0,1,0,2448.82,0.0616389,0.0613331,-69.2971,2,0.00764344,10,-0.00425021,-1.15928,0.435932,0.135342,0.116771,
2,0,0,1,0,2448.82,0.0592417,0.05891,-67.9918,2,0.00736896,10,-0.0040054,-1.16754,0.405494,0.145501,0.113303,
2,0,0,1,0,2448.83,0.0568446,0.0565061,-66.6041,2,0.00709988,10,-0.00376354,-1.1765,0.384058,0.153623,0.109789,
2,0,0,1,0,2448.83,0.0544475,0.0541138,-65.1322,2,0.00683656,10,-0.00352455,-1.1862,0.367024,0.160753,0.10622,
2,0,0,1,0,2448.83,0.0520421,0.0517322,-63.6828,2,0.00657903,10,-0.00329445,-1.19598,0.35444,0.16646,0.102678,
2,0,0,1,0,2448.84,0.049645,0.0493229,-62.1835,2,0.00632743,10,-0.00306707,-1.20633,0.346072,0.170485,0.0990697,
2,0,0,1,0,2448.84,0.0472479,0.0469296,-60.6934,2,0.00608182,10,-0.00284831,-1.21686,0.337306,0.174915,0.0954843,
2,0,0,1,0,2448.85,0.0448397,0.044568,-59.2354,2,0.00584213,10,-0.00264,-1.22742,0.332225,0.17759,0.0919563,
2,0,0,1,0,2448.85,0.0424426,0.0421567,-57.7521,2,0.00560832,10,-0.00243464,-1.23843,0.3273,0.180263,0.0883584,
2,0,0,1,0,2448.85,0.0400455,0.0397432,-56.3309,2,0.00538032,10,-0.00223877,-1.24925,0.324037,0.182078,0.0848079,
2,0,0,1,0,2448.86,0.0376456,0.037353,-54.9273,2,0.00515795,10,-0.0020517,-1.26021,0.320762,0.183937,0.0812949,
2,0,0,1,0,2448.86,0.035243,0.0349141,-53.5487,2,0.00494112,10,-0.0018696,-1.27125,0.314453,0.187628,0.0777531,
2,0,0,1,0,2448.87,0.0328459,0.0325123,-52.1971,2,0.00472974,10,-0.00169705,-1.28235,0.310244,0.190173,0.07427,
2,0,0,1,0,2448.87,0.0304488,0.0301126,-50.8309,2,0.00452382,10,-0.00153065,-1.29387,0.305379,0.193203,0.0707773,
2,0,0,1,0,2448.87,0.0280406,0.0277426,-49.5341,2,0.00432324,10,-0.0013742,-1.3051,0.299746,0.196834,0.0673698,
2,0,0,1,0,2448.88,0.0256435,0.0253418,-48.2539,2,0.0041278,10,-0.00122284,-1.31647,0.295777,0.199474,0.0639449,
2,0,0,1,0,2448.88,0.0232463,0.0229358,-46.9588,2,0.00393752,10,-0.00107703,-1.32828,0.292003,0.202053,0.0605028,
2,0,0,1,0,2448.89,0.0208437,0.0205445,-45.6978,2,0.00375232,10,-0.00093884,-1.3401,0.287709,0.205068,0.0571028,
2,0,0,1,0,2448.89,0.018441,0.0181268,-44.4746,2,0.00357208,10,-0.000806183,-1.35189,0.286284,0.206089,0.0537065,
2,0,0,1,0,2448.89,0.0160439,0.0157091,-43.2709,2,0.00339675,10,-0.000679746,-1.3638,0.286148,0.206187,0.0503258,
2,0,0,1,0,2448.9,0.0136468,0.0133157,-42.1338,2,0.00322606,10,-0.000561043,-1.37537,0.28711,0.205496,0.0470228,
2,0,0,1,0,2448.9,0.0112414,0.0109415,-41.0536,2,0.00305978,10,-0.000449188,-1.38665,0.290427,0.203149,0.0437844,
2,0,0,1,0,2448.91,0.00884431,0.0085418,-40.0248,2,0.00289774,10,-0.000341883,-1.39767,0.298292,0.197793,0.0405616,
2,0,0,1,0,2448.91,0.0064472,0.00617391,-39.0639,2,0.00273969,10,-0.000241177,-1.40822,0.321302,0.183628,0.0374251,
2,0,0,1,0,2448.91,0.00404455,0.00376679,-38.2006,2,0.00258528,10,-0.000143893,-1.41793,0.340876,0.173083,0.0343272,
2,0,0,1,0,2448.92,0.0016419,0.00128119,-37.5447,2,0.00243397,10,-4.8102e-05,-1.42545,0.367322,0.160622,0.031317,
2,0,0,1,0,2448.92,-0.000755207,-0.00112487,-36.8587,2,0.00228525,10,4.14613e-05,-1.43346,0.405508,0.145496,0.0283621,
2,0,0,1,0,2448.93,-0.00315231,-0.00350018,-36.2503,2,0.00213912,10,0.000126883,-1.44069,0.427791,0.137918,0.0255,
2,0,0,1,0,2448.93,-0.00555774,-0.00591049,-35.7593,2,0.00199516,10,0.000211355,-1.44661,0.491648,0.120004,0.022697,
2,0,0,1,0,2448.93,-0.00795485,-0.0082805,-35.3216,2,0.00185305,10,0.00029248,-1.45196,0.592095,0.0996462,0.0199768,
2,0,0,1,0,2448.94,-0.010352,-0.0106611,-35.0048,2,0.00171243,10,0.00037319,-1.45587,0.711011,0.0829804,0.0173427,
2,0,0,1,0,2448.94,-0.0127546,-0.0131022,-34.7601,2,0.00157295,10,0.000455433,-1.45892,0.909087,0.0649003,0.0147059,
2,0,0,1,0,2448.95,-0.0151573,-0.0155114,-34.5567,2,0.00143435,10,0.000536024,-1.46147,1.1784,0.050068,0.012134,
2,0,0,1,0,2448.95,-0.0175544,-0.0178645,-34.4109,2,0.00129645,10,0.000614732,-1.4633,1.72044,0.0342936,0.00966427,
2,0,0,1,0,2448.95,-0.0199515,-0.0202801,-34.316,2,0.00115901,10,0.000695931,-1.4645,3.18612,0.0185178,0.00717274,
2,0,0,1,0,2448.96,-0.0223597,-0.0226819,-34.3004,2,0.0010218,10,0.000777997,-1.4647,9.30562,0.00634025,0.00475842,
2,0,0,1,0,2448.96,-0.0247568,-0.0251304,-34.3125,2,0.000884575,10,0.000862286,-1.46455,-7.73625,-0.00762644,0.00231964,
2,0,0,1,0,2448.97,-0.0271539,-0.0274961,-34.3284,2,0.000747279,10,0.000943899,-1.46435,-3.51199,-0.0167996,-3.33787e-05,
2,0,0,1,0,2448.97,-0.0295593,-0.0298789,-34.4134,2,0.000609815,10,0.00102823,-1.46327,-2.2809,-0.025867,-0.00234816,
2,0,0,1,0,2448.97,-0.0319564,-0.0322977,-34.5135,2,0.000471963,10,0.0011147,-1.46201,-1.56849,-0.0376159,-0.00468689,
2,0,0,1,0,2448.98,-0.0343535,-0.034674,-34.6356,2,0.000333667,10,0.00120096,-1.46048,-1.30481,-0.0452175,-0.00696551,
2,0,0,1,0,2448.98,-0.0367506,-0.0370875,-34.7961,2,0.000194799,10,0.0012905,-1.45847,-1.17152,-0.050362,-0.00925064,
2,0,0,1,0,2448.99,-0.0391588,-0.0394756,-34.9735,2,5.52027e-05,10,0.0013806,-1.45626,-1.06298,-0.0555042,-0.0114968,
2,0,0,1,0,2448.99,-0.0415559,-0.0418975,-35.1364,2,-8.49948e-05,10,0.00147213,-1.45424,-0.968026,-0.0609488,-0.0137884,
2,0,0,1,0,2448.99,-0.043953,-0.0442357,-35.3187,2,-0.000225919,10,0.00156235,-1.452,-0.913728,-0.0645707,-0.0159808,
2,0,0,1,0,2449,-0.0463585,-0.0466651,-35.5471,2,-0.000367682,10,0.00165881,-1.4492,-0.840068,-0.0702324,-0.0182274,
2,0,0,1,0,2449,-0.0487556,-0.0491009,-35.7744,2,-0.000510334,10,0.00175655,-1.44643,-0.82366,-0.0716315,-0.0204814,
2,0,0,1,0,2449.01,-0.0511527,-0.0514825,-36.0033,2,-0.000653927,10,0.00185354,-1.44366,-0.800095,-0.0737412,-0.0226799,
2,0,0,1,0,2449.01,-0.0535498,-0.0538472,-36.2084,2,-0.000798337,10,0.00194972,-1.44119,-0.778008,-0.0758347,-0.0248805,
2,0,0,1,0,2449.01,-0.055958,-0.0562512,-36.4643,2,-0.000943728,10,0.00205116,-1.43813,-0.766666,-0.0769566,-0.0270797,
2,0,0,1,0,2449.02,-0.0583551,-0.0586954,-36.7222,2,-0.00109012,10,0.00215543,-1.43507,-0.716131,-0.0823871,-0.0293176,
2,0,0,1,0,2449.02,-0.0607522,-0.0610538,-36.9675,2,-0.00123751,10,0.002257,-1.43218,-0.73596,-0.0801674,-0.0314798,
2,0,0,1,0,2449.03,-0.0631604,-0.0635118,-37.2512,2,-0.00138599,10,0.00236589,-1.42886,-0.73758,-0.0799914,-0.0337109,
2,0,0,1,0,2449.03,-0.0655575,-0.0658744,-37.4832,2,-0.00153549,10,0.00246918,-1.42616,-0.70939,-0.0831701,-0.0358879,
2,0,0,1,0,2449.03,-0.0679546,-0.0682762,-37.741,2,-0.00168597,10,0.00257681,-1.42319,-0.714518,-0.0825732,-0.0380834,
2,0,0,1,0,2449.04,-0.0703573,-0.0706717,-38.0342,2,-0.00183755,10,0.00268794,-1.41983,-0.692177,-0.0852383,-0.0402443,
2,0,0,1,0,2449.04,-0.0727571,-0.0730777,-38.3124,2,-0.00199029,10,0.00279979,-1.41666,-0.68787,-0.085772,-0.0424278,
2,0,0,1,0,2449.05,-0.0751542,-0.0755283,-38.5924,2,-0.00214414,10,0.00291482,-1.4135,-0.688686,-0.0856704,-0.0446544,
2,0,0,1,0,2449.05,-0.0775514,-0.0778697,-38.8565,2,-0.00229907,10,0.00302574,-1.41054,-0.676759,-0.0871802,-0.0467845,
2,0,0,1,0,2449.05,-0.0799595,-0.0802779,-39.1578,2,-0.00245511,10,0.00314351,-1.40718,-0.667614,-0.0883744,-0.0489517,
2,0,0,1,0,2449.06,-0.0823567,-0.0826882,-39.4622,2,-0.00261238,10,0.00326306,-1.40382,-0.640402,-0.0921296,-0.0511184,
2,0,0,1,0,2449.06,-0.0847538,-0.0850328,-39.7511,2,-0.00277084,10,0.00338015,-1.40065,-0.640289,-0.0921459,-0.0532319,
2,0,0,1,0,2449.07,-0.0871592,-0.0874579,-40.0783,2,-0.0029305,10,0.00350516,-1.39709,-0.653368,-0.0903014,-0.0553953,
2,0,0,1,0,2449.07,-0.0895563,-0.0898544,-40.3868,2,-0.00309147,10,0.00362893,-1.39376,-0.634125,-0.0930416,-0.057545,
2,0,0,1,0,2449.07,-0.0919534,-0.0922456,-40.6747,2,-0.0032536,10,0.00375207,-1.39068,-0.626965,-0.0941041,-0.0597059,
2,0,0,1,0,2449.08,-0.0943505,-0.0946559,-41.0139,2,-0.00341701,10,0.00388221,-1.38707,-0.620645,-0.0950624,-0.0618448,
2,0,0,1,0,2449.08,-0.0967587,-0.0971108,-41.3676,2,-0.00358182,10,0.00401724,-1.38334,-0.600553,-0.0982429,-0.0640167,
2,0,0,1,0,2449.09,-0.0991558,-0.0995126,-41.6976,2,-0.00374799,10,0.00414944,-1.37989,-0.849342,-0.0694656,-0.0661545,
2,0,0,0,0,2449.09,-0.0999548,-0.100381,-41.8167,2,-0.00380224,10,0.00419761,-1.37865,0.0856891,0.688536,-0.0669277,
2,0,0,0,1,2449.09,-0.0999548,-0.100476,-41.6122,2,-0.00382724,10,0.00418105,-1.38078,0.0442854,1.33227,-0.0671867,
2,0,0,1,1,2449.09,-0.0979573,-0.0984681,-34.1635,2,-0.00394229,10,0.00336401,-1.46644,0.0334713,1.7627,-0.0711373,
2,0,0,1,1,2449.1,-0.0955546,-0.0960567,-26.2744,2,-0.00406208,10,0.00252383,-1.58047,0.0270233,2.1833,-0.0750373,
2,0,0,1,1,2449.1,-0.0931519,-0.0936114,-19.3893,2,-0.00415246,10,0.00181506,-1.71244,0.0178563,3.30415,-0.0781,
2,0,0,1,1,2449.1,-0.0907548,-0.0912107,-13.3312,2,-0.00421711,10,0.00121595,-1.87513,0.00957837,6.15971,-0.0805457,
2,0,0,1,1,2449.11,-0.0883577,-0.0888014,-7.96403,2,-0.00425902,10,0.000707218,-2.09887,0.00541705,10.8915,-0.0824302,
2,0,0,1,1,2449.11,-0.0859523,-0.0863858,-3.14086,2,-0.00428063,10,0.000271326,-2.50295,0.0116005,5.08597,-0.0838731,
2,1,0,1,1,2449.12,-0.0835552,-0.0839851,1.09507,2,-0.00428416,10,-9.19698e-05,-2.96056,-0.162957,-0.362058,-0.0848611,
2,1,0,1,1,2449.12,-0.0811581,-0.0816564,4.90642,2,-0.00427168,10,-0.000400641,-2.30923,-0.00378317,-15.5954,-0.0855816,
2,1,0,1,1,2449.12,-0.0787554,-0.0792323,8.36732,2,-0.00424468,10,-0.000662962,-2.07741,-0.000845492,-69.7819,-0.0859262,
2,1,0,1,1,2449.13,-0.0763528,-0.076857,11.4216,2,-0.0042047,10,-0.000877829,-1.94227,0.000341903,172.563,-0.0859943,
2,1,0,1,1,2449.13,-0.0739557,-0.0744722,14.1611,2,-0.00415315,10,-0.00105461,-1.8489,0.00309428,19.0674,-0.085801,
2,1,0,1,1,2449.14,-0.0715586,-0.0720417,16.6975,2,-0.00409112,10,-0.00120292,-1.77735,0.00745589,7.91321,-0.0853997,
2,1,0,1,1,2449.14,-0.0691532,-0.0696356,18.9868,2,-0.00401946,10,-0.00132215,-1.72155,0.0130099,4.535,-0.084825,
2,1,0,1,1,2449.14,-0.0667561,-0.0671882,21.0357,2,-0.00393914,10,-0.00141335,-1.67704,0.0203451,2.89997,-0.0840168,
2,1,0,1,1,2449.15,-0.0643589,-0.0648023,22.8647,2,-0.00385111,10,-0.00148168,-1.64083,0.0298288,1.97796,-0.0830941,
2,1,0,1,1,2449.15,-0.0619563,-0.0623687,24.5373,2,-0.0037561,10,-0.00153036,-1.61017,0.0416233,1.41748,-0.0819985,
2,1,0,1,1,2449.16,-0.0595536,-0.0599446,26.0063,2,-0.00365478,10,-0.00155894,-1.58492,0.05575,1.0583,-0.0807496,
2,1,0,1,1,2449.16,-0.0571565,-0.0575099,27.2691,2,-0.00354806,10,-0.00156824,-1.56433,0.0718111,0.821599,-0.0793252,
2,1,0,1,1,2449.16,-0.0547594,-0.0551166,28.4051,2,-0.00343655,10,-0.00156559,-1.5466,0.091396,0.645543,-0.0778406,
2,1,0,1,1,2449.17,-0.0523512,-0.0527444,29.4513,2,-0.0033207,10,-0.00155339,-1.5309,0.112689,0.523564,-0.0763055,
2,1,0,1,1,2449.17,-0.0499541,-0.0503755,30.3326,2,-0.00320103,10,-0.00152802,-1.51809,0.139109,0.424128,-0.0746415,
2,1,0,1,1,2449.18,-0.047557,-0.0479312,31.134,2,-0.00307799,10,-0.00149229,-1.50677,0.173746,0.339575,-0.0728384,
2,1,0,1,1,2449.18,-0.0451544,-0.0455283,31.8192,2,-0.002952,10,-0.00144867,-1.49731,0.209122,0.282131,-0.0709837,
2,1,0,1,1,2449.18,-0.0427545,-0.0431096,32.4242,2,-0.00282342,10,-0.00139779,-1.48913,0.255199,0.231192,-0.069049,
2,1,0,1,1,2449.19,-0.0403574,-0.0407226,32.9618,2,-0.00269258,10,-0.00134229,-1.48199,0.303204,0.194589,-0.067092,
2,1,0,1,1,2449.19,-0.0379603,-0.0383335,33.3996,2,-0.00255981,10,-0.00128032,-1.47626,0.370834,0.159101,-0.0650532,
2,1,0,1,1,2449.2,-0.0355521,-0.0359126,33.8168,2,-0.00242531,10,-0.00121445,-1.47087,0.458784,0.128601,-0.062966,
2,1,0,1,1,2449.2,-0.033155,-0.0335203,34.1241,2,-0.00228939,10,-0.00114385,-1.46694,0.553408,0.106612,-0.0608196,
2,1,0,1,1,2449.2,-0.0307579,-0.031127,34.3902,2,-0.00215233,10,-0.00107046,-1.46357,0.721389,0.0817867,-0.0586391,
2,1,0,1,1,2449.21,-0.0283524,-0.028687,34.6258,2,-0.00201429,10,-0.000993309,-1.4606,0.899358,0.0656023,-0.0563876,
2,1,0,1,1,2449.21,-0.0259553,-0.0263095,34.7834,2,-0.00187542,10,-0.000915135,-1.45863,1.17331,0.0502851,-0.0541362,
2,1,0,1,1,2449.22,-0.0235582,-0.0238865,34.9193,2,-0.00173598,10,-0.0008341,-1.45693,1.66889,0.0353528,-0.051822,
2,1,0,1,1,2449.22,-0.0211611,-0.0215345,35.0097,2,-0.0015961,10,-0.000753917,-1.45581,2.24683,0.0262592,-0.0495423,
2,1,0,1,1,2449.22,-0.0187529,-0.019067,35.0712,2,-0.0014559,10,-0.000668701,-1.45505,3.82661,0.0154183,-0.0471239,
2,1,0,1,1,2449.23,-0.0163558,-0.0167065,35.1178,2,-0.00131551,10,-0.000586695,-1.45447,8.74534,0.00674645,-0.0448007,
2,1,0,1,1,2449.23,-0.0139587,-0.0142898,35.1182,2,-0.00117504,10,-0.000501833,-1.45447,-30.0272,-0.00196489,-0.0423844,
2,1,0,1,1,2449.24,-0.0115505,-0.0118922,35.098,2,-0.00103463,10,-0.000417394,-1.45472,-5.16586,-0.0114211,-0.0399706,
2,1,0,1,1,2449.24,-0.0091534,-0.00950527,35.0454,2,-0.000894344,10,-0.000333116,-1.45537,-3.34978,-0.0176131,-0.0375416,
2,1,0,1,1,2449.24,-0.00675629,-0.00710238,34.9659,2,-0.000754304,10,-0.000248341,-1.45636,-2.68802,-0.0219492,-0.0350751,
2,1,0,1,1,2449.25,-0.00435919,-0.00467193,34.8822,2,-0.000614628,10,-0.000162967,-1.4574,-1.78319,-0.0330868,-0.0325777,
2,1,0,1,1,2449.25,-0.00195376,-0.00228708,34.8034,2,-0.000475253,10,-7.9598e-05,-1.45838, , ,-0.0301298,
2,1,0,1,1,2449.25,-7.54729e-05,-0.000325324,34.6171,2,-0.000367539,10,-1.12618e-05,-1.46071, , ,-0.028019,