File: Figure_codes/Fig_S3_S4/20221101_1-115_002_TrumpetPlot_ParaChange_08_CV_C01_1.csv
mode,ox/red,error,control changes,counter inc.,time/s,control/V,Ewe/V,<I>/mA,cycle number,(Q-Qo)/C,I Range,P/W,log(|I|),Tafel slope mV/dec,alpha_eff,E-IR/V,
2,0,0,0,0,2400.82,2.44065e-05,-0.000229887,-2.18636,2,0.0000000E+000,11,5.02616e-07,-2.66028, , ,0.0015192,
2,1,0,1,0,2400.85,0.00129787,0.00096699,0.492377,2,-1.834e-05,11,4.76124e-07,-3.3077, , ,0.000573088,
2,1,0,1,0,2400.89,0.00279427,0.00247097,1.45435,2,2.18963e-05,11,3.59364e-06,-2.83733,0.0029082,20.2874,0.00130749,
2,1,0,1,0,2400.92,0.00429425,0.00403194,1.64176,2,8.10015e-05,11,6.61948e-06,-2.78469,0.0281676,2.09461,0.00271853,
2,1,0,1,0,2400.96,0.00579422,0.00552784,1.69567,2,0.000144175,11,9.37339e-06,-2.77066,0.119694,0.492926,0.0041713,
2,1,0,1,0,2401,0.00729063,0.00699245,1.73144,2,0.000208428,11,1.2107e-05,-2.76159,0.260369,0.226602,0.00560729,
2,1,0,1,0,2401.04,0.00878703,0.00845672,1.75238,2,0.000273571,11,1.48194e-05,-2.75637,0.314217,0.187768,0.00705481,
2,1,0,1,0,2401.07,0.010287,0.00998987,1.77019,2,0.000339601,11,1.7684e-05,-2.75198,0.436334,0.135218,0.00857371,
2,1,0,1,0,2401.11,0.011787,0.0115231,1.77751,2,0.00040623,11,2.04825e-05,-2.75019,0.361809,0.16307,0.0101011,
2,1,0,1,0,2401.15,0.0132825,0.012968,1.78833,2,0.000473021,11,2.3191e-05,-2.74755,0.329562,0.179025,0.0115373,
2,1,0,1,0,2401.19,0.014778,0.0144728,1.80421,2,0.000540561,11,2.6112e-05,-2.74371,0.355483,0.165971,0.0130294,
2,1,0,1,0,2401.22,0.0162816,0.0160092,1.82303,2,0.000609243,11,2.91851e-05,-2.73921,0.481967,0.122415,0.0145507,
2,1,0,1,0,2401.26,0.017778,0.0175251,1.83734,2,0.000677907,11,3.21995e-05,-2.73581,0.733629,0.0804221,0.0160552,
2,1,0,1,0,2401.3,0.0192744,0.0190217,1.84685,2,0.000746826,11,3.51302e-05,-2.73357,0.485231,0.121592,0.0175442,
2,1,0,1,0,2401.34,0.0207743,0.0205083,1.86431,2,0.000816414,11,3.82338e-05,-2.72948,0.452392,0.130418,0.0190169,
2,1,0,1,0,2401.37,0.0222743,0.0220406,1.87629,2,0.000886631,11,4.13546e-05,-2.7267,0.547618,0.107739,0.0205395,
2,1,0,1,0,2401.41,0.0237707,0.0235299,1.88237,2,0.000957038,11,4.42921e-05,-2.72529,0.801692,0.0735944,0.022024,
2,1,0,1,0,2401.45,0.0252671,0.0249901,1.88369,2,0.00102764,11,4.70735e-05,-2.72499,0.665651,0.0886351,0.0234831,
2,1,0,1,0,2401.49,0.0267671,0.0265076,1.89942,2,0.00109885,11,5.03492e-05,-2.72138,0.471704,0.125079,0.0249881,
2,1,0,1,0,2401.52,0.0282671,0.0280098,1.91563,2,0.00117058,11,5.36564e-05,-2.71769,0.51006,0.115673,0.0264773,
2,1,0,1,0,2401.56,0.0297626,0.0295049,1.92603,2,0.00124252,11,5.68274e-05,-2.71534,0.756531,0.0779875,0.0279641,
2,1,0,1,0,2401.6,0.0312581,0.030991,1.92613,2,0.00131483,11,5.96926e-05,-2.71532,0.55925,0.105499,0.0294501,
2,1,0,1,0,2401.64,0.0327616,0.0324848,1.9462,2,0.00138772,11,6.32217e-05,-2.71081,0.690586,0.0854347,0.0309278,
2,1,0,1,0,2401.67,0.034258,0.0339969,1.95892,2,0.0014608,11,6.65971e-05,-2.70798,0.496583,0.118812,0.0324298,
2,1,0,1,0,2401.71,0.0357545,0.0355012,1.96615,2,0.0015343,11,6.98007e-05,-2.70638,0.779433,0.075696,0.0339283,
2,1,0,1,0,2401.75,0.0372544,0.0369929,1.97895,2,0.00160854,11,7.3207e-05,-2.70357,0.585624,0.100747,0.0354097,
2,1,0,1,0,2401.79,0.0387544,0.038449,1.98332,2,0.001683,11,7.62566e-05,-2.70261,0.471929,0.125019,0.0368624,
2,1,0,1,0,2401.82,0.0402508,0.0399723,2.00456,2,0.0017579,11,8.01267e-05,-2.69798,0.424836,0.138877,0.0383686,
2,1,0,1,0,2401.86,0.0417472,0.0414999,2.02913,2,0.00183356,11,8.42086e-05,-2.69269,0.474283,0.124398,0.0398766,
2,1,0,1,0,2401.9,0.0432472,0.042965,2.0472,2,0.00190996,11,8.79582e-05,-2.68884,0.592248,0.0996205,0.0413273,
2,1,0,1,0,2401.94,0.0447472,0.0444528,2.05672,2,0.00198675,11,9.14272e-05,-2.68682,0.404816,0.145745,0.0428075,
2,1,0,1,0,2401.97,0.0462427,0.0459352,2.0704,2,0.00206398,11,9.5104e-05,-2.68395,0.327871,0.179949,0.0442789,
2,1,0,1,0,2402.01,0.0477382,0.0474552,2.08988,2,0.002142,11,9.91755e-05,-2.67988,0.318625,0.18517,0.0457833,
2,1,0,1,0,2402.05,0.0492417,0.0489651,2.10663,2,0.00222119,11,0.000103151,-2.67641,0.329745,0.178926,0.0472798,
2,1,0,1,0,2402.09,0.0507381,0.0504331,2.11976,2,0.00230071,11,0.000106906,-2.67371,0.338114,0.174498,0.0487373,
2,1,0,1,0,2402.12,0.0522345,0.0519543,2.15522,2,0.00238105,11,0.000111973,-2.66651,0.260478,0.226507,0.0502301,
2,1,0,1,0,2402.16,0.0537345,0.0534386,2.19306,2,0.00246265,11,0.000117194,-2.65895,0.267987,0.22016,0.0516842,
2,1,0,1,0,2402.2,0.0552345,0.0549744,2.21795,2,0.00254544,11,0.00012193,-2.65405,0.293772,0.200836,0.0532,
2,1,0,1,0,2402.24,0.0567309,0.0564555,2.23731,2,0.0026289,11,0.000126309,-2.65027,0.282926,0.208535,0.0546657,
2,1,0,1,0,2402.27,0.0582273,0.0579428,2.27074,2,0.0027132,11,0.000131573,-2.64383,0.244991,0.240825,0.0561262,
2,1,0,1,0,2402.31,0.0597309,0.0594844,2.30352,2,0.00279935,11,0.000137024,-2.63761,0.224997,0.262226,0.0576416,
2,1,0,1,0,2402.35,0.0612264,0.0609402,2.33716,2,0.00288639,11,0.000142427,-2.63131,0.238488,0.247391,0.0590705,
2,1,0,1,0,2402.39,0.0627219,0.062474,2.37079,2,0.00297471,11,0.000148113,-2.62511,0.223227,0.264305,0.0605774,
2,1,0,1,0,2402.42,0.0642219,0.063942,2.40211,2,0.00306443,11,0.000153596,-2.61941,0.208148,0.283453,0.0620203,
2,1,0,1,0,2402.46,0.0657218,0.0654395,2.45571,2,0.00315583,11,0.000160701,-2.60982,0.18493,0.31904,0.0634749,
2,1,0,1,0,2402.5,0.0672182,0.0669668,2.49898,2,0.00324858,11,0.000167349,-2.60224,0.208045,0.283592,0.0649677,
2,1,0,1,0,2402.54,0.0687146,0.0684597,2.5421,2,0.00334295,11,0.000174031,-2.59481,0.218083,0.270539,0.0664261,
2,1,0,1,0,2402.57,0.0702146,0.0699579,2.57556,2,0.00343891,11,0.000180181,-2.58913,0.207004,0.285019,0.0678974,
2,1,0,1,0,2402.61,0.0717146,0.0714357,2.62194,2,0.00353654,11,0.0001873,-2.58138,0.180818,0.326294,0.0693381,
2,1,0,1,0,2402.65,0.073211,0.0729516,2.67161,2,0.0036358,11,0.000194899,-2.57323,0.188726,0.312622,0.0708143,
2,1,0,1,0,2402.68,0.0747074,0.0744336,2.71887,2,0.00373686,11,0.000202375,-2.56561,0.203014,0.290621,0.0722585,
2,1,0,1,0,2402.72,0.0762109,0.0759358,2.75861,2,0.00384004,11,0.000209477,-2.55931,0.198509,0.297216,0.073729,
2,1,0,1,0,2402.76,0.0777064,0.0774402,2.81322,2,0.00394439,11,0.000217856,-2.5508,0.179087,0.329449,0.0751896,
2,1,0,1,0,2402.8,0.079202,0.0789625,2.86999,2,0.00405069,11,0.000226622,-2.54212,0.195838,0.301269,0.0766665,
2,1,0,1,0,2402.83,0.0807019,0.0803764,2.91702,2,0.00415928,11,0.000234459,-2.53506,0.215892,0.273285,0.0780427,
2,1,0,1,0,2402.87,0.0822019,0.0819456,2.95276,2,0.00426951,11,0.000241966,-2.52977,0.213913,0.275813,0.0795834,
2,1,0,1,0,2402.91,0.0836983,0.0834397,2.99997,2,0.00438108,11,0.000250317,-2.52288,0.210986,0.279639,0.0810397,
2,1,0,1,0,2402.95,0.0851947,0.0849348,3.04748,2,0.00449453,11,0.000258837,-2.51606,0.219824,0.268396,0.0824968,
2,1,0,1,0,2402.98,0.0866947,0.0864218,3.10284,2,0.00461015,11,0.000268153,-2.50824,0.234215,0.251906,0.0839396,
2,1,0,1,0,2403.02,0.0881947,0.0879254,3.15553,2,0.00472763,11,0.000277451,-2.50093,0.229879,0.256656,0.085401,
2,1,0,1,0,2403.06,0.0896911,0.0894086,3.19736,2,0.00484633,11,0.000285872,-2.49521,0.222568,0.265087,0.0868507,
2,1,0,1,0,2403.1,0.0911875,0.0909402,3.25481,2,0.00496694,11,0.000295993,-2.48747,0.210741,0.279964,0.0883363,
2,1,0,1,0,2403.13,0.0926901,0.0924649,3.29834,2,0.00509025,11,0.000304981,-2.4817,0.221217,0.266706,0.0898263,
2,1,0,1,0,2403.17,0.0941856,0.0939287,3.34238,2,0.00521459,11,0.000313945,-2.47594,0.271644,0.217196,0.0912548,
2,1,0,1,0,2403.21,0.0956821,0.0954044,3.37389,2,0.00534044,11,0.000321884,-2.47187,0.253065,0.233142,0.0927053,
2,1,0,1,0,2403.25,0.097182,0.096898,3.42466,2,0.00546833,11,0.000331842,-2.46538,0.221542,0.266315,0.0941582,
2,1,0,1,0,2403.28,0.098682,0.0984031,3.48059,2,0.00559811,11,0.000342501,-2.45835,0.222001,0.265764,0.0956187,
2,1,0,1,0,2403.32,0.100178,0.0999519,3.54015,2,0.0057296,11,0.000353845,-2.45098,0.22448,0.26283,0.0971198,
2,1,0,1,0,2403.36,0.101675,0.101411,3.58491,2,0.00586301,11,0.000363547,-2.44552,0.22653,0.260451,0.0985427,
2,1,0,1,0,2403.4,0.103175,0.102942,3.65087,2,0.00599869,11,0.000375828,-2.4376,0.197317,0.299012,0.100021,
2,1,0,1,0,2403.43,0.104675,0.104393,3.70765,2,0.00613673,11,0.000387052,-2.4309,0.192824,0.305979,0.101427,
2,1,0,1,0,2403.47,0.106171,0.105934,3.77043,2,0.00627687,11,0.000399418,-2.42361,0.201584,0.292682,0.102918,
2,1,0,1,0,2403.51,0.107667,0.107423,3.83218,2,0.00641929,11,0.000411663,-2.41655,0.181938,0.324286,0.104357,
2,1,0,1,0,2403.55,0.10917,0.108887,3.9014,2,0.00656484,11,0.000424809,-2.40878,0.169685,0.347704,0.105765,
2,1,0,1,0,2403.58,0.110666,0.110394,3.98466,2,0.00671273,11,0.000439881,-2.39961,0.150047,0.393211,0.107206,
2,1,0,1,0,2403.62,0.112162,0.111924,4.0794,2,0.00686369,11,0.000456585,-2.3894,0.1523,0.387394,0.108661,
2,1,0,1,0,2403.66,0.113662,0.11339,4.17974,2,0.00701856,11,0.000473943,-2.37885,0.141229,0.417761,0.110047,
2,1,0,1,0,2403.7,0.115162,0.114873,4.27534,2,0.00717691,11,0.000491121,-2.36903,0.131774,0.447737,0.111453,
2,1,0,1,0,2403.73,0.116658,0.116405,4.38291,2,0.00733884,11,0.000510194,-2.35824,0.118313,0.498676,0.112899,
2,1,0,1,0,2403.77,0.118155,0.117893,4.5069,2,0.00750533,11,0.000531334,-2.34612,0.116776,0.505241,0.114288,
2,1,0,1,0,2403.81,0.119655,0.11937,4.63316,2,0.00767701,11,0.000553061,-2.33412,0.117597,0.501712,0.115664,
2,1,0,1,0,2403.85,0.121155,0.120892,4.75844,2,0.00785342,11,0.000575257,-2.32254,0.109647,0.538092,0.117085,
2,1,0,1,0,2403.88,0.122651,0.122368,4.91131,2,0.00803452,11,0.000600987,-2.3088,0.102877,0.5735,0.118439,
2,1,0,1,0,2403.92,0.124147,0.123927,5.06647,2,0.00822132,11,0.000627872,-2.29529,0.10315,0.571983,0.119874,
2,1,0,1,0,2403.96,0.12565,0.125418,5.2324,2,0.008415,11,0.000656236,-2.2813,0.106087,0.556146,0.121232,
2,1,0,1,0,2404,0.127146,0.126864,5.37963,2,0.00861363,11,0.000682478,-2.26925,0.10311,0.572206,0.12256,
2,1,0,1,0,2404.03,0.128642,0.128362,5.54488,2,0.00881801,11,0.00071175,-2.25611,0.105639,0.558508,0.123926,
2,1,0,1,0,2404.07,0.130142,0.129851,5.71208,2,0.00902927,11,0.000741717,-2.24321,0.106449,0.554254,0.125281,
2,1,0,1,0,2404.11,0.131642,0.131374,5.88268,2,0.00924715,11,0.000772832,-2.23042,0.114629,0.514702,0.126668,
2,1,0,1,0,2404.15,0.133139,0.132867,6.03674,2,0.00947039,11,0.000802084,-2.2192,0.125141,0.471468,0.128038,
2,1,0,1,0,2404.18,0.134635,0.134348,6.19627,2,0.00969926,11,0.000832457,-2.20787,0.127647,0.462214,0.129391,
2,1,0,1,0,2404.22,0.136135,0.135854,6.347,2,0.00993459,11,0.000862265,-2.19743,0.136792,0.431311,0.130776,
2,1,0,1,0,2404.26,0.137635,0.137352,6.49756,2,0.0101755,11,0.000892454,-2.18725,0.155689,0.378961,0.132154,
2,1,0,1,0,2404.3,0.13913,0.138862,6.62393,2,0.0104208,11,0.000919813,-2.17888,0.174901,0.337334,0.133563,
2,1,0,1,0,2404.33,0.140626,0.140362,6.72273,2,0.0106704,11,0.000943616,-2.17245,0.203787,0.289518,0.134984,
2,1,0,1,0,2404.37,0.14213,0.141875,6.8248,2,0.0109254,11,0.000968266,-2.16591,0.226845,0.26009,0.136415,
2,1,0,1,0,2404.41,0.143626,0.143394,6.91234,2,0.0111828,11,0.000991189,-2.16037,0.299514,0.196986,0.137864,
2,1,0,1,0,2404.45,0.145122,0.144834,6.97917,2,0.0114429,11,0.00101082,-2.1562,0.479298,0.123097,0.139251,
2,1,0,1,0,2404.48,0.146622,0.146358,7.01609,2,0.0117057,11,0.00102686,-2.15391,0.802088,0.0735581,0.140745,
2,1,0,1,0,2404.52,0.148122,0.147826,7.04029,2,0.0119695,11,0.00104074,-2.15241,2.56323,0.0230178,0.142194,
2,1,0,1,0,2404.56,0.149619,0.149341,7.04635,2,0.0122331,11,0.00105231,-2.15204,-1.41865,-0.0415887,0.143704,
2,1,0,1,0,2404.6,0.151115,0.150866,7.01729,2,0.0124961,11,0.00105867,-2.15383,-0.46718,-0.12629,0.145252,
2,1,0,1,0,2404.63,0.152615,0.15237,6.94102,2,0.0127581,11,0.0010576,-2.15858,-0.302007,-0.19536,0.146817,
2,1,0,1,0,2404.67,0.154115,0.153844,6.84242,2,0.0130166,11,0.00105267,-2.16479,-0.223341,-0.26417,0.14837,
2,1,0,1,0,2404.71,0.155611,0.155326,6.71662,2,0.0132705,11,0.00104327,-2.17285,-0.175154,-0.336847,0.149953,
2,1,0,1,0,2404.74,0.157106,0.156842,6.55298,2,0.0135191,11,0.00102778,-2.18356,-0.133834,-0.440845,0.1516,
2,1,0,1,0,2404.78,0.15861,0.158401,6.35308,2,0.0137621,11,0.00100634,-2.19702,-0.109716,-0.537753,0.153319,
2,1,0,1,0,2404.82,0.160106,0.159875,6.11251,2,0.0139952,11,0.000977237,-2.21378,-0.0941848,-0.626428,0.154985,
2,1,0,1,0,2404.86,0.161602,0.161336,5.85286,2,0.0142189,11,0.000944276,-2.23263,-0.0835978,-0.70576,0.156653,
2,1,0,1,0,2404.89,0.163102,0.162838,5.55548,2,0.0144328,11,0.000904643,-2.25528,-0.0749716,-0.786964,0.158394,
2,1,0,1,0,2404.93,0.164602,0.164304,5.24282,2,0.0146355,11,0.000861417,-2.28044,-0.0683432,-0.863291,0.16011,
2,1,0,1,0,2404.97,0.166099,0.165821,4.92987,2,0.0148258,11,0.000817478,-2.30716,-0.0649891,-0.907845,0.161877,
2,1,0,1,0,2405.01,0.167595,0.167344,4.63198,2,0.0150049,11,0.000775134,-2.33423,-0.0655348,-0.900286,0.163638,
2,1,0,1,0,2405.04,0.169095,0.168826,4.36535,2,0.0151737,11,0.000736985,-2.35998,-0.0650299,-0.907274,0.165334,
2,1,0,1,0,2405.08,0.170595,0.170299,4.10816,2,0.0153326,11,0.000699617,-2.38635,-0.0648814,-0.909351,0.167013,
2,1,0,1,0,2405.12,0.172091,0.171885,3.86889,2,0.0154818,11,0.000665003,-2.41241,-0.0696158,-0.847508,0.16879,
2,1,0,1,0,2405.16,0.173586,0.173303,3.67826,2,0.0156228,11,0.000637453,-2.43436,-0.0750367,-0.786282,0.17036,
2,1,0,1,0,2405.19,0.17509,0.174782,3.49916,2,0.0157577,11,0.000611592,-2.45604,-0.0809323,-0.729005,0.171983,
2,1,0,1,0,2405.23,0.176586,0.176327,3.34705,2,0.0158859,11,0.000590175,-2.47534,-0.0854319,-0.690608,0.173649,
2,1,0,1,0,2405.27,0.178083,0.177818,3.20559,2,0.0160087,11,0.000570012,-2.49409,-0.0932601,-0.632639,0.175254,
2,1,0,1,0,2405.31,0.179582,0.179318,3.09426,2,0.016127,11,0.000554857,-2.50944,-0.104203,-0.566203,0.176843,
2,1,0,1,0,2405.34,0.181082,0.180835,2.99305,2,0.0162413,11,0.000541248,-2.52389,-0.110471,-0.534074,0.178441,
2,1,0,1,0,2405.38,0.182579,0.182331,2.90331,2,0.0163518,11,0.000529365,-2.53711,-0.112761,-0.52323,0.180009,
2,1,0,1,0,2405.42,0.184075,0.183856,2.8186,2,0.0164589,11,0.000518215,-2.54997,-0.119365,-0.494283,0.181601,
2,1,0,1,0,2405.46,0.185579,0.185317,2.73766,2,0.0165631,11,0.000507335,-2.56262,-0.129898,-0.454202,0.183127,
2,1,0,1,0,2405.49,0.187074,0.186835,2.66768,2,0.0166642,11,0.000498416,-2.57387,-0.146715,-0.402139,0.184701,
2,1,0,1,0,2405.53,0.18857,0.188332,2.59832,2,0.0167628,11,0.000489347,-2.58531,-0.156908,-0.376017,0.186253,
2,1,0,1,0,2405.57,0.19007,0.189838,2.5375,2,0.0168594,11,0.000481713,-2.59559,-0.154909,-0.380869,0.187808,
2,1,0,1,0,2405.61,0.19157,0.191282,2.47645,2,0.0169536,11,0.000473699,-2.60617,-0.170566,-0.345908,0.189301,
2,1,0,1,0,2405.64,0.193066,0.192783,2.42935,2,0.0170457,11,0.000468338,-2.61451,-0.191757,-0.307681,0.19084,
2,1,0,1,0,2405.68,0.194563,0.194258,2.39509,2,0.0171361,11,0.000465265,-2.62068,-0.196567,-0.300153,0.192342,
2,1,0,1,0,2405.72,0.196063,0.195817,2.34999,2,0.0172252,11,0.000460169,-2.62893,-0.187183,-0.3152,0.193937,
2,1,0,1,0,2405.76,0.197563,0.19731,2.30082,2,0.0173125,11,0.000453976,-2.63812,-0.210074,-0.280854,0.19547,
2,1,0,1,0,2405.79,0.199059,0.198806,2.27077,2,0.0173981,11,0.000451442,-2.64383,-0.243835,-0.241967,0.196989,
2,1,0,1,0,2405.83,0.200555,0.200306,2.23948,2,0.0174826,11,0.000448583,-2.64985,-0.258101,-0.228593,0.198515,
2,1,0,1,0,2405.87,0.202059,0.201769,2.20116,2,0.0175663,11,0.000444125,-2.65735,-0.227083,-0.259817,0.200008,
2,1,0,1,0,2405.91,0.203554,0.203243,2.17257,2,0.0176485,11,0.00044156,-2.66303,-0.278145,-0.212119,0.201505,
2,1,0,1,0,2405.94,0.20505,0.204752,2.14671,2,0.0177294,11,0.000439542,-2.66823,-0.364064,-0.16206,0.203035,
2,1,0,1,0,2405.98,0.20655,0.206283,2.12702,2,0.0178098,11,0.000438767,-2.67223,-0.350684,-0.168243,0.204581,
2,1,0,1,0,2406.02,0.20805,0.207779,2.11188,2,0.0178896,11,0.000438804,-2.67533,-0.298643,-0.19756,0.20609,
2,1,0,1,0,2406.06,0.209546,0.209295,2.08586,2,0.0179682,11,0.00043656,-2.68072,-0.293186,-0.201237,0.207627,
2,1,0,1,0,2406.09,0.211043,0.210759,2.05883,2,0.0180457,11,0.000433917,-2.68638,-0.336778,-0.17519,0.209112,
2,1,0,1,0,2406.13,0.212543,0.212296,2.0406,2,0.0181229,11,0.000433211,-2.69024,-0.456779,-0.129165,0.210664,
2,1,0,1,0,2406.17,0.214043,0.213763,2.02332,2,0.0181994,11,0.00043251,-2.69394,-0.408198,-0.144538,0.212144,
2,1,0,1,0,2406.21,0.215539,0.215278,2.00963,2,0.018275,11,0.000432629,-2.69688,-0.435811,-0.13538,0.21367,
2,1,0,1,0,2406.24,0.217035,0.216757,1.99157,2,0.0183499,11,0.000431686,-2.7008,-0.446716,-0.132075,0.215163,
2,1,0,1,0,2406.28,0.218538,0.218263,1.97911,2,0.0184247,11,0.000431966,-2.70353,-0.802584,-0.0735126,0.21668,
2,1,0,1,0,2406.32,0.220034,0.219787,1.97634,2,0.0184987,11,0.000434374,-2.70414,-0.515355,-0.114484,0.218205,
2,1,0,1,0,2406.36,0.22153,0.221318,1.9598,2,0.0185723,11,0.000433738,-2.70779,-0.45196,-0.130542,0.21975,
2,1,0,1,0,2406.39,0.22303,0.222777,1.93013,2,0.0186454,11,0.00042999,-2.71441,-0.550249,-0.107224,0.221233,
2,1,0,1,0,2406.43,0.22453,0.224219,1.92287,2,0.018718,11,0.000431144,-2.71605,-0.637294,-0.0925789,0.22268,
2,1,0,1,0,2406.47,0.226026,0.225766,1.91197,2,0.0187902,11,0.000431658,-2.71852,-0.686885,-0.0858951,0.224236,
2,1,0,1,0,2406.51,0.227523,0.227227,1.90677,2,0.0188619,11,0.000433268,-2.7197,-0.418416,-0.141008,0.225701,
2,1,0,1,0,2406.54,0.229023,0.228748,1.89906,2,0.0189333,11,0.000434407,-2.72146,-0.567194,-0.104021,0.227229,
2,1,0,1,0,2406.58,0.230523,0.230261,1.88982,2,0.0190043,11,0.000435153,-2.72358,-0.92195,-0.0639948,0.228749,
2,1,0,1,0,2406.62,0.232019,0.23177,1.8832,2,0.0190749,11,0.00043647,-2.7251,-0.795258,-0.0741897,0.230263,
2,1,0,1,0,2406.66,0.233515,0.233253,1.87312,2,0.0191453,11,0.000436911,-2.72743,-0.643093,-0.0917441,0.231755,
2,1,0,1,0,2406.69,0.235018,0.234798,1.85865,2,0.0192155,11,0.000436408,-2.7308,-0.788568,-0.0748191,0.233311,
2,1,0,1,0,2406.73,0.236514,0.236293,1.84523,2,0.019285,11,0.000436015,-2.73395,-1.0183,-0.0579397,0.234817,
2,1,0,1,0,2406.77,0.23801,0.237755,1.84093,2,0.0193543,11,0.000437691,-2.73496,-1.22128,-0.0483098,0.236282,
2,1,0,1,0,2406.81,0.23951,0.239263,1.83743,2,0.0194236,11,0.000439628,-2.73579,-1.03522,-0.0569926,0.237793,
2,1,0,1,0,2406.84,0.24101,0.240762,1.83127,2,0.0194925,11,0.000440901,-2.73725,-0.843608,-0.0699377,0.239297,
2,1,0,1,0,2406.88,0.242506,0.242232,1.81938,2,0.019561,11,0.000440713,-2.74008,-0.8222,-0.0717587,0.240777,
2,1,0,1,0,2406.92,0.244003,0.243744,1.82258,2,0.0196291,11,0.000444241,-2.73931,-1.07996,-0.0546319,0.242286,
2,1,0,1,0,2406.95,0.245503,0.245254,1.81834,2,0.0196974,11,0.000445955,-2.74033,-1.00116,-0.0589318,0.2438,
2,1,0,1,0,2406.99,0.247003,0.246734,1.80294,2,0.0197655,11,0.000444847,-2.74402,-0.644723,-0.0915121,0.245292,
2,1,0,1,0,2407.03,0.248499,0.248232,1.79083,2,0.0198329,11,0.000444542,-2.74694,-0.919122,-0.0641917,0.246799,
2,1,0,1,0,2407.07,0.249995,0.249732,1.7879,2,0.0199001,11,0.000446496,-2.74766,-1.28352,-0.0459672,0.248301,
2,1,0,1,0,2407.1,0.251498,0.251257,1.78545,2,0.0199676,11,0.000448607,-2.74825,-1.61053,-0.036634,0.249828,
2,1,0,1,0,2407.14,0.252994,0.252748,1.7807,2,0.0200345,11,0.000450069,-2.74941,-0.669679,-0.0881019,0.251324,
2,1,0,1,0,2407.18,0.25449,0.254224,1.77982,2,0.0201011,11,0.000452472,-2.74962,-0.969654,-0.0608464,0.2528,
2,1,0,1,0,2407.22,0.25599,0.255729,1.77083,2,0.0201676,11,0.000452851,-2.75182,-3.01129,-0.0195929,0.254312,
2,1,0,1,0,2407.25,0.25749,0.257229,1.76331,2,0.020234,11,0.000453572,-2.75367,-1.75825,-0.0335562,0.255818,
2,1,0,1,0,2407.29,0.258987,0.258775,1.75942,2,0.0203002,11,0.000455294,-2.75463,-1.08486,-0.0543848,0.257367,
2,1,0,1,0,2407.33,0.260483,0.26023,1.75231,2,0.0203661,11,0.000456004,-2.75639,-0.959329,-0.0615013,0.258828,
2,1,0,1,0,2407.37,0.261983,0.261703,1.74381,2,0.0204319,11,0.000456359,-2.7585,-1.10758,-0.0532694,0.260308,
2,1,0,1,0,2407.4,0.263483,0.263223,1.74539,2,0.0204975,11,0.000459428,-2.75811,-5.17935,-0.0113914,0.261827,
2,1,0,1,0,2407.44,0.264978,0.264723,1.74584,2,0.0205628,11,0.000462165,-2.758,-1.86557,-0.0316257,0.263327,
2,1,0,1,0,2407.48,0.266474,0.266243,1.74006,2,0.020628,11,0.000463279,-2.75944,-1.05152,-0.0561093,0.264851,
2,1,0,1,0,2407.52,0.267977,0.267734,1.72538,2,0.0206932,11,0.000461941,-2.76312,-1.38612,-0.0425649,0.266353,
2,1,0,1,0,2407.55,0.269474,0.269208,1.72334,2,0.0207579,11,0.000463939,-2.76363,-4.24257,-0.0139067,0.26783,
2,1,0,1,0,2407.59,0.27097,0.270707,1.72637,2,0.0208226,11,0.00046734,-2.76287,-1.0081,-0.0585262,0.269326,
2,1,0,1,0,2407.63,0.27247,0.272223,1.71291,2,0.0208874,11,0.000466294,-2.76627,-0.994082,-0.0593512,0.270853,
2,1,0,1,0,2407.67,0.27397,0.273728,1.70586,2,0.0209518,11,0.000466942,-2.76806,-1.17833,-0.0500707,0.272363,
2,1,0,1,0,2407.7,0.275467,0.275178,1.70586,2,0.0210157,11,0.000469414,-2.76806,-1.17901,-0.050042,0.273813,
2,1,0,1,0,2407.74,0.276963,0.276695,1.70812,2,0.0210797,11,0.000472627,-2.76748,-1.17688,-0.0501326,0.275328,
2,1,0,1,0,2407.78,0.278463,0.278212,1.70197,2,0.0211437,11,0.000473509,-2.76905,-0.940169,-0.0627547,0.27685,
2,1,0,1,0,2407.82,0.279963,0.279723,1.69809,2,0.0212075,11,0.000474996,-2.77004,-1.4451,-0.0408276,0.278365,
2,1,0,1,0,2407.85,0.281459,0.281208,1.68755,2,0.0212708,11,0.000474553,-2.77274,-1.66,-0.0355421,0.279858,
2,1,0,1,0,2407.89,0.282954,0.282633,1.68304,2,0.0213341,11,0.000475681,-2.77391,18.955,0.00311264,0.281286,
2,1,0,1,0,2407.93,0.284458,0.284194,1.68047,2,0.0213976,11,0.00047758,-2.77457,-1.67475,-0.0352292,0.28285,
2,1,0,1,0,2407.97,0.285954,0.285662,1.6756,2,0.0214607,11,0.000478657,-2.77583,-1.05925,-0.0556996,0.284322,
2,1,0,1,0,2408,0.28745,0.287164,1.67148,2,0.0215234,11,0.000479989,-2.7769,-1.49266,-0.0395268,0.285826,
2,1,0,1,0,2408.04,0.28895,0.288668,1.66973,2,0.0215863,11,0.000481999,-2.77735,-7.5463,-0.0078184,0.287333,
2,1,0,1,0,2408.08,0.29045,0.290177,1.66837,2,0.021649,11,0.000484122,-2.77771,-1.58939,-0.0371212,0.288842,
2,1,0,1,0,2408.12,0.291947,0.291698,1.66652,2,0.0217114,11,0.00048612,-2.77819,-0.992978,-0.0594172,0.290365,
2,1,0,1,0,2408.15,0.293443,0.293242,1.65327,2,0.0217737,11,0.000484807,-2.78166,-1.42363,-0.0414433,0.291919,
2,1,0,1,0,2408.19,0.294943,0.294676,1.652,2,0.0218359,11,0.000486804,-2.78199,-2.74914,-0.0214612,0.293354,
2,1,0,1,0,2408.23,0.296443,0.296227,1.65266,2,0.021898,11,0.000489562,-2.78182,-4.01949,-0.0146785,0.294905,
2,1,0,1,0,2408.27,0.297939,0.297693,1.64511,2,0.0219599,11,0.00048974,-2.7838,-0.872202,-0.0676449,0.296377,
2,1,0,1,0,2408.3,0.299434,0.299203,1.63966,2,0.0220217,11,0.000490589,-2.78525,-0.00811113,-7.27395,0.297891,
2,1,0,0,0,2408.32,0.299962,0.299708,1.54364,2,0.0220459,11,0.000462641,-2.81145,-0.00155066,-38.0484,0.298473,
2,0,0,1,0,2408.35,0.298689,0.298405,-0.347766,2,0.0220529,11,-0.000103775,-3.45871,0.00326087,18.0933,0.298684,
2,0,0,1,0,2408.39,0.297189,0.296924,-0.523716,2,0.0220352,11,-0.000155504,-3.2809,-0.00325567,-18.1222,0.297343,
2,0,0,1,0,2408.42,0.295692,0.295413,-0.567143,2,0.0220146,11,-0.000167542,-3.24631,-0.0454378,-1.29848,0.295867,
2,0,0,1,0,2408.46,0.294196,0.29393,-0.598701,2,0.0219926,11,-0.000175976,-3.22279,-0.0614841,-0.959598,0.294409,
2,0,0,1,0,2408.5,0.292696,0.292426,-0.632305,2,0.0219691,11,-0.000184903,-3.19907,-0.0615612,-0.958397,0.292932,
2,0,0,1,0,2408.54,0.291196,0.290867,-0.67717,2,0.0219444,11,-0.000196967,-3.1693,-0.067302,-0.876646,0.291409,
2,0,0,1,0,2408.57,0.2897,0.289402,-0.710159,2,0.0219184,11,-0.000205522,-3.14864,-0.076576,-0.770476,0.289971,
2,0,0,1,0,2408.61,0.288205,0.287885,-0.737123,2,0.0218913,11,-0.000212207,-3.13246,-0.0935064,-0.630973,0.288475,
2,0,0,1,0,2408.65,0.286701,0.286457,-0.757641,2,0.021863,11,-0.000217031,-3.12054,-0.101697,-0.580156,0.287063,
2,0,0,1,0,2408.69,0.285205,0.28486,-0.787074,2,0.0218341,11,-0.000224206,-3.10398,-0.114178,-0.516738,0.28549,
2,0,0,1,0,2408.72,0.283708,0.283419,-0.803669,2,0.0218042,11,-0.000227775,-3.09492,-0.125237,-0.471106,0.284062,
2,0,0,1,0,2408.76,0.282208,0.281907,-0.823329,2,0.0217734,11,-0.000232102,-3.08443,-0.161702,-0.364869,0.282566,
2,0,0,1,0,2408.8,0.280709,0.280443,-0.841439,2,0.0217418,11,-0.000235975,-3.07498,-0.154722,-0.38133,0.281116,
2,0,0,1,0,2408.84,0.279212,0.278973,-0.862818,2,0.0217098,11,-0.000240703,-3.06408,-0.164554,-0.358544,0.279664,
2,0,0,1,0,2408.87,0.277716,0.277418,-0.88839,2,0.0216769,11,-0.000246455,-3.0514,-0.178471,-0.330586,0.278129,
2,0,0,1,0,2408.91,0.276216,0.275915,-0.905739,2,0.0216433,11,-0.000249907,-3.043,-0.181207,-0.325594,0.27664,
2,0,0,1,0,2408.95,0.274716,0.274439,-0.920528,2,0.021609,11,-0.000252629,-3.03596,-0.196829,-0.299752,0.275176,
2,0,0,1,0,2408.99,0.27322,0.272945,-0.93342,2,0.0215744,11,-0.000254772,-3.02992,-0.205594,-0.286973,0.273692,
2,0,0,1,0,2409.02,0.271725,0.27142,-0.948182,2,0.021539,11,-0.000257356,-3.02311,-0.155014,-0.380611,0.272179,
2,0,0,1,0,2409.06,0.270221,0.269908,-0.960994,2,0.0215028,11,-0.00025938,-3.01728,-0.213362,-0.276526,0.270677,
2,0,0,1,0,2409.1,0.268725,0.268465,-0.974285,2,0.0214662,11,-0.000261562,-3.01131,-0.288079,-0.204805,0.269245,
2,0,0,1,0,2409.14,0.267228,0.26695,-0.983472,2,0.0214293,11,-0.000262538,-3.00724,-0.261967,-0.225219,0.267737,
2,0,0,1,0,2409.17,0.265728,0.265432,-1.0096,2,0.0213917,11,-0.000267979,-2.99585,-0.242084,-0.243717,0.26624,
2,0,0,1,0,2409.21,0.264228,0.263926,-1.02618,2,0.0213535,11,-0.000270836,-2.98878,-0.25353,-0.232714,0.264747,
2,0,0,1,0,2409.25,0.262732,0.26245,-1.03731,2,0.0213149,11,-0.000272244,-2.98409,-0.449785,-0.131174,0.26328,
2,0,0,1,0,2409.29,0.261236,0.260932,-1.04466,2,0.0212758,11,-0.000272586,-2.98102,-0.294344,-0.200446,0.261768,
2,0,0,1,0,2409.32,0.259736,0.259449,-1.0566,2,0.0212363,11,-0.000274134,-2.97609,-0.254598,-0.231738,0.260294,
2,0,0,1,0,2409.36,0.258236,0.257954,-1.06948,2,0.0211962,11,-0.000275876,-2.97083,-0.273571,-0.215666,0.25881,
2,0,0,1,0,2409.4,0.256741,0.256456,-1.08066,2,0.0211555,11,-0.000277141,-2.96631,-0.347135,-0.169963,0.257321,
2,0,0,1,0,2409.44,0.255241,0.254922,-1.09494,2,0.0211145,11,-0.000279125,-2.96061,-0.332433,-0.17748,0.255798,
2,0,0,1,0,2409.47,0.253741,0.253471,-1.11298,2,0.021073,11,-0.000282107,-2.95351,-0.313357,-0.188284,0.254361,
2,0,0,1,0,2409.51,0.252245,0.251927,-1.12706,2,0.0210311,11,-0.000283938,-2.94805,-0.261998,-0.225193,0.252829,
2,0,0,1,0,2409.55,0.250748,0.250425,-1.13862,2,0.0209888,11,-0.000285139,-2.94362,-0.341838,-0.172596,0.251336,
2,0,0,1,0,2409.59,0.249248,0.248937,-1.14739,2,0.0209458,11,-0.000285629,-2.94029,-0.345752,-0.170643,0.249855,
2,0,0,1,0,2409.62,0.247748,0.247461,-1.14895,2,0.0209026,11,-0.000284319,-2.9397,-0.353726,-0.166796,0.24838,
2,0,0,1,0,2409.66,0.246252,0.24596,-1.16506,2,0.020859,11,-0.000286557,-2.93365,-0.262481,-0.224779,0.246892,
2,0,0,1,0,2409.7,0.244756,0.244456,-1.18588,2,0.0208148,11,-0.000289896,-2.92596,-0.296753,-0.198819,0.245404,
2,0,0,1,0,2409.74,0.243252,0.242983,-1.19568,2,0.0207699,11,-0.000290531,-2.92238,-0.499034,-0.118228,0.24394,
2,0,0,1,0,2409.77,0.241756,0.241429,-1.20174,2,0.0207249,11,-0.000290136,-2.92019,-0.300377,-0.19642,0.24239,
2,0,0,1,0,2409.81,0.240261,0.239984,-1.22255,2,0.0206796,11,-0.000293391,-2.91273,-0.327393,-0.180212,0.240962,
2,0,0,1,0,2409.85,0.238761,0.238467,-1.22995,2,0.0206335,11,-0.000293302,-2.91011,-0.30005,-0.196634,0.239451,
2,0,0,1,0,2409.89,0.237261,0.236965,-1.23801,2,0.020587,11,-0.000293367,-2.90727,-0.537211,-0.109827,0.237956,
2,0,0,1,0,2409.92,0.235765,0.235475,-1.24501,2,0.0205402,11,-0.00029317,-2.90483,-0.357708,-0.164939,0.236471,
2,0,0,1,0,2409.96,0.234268,0.233986,-1.26158,2,0.0204932,11,-0.000295193,-2.89908,-0.345193,-0.170919,0.234996,
2,0,0,1,0,2410,0.232768,0.232469,-1.27479,2,0.0204453,11,-0.000296348,-2.89456,-0.276315,-0.213524,0.233488,
2,0,0,1,0,2410.04,0.231268,0.230989,-1.29177,2,0.0203969,11,-0.000298385,-2.88881,-0.475281,-0.124137,0.232022,
2,0,0,1,0,2410.07,0.229772,0.229459,-1.30834,2,0.0203482,11,-0.000300211,-2.88328,-0.416989,-0.141491,0.230506,
2,0,0,1,0,2410.11,0.228275,0.22797,-1.31976,2,0.0202992,11,-0.000300866,-2.87951,-0.435462,-0.135488,0.229026,
2,0,0,1,0,2410.15,0.226772,0.226491,-1.33311,2,0.0202493,11,-0.000301938,-2.87513,-0.263781,-0.223671,0.227557,
2,0,0,1,0,2410.19,0.225276,0.22499,-1.34223,2,0.0201992,11,-0.000301988,-2.87217,-0.322752,-0.182803,0.226063,
2,0,0,1,0,2410.22,0.223781,0.223487,-1.349,2,0.0201486,11,-0.000301484,-2.86999,-0.35401,-0.166662,0.224566,
2,0,0,1,0,2410.26,0.222281,0.221977,-1.35975,2,0.0200973,11,-0.000301832,-2.86654,-0.313066,-0.188459,0.223064,
2,0,0,1,0,2410.3,0.220781,0.220472,-1.38641,2,0.0200455,11,-0.000305666,-2.85811,-0.262042,-0.225155,0.221581,
2,0,0,1,0,2410.33,0.219284,0.219002,-1.40801,2,0.0199932,11,-0.000308357,-2.85139,-0.289467,-0.203823,0.220128,
2,0,0,1,0,2410.37,0.217788,0.217491,-1.42178,2,0.0199402,11,-0.000309225,-2.84717,-0.383454,-0.153864,0.218628,
2,0,0,1,0,2410.41,0.216288,0.215975,-1.42455,2,0.0198867,11,-0.000307668,-2.84632,-0.336687,-0.175237,0.217115,
2,0,0,1,0,2410.45,0.214788,0.21452,-1.4516,2,0.0198327,11,-0.000311397,-2.83815,-0.315547,-0.186977,0.215681,
2,0,0,1,0,2410.48,0.213292,0.212979,-1.4685,2,0.019778,11,-0.00031276,-2.83312,-0.25557,-0.230856,0.214154,
2,0,0,1,0,2410.52,0.211796,0.211489,-1.47852,2,0.0197227,11,-0.00031269,-2.83017,-0.32372,-0.182256,0.212672,
2,0,0,1,0,2410.56,0.210293,0.209991,-1.4994,2,0.0196664,11,-0.000314861,-2.82408,-0.27572,-0.213985,0.211191,
2,0,0,1,0,2410.6,0.208797,0.208504,-1.51874,2,0.0196098,11,-0.000316662,-2.81852,-0.218668,-0.269815,0.209719,
2,0,0,1,0,2410.63,0.207301,0.206995,-1.54223,2,0.0195525,11,-0.000319233,-2.81185,-0.236341,-0.249639,0.208229,
2,0,0,1,0,2410.67,0.205801,0.205519,-1.57168,2,0.0194938,11,-0.000323009,-2.80364,-0.235474,-0.250558,0.206776,
2,0,0,1,0,2410.71,0.204301,0.20402,-1.59134,2,0.0194346,11,-0.000324665,-2.79824,-0.28906,-0.20411,0.205293,
2,0,0,1,0,2410.75,0.202804,0.202544,-1.60412,2,0.0193749,11,-0.000324905,-2.79476,-0.241619,-0.244186,0.203828,
2,0,0,1,0,2410.78,0.201308,0.201028,-1.62721,2,0.0193142,11,-0.000327114,-2.78856,-0.201356,-0.293013,0.202329,
2,0,0,1,0,2410.82,0.199808,0.19951,-1.65084,2,0.0192524,11,-0.000329358,-2.7823,-0.218883,-0.269551,0.20083,
2,0,0,1,0,2410.86,0.198308,0.197998,-1.67902,2,0.0191897,11,-0.000332443,-2.77494,-0.21308,-0.276892,0.199341,
2,0,0,1,0,2410.9,0.196812,0.196527,-1.70469,2,0.0191261,11,-0.000335017,-2.76836,-0.19808,-0.297859,0.197891,
2,0,0,1,0,2410.93,0.195316,0.195028,-1.74244,2,0.0190615,11,-0.000339824,-2.75884,-0.171803,-0.343417,0.196422,
2,0,0,1,0,2410.97,0.193813,0.193472,-1.78996,2,0.0189952,11,-0.000346308,-2.74716,-0.164761,-0.358094,0.194904,
2,0,0,1,0,2411.01,0.192317,0.192019,-1.80944,2,0.0189279,11,-0.000347447,-2.74246,-0.179844,-0.328063,0.193467,
2,0,0,1,0,2411.05,0.190821,0.190506,-1.83678,2,0.0188595,11,-0.000349917,-2.73594,-0.170623,-0.345792,0.191975,
2,0,0,1,0,2411.08,0.189321,0.189012,-1.8774,2,0.0187896,11,-0.000354853,-2.72644,-0.161391,-0.365572,0.190514,
2,0,0,1,0,2411.12,0.187821,0.187542,-1.91922,2,0.0187181,11,-0.000359936,-2.71687,-0.153299,-0.384869,0.189078,
2,0,0,1,0,2411.16,0.186324,0.186042,-1.96668,2,0.0186452,11,-0.000365886,-2.70627,-0.159631,-0.369602,0.187615,
2,0,0,1,0,2411.2,0.184828,0.184523,-2.01944,2,0.0185705,11,-0.000372632,-2.69477,-0.142724,-0.413385,0.186138,
2,0,0,1,0,2411.23,0.183328,0.183018,-2.06361,2,0.0184941,11,-0.000377679,-2.68537,-0.135644,-0.434963,0.184669,
2,0,0,1,0,2411.27,0.181828,0.181558,-2.12883,2,0.0184155,11,-0.000386505,-2.67186,-0.120867,-0.488141,0.183261,
2,0,0,1,0,2411.31,0.180332,0.180038,-2.18945,2,0.0183349,11,-0.000394184,-2.65966,-0.115641,-0.510199,0.18179,
2,0,0,1,0,2411.35,0.178836,0.178528,-2.24058,2,0.0182521,11,-0.000400006,-2.64964,-0.114128,-0.516963,0.18032,
2,0,0,1,0,2411.38,0.177333,0.177025,-2.29659,2,0.0181666,11,-0.000406552,-2.63892,-0.107515,-0.54876,0.178862,
2,0,0,1,0,2411.42,0.175837,0.175536,-2.37251,2,0.0180788,11,-0.000416462,-2.62479,-0.0980686,-0.60162,0.177434,
2,0,0,1,0,2411.46,0.174341,0.174037,-2.46027,2,0.0179881,11,-0.000428178,-2.60902,-0.0969028,-0.608858,0.176005,
2,0,0,1,0,2411.5,0.172841,0.172555,-2.54989,2,0.017894,11,-0.000439997,-2.59348,-0.0951807,-0.619874,0.174595,
2,0,0,1,0,2411.53,0.171341,0.171042,-2.63669,2,0.0177966,11,-0.000450986,-2.57894,-0.091188,-0.647015,0.173152,
2,0,0,1,0,2411.57,0.169844,0.169556,-2.74407,2,0.017696,11,-0.000465275,-2.5616,-0.0813718,-0.725067,0.171752,
2,0,0,1,0,2411.61,0.168348,0.168067,-2.86493,2,0.0175911,11,-0.000481499,-2.54289,-0.0773101,-0.76316,0.170359,
2,0,0,1,0,2411.65,0.166848,0.166547,-2.98034,2,0.0174814,11,-0.000496367,-2.52573,-0.0778861,-0.757516,0.168932,
2,0,0,1,0,2411.68,0.165348,0.165039,-3.10102,2,0.017367,11,-0.00051179,-2.5085,-0.0729934,-0.808292,0.16752,
2,0,0,1,0,2411.72,0.163852,0.163556,-3.24324,2,0.0172482,11,-0.00053045,-2.48902,-0.069129,-0.853477,0.16615,
2,0,0,1,0,2411.76,0.162357,0.162046,-3.40323,2,0.0171237,11,-0.000551478,-2.46811,-0.0651639,-0.905409,0.164768,
2,0,0,1,0,2411.8,0.160853,0.160574,-3.57239,2,0.0169922,11,-0.000573633,-2.44704,-0.0661553,-0.891841,0.163432,
2,0,0,1,0,2411.83,0.159357,0.159084,-3.75676,2,0.0168551,11,-0.000597639,-2.42519,-0.0647296,-0.911484,0.162089,
2,0,0,1,0,2411.87,0.157861,0.157562,-3.93472,2,0.0167115,11,-0.000619963,-2.40509,-0.0625404,-0.943391,0.16071,
2,0,0,1,0,2411.91,0.156361,0.156089,-4.13622,2,0.01656,11,-0.000645619,-2.3834,-0.0606957,-0.972062,0.159398,
2,0,0,1,0,2411.95,0.154861,0.154582,-4.35374,2,0.0164005,11,-0.000673012,-2.36114,-0.0624676,-0.94449,0.158065,
2,0,0,1,0,2411.98,0.153364,0.153098,-4.5494,2,0.0162339,11,-0.000696504,-2.34205,-0.0650767,-0.906623,0.156737,
2,0,0,1,0,2412.02,0.151868,0.151559,-4.7673,2,0.0160593,11,-0.000722527,-2.32173,-0.0649751,-0.908041,0.155373,
2,0,0,1,0,2412.06,0.150368,0.150112,-5.00806,2,0.0158757,11,-0.000751771,-2.30033,-0.0673292,-0.876292,0.154119,
2,0,0,1,0,2412.1,0.148868,0.148591,-5.23407,2,0.0156836,11,-0.000777736,-2.28116,-0.0722383,-0.816742,0.152778,
2,0,0,1,0,2412.13,0.147372,0.147079,-5.45443,2,0.0154838,11,-0.000802232,-2.26325,-0.078298,-0.753531,0.151443,
2,0,0,1,0,2412.17,0.145877,0.14558,-5.64686,2,0.0152759,11,-0.000822072,-2.24819,-0.0840451,-0.702004,0.150098,
2,0,0,1,0,2412.21,0.144373,0.144084,-5.85383,2,0.0150594,11,-0.000843443,-2.23256,-0.090114,-0.654726,0.148767,
2,0,0,1,0,2412.25,0.142877,0.142556,-6.05373,2,0.0148364,11,-0.000862998,-2.21798,-0.0969033,-0.608854,0.147399,
2,0,0,1,0,2412.28,0.14138,0.141076,-6.23333,2,0.0146062,11,-0.000879371,-2.20528,-0.117129,-0.503719,0.146062,
2,0,0,1,0,2412.32,0.13988,0.139579,-6.3981,2,0.0143689,11,-0.000893039,-2.19395,-0.131317,-0.449294,0.144697,
2,0,0,1,0,2412.36,0.13838,0.138104,-6.54733,2,0.014126,11,-0.000904212,-2.18394,-0.151952,-0.388279,0.143342,
2,0,0,1,0,2412.39,0.136884,0.136558,-6.68885,2,0.0138783,11,-0.000913418,-2.17465,-0.174371,-0.338359,0.141909,
2,0,0,1,0,2412.43,0.135388,0.13505,-6.80272,2,0.013626,11,-0.000918709,-2.16732,-0.221715,-0.266108,0.140492,
2,0,0,1,0,2412.47,0.133888,0.133567,-6.89062,2,0.0133692,11,-0.000920362,-2.16174,-0.306599,-0.192433,0.13908,
2,0,0,1,0,2412.51,0.132389,0.13211,-6.9406,2,0.0131098,11,-0.00091692,-2.1586,-0.427158,-0.138122,0.137662,
2,0,0,1,0,2412.54,0.130893,0.130615,-6.98441,2,0.0128491,11,-0.000912266,-2.15587,-0.666929,-0.0884652,0.136202,
2,0,0,1,0,2412.58,0.129393,0.12914,-7.008,2,0.0125863,11,-0.000905012,-2.15441,-2.28593,-0.02581,0.134746,
2,0,0,1,0,2412.62,0.127893,0.127583,-7.00436,2,0.0123232,11,-0.000893636,-2.15463,0.990609,0.0595593,0.133186,
2,0,0,1,0,2412.66,0.126397,0.126086,-6.95953,2,0.0120617,11,-0.000877502,-2.15742,0.496123,0.118922,0.131654,
2,0,0,1,0,2412.69,0.1249,0.12462,-6.91135,2,0.0118021,11,-0.00086129,-2.16044,0.34606,0.170491,0.130149,
2,0,0,1,0,2412.73,0.1234,0.123104,-6.82793,2,0.0115444,11,-0.000840546,-2.16571,0.25087,0.235181,0.128567,
2,0,0,1,0,2412.77,0.1219,0.121612,-6.71047,2,0.0112904,11,-0.000816074,-2.17325,0.195779,0.301361,0.126981,
2,0,0,1,0,2412.81,0.120404,0.12012,-6.56338,2,0.0110418,11,-0.000788395,-2.18287,0.164132,0.359468,0.125371,
2,0,0,1,0,2412.84,0.118908,0.118612,-6.41662,2,0.0107988,11,-0.000761087,-2.19269,0.14633,0.403197,0.123745,
2,0,0,1,0,2412.88,0.117404,0.117108,-6.24491,2,0.0105606,11,-0.000731327,-2.20447,0.137916,0.427797,0.122104,
2,0,0,1,0,2412.92,0.115909,0.115619,-6.07001,2,0.01033,11,-0.000701806,-2.21681,0.12393,0.476075,0.120475,
2,0,0,1,0,2412.96,0.114413,0.114098,-5.87848,2,0.0101064,11,-0.000670724,-2.23074,0.114381,0.515819,0.118801,
2,0,0,1,0,2412.99,0.112913,0.11265,-5.67758,2,0.00988989,11,-0.00063958,-2.24584,0.111587,0.528736,0.117192,
2,0,0,1,0,2413.03,0.111413,0.1111,-5.48971,2,0.00968048,11,-0.000609909,-2.26045,0.11462,0.514745,0.115492,
2,0,0,1,0,2413.07,0.109917,0.109577,-5.30888,2,0.00947841,11,-0.000581733,-2.275,0.114207,0.516606,0.113825,
2,0,0,1,0,2413.11,0.10842,0.108121,-5.13962,2,0.0092829,11,-0.000555703,-2.28907,0.115809,0.509461,0.112233,
2,0,0,1,0,2413.14,0.10692,0.106611,-4.97105,2,0.0090932,11,-0.000529968,-2.30355,0.124157,0.475204,0.110588,
2,0,0,1,0,2413.18,0.10542,0.105138,-4.83084,2,0.00890912,11,-0.000507906,-2.31598,0.136714,0.431556,0.109003,
2,0,0,1,0,2413.22,0.103924,0.103605,-4.71362,2,0.00873041,11,-0.000488355,-2.32665,0.144102,0.409433,0.107376,
2,0,0,1,0,2413.26,0.102427,0.10216,-4.60241,2,0.00855615,11,-0.000470182,-2.33701,0.147785,0.399229,0.105842,
2,0,0,1,0,2413.29,0.100924,0.100668,-4.48619,2,0.0083852,11,-0.000451617,-2.34812,0.165309,0.356907,0.104257,
2,0,0,1,0,2413.33,0.0994284,0.0991586,-4.40038,2,0.00821896,11,-0.000436335,-2.35651,0.186698,0.316019,0.102679,
2,0,0,1,0,2413.37,0.0979329,0.0976124,-4.3184,2,0.0080558,11,-0.000421529,-2.36468,0.203577,0.289817,0.101067,
2,0,0,1,0,2413.41,0.0964329,0.0960954,-4.24176,2,0.0078951,11,-0.000407614,-2.37245,0.205654,0.28689,0.0994889,
2,0,0,1,0,2413.44,0.094933,0.0946423,-4.16569,2,0.00773711,11,-0.00039425,-2.38031,0.222596,0.265054,0.0979748,
2,0,0,1,0,2413.48,0.0934366,0.0931301,-4.10539,2,0.00758211,11,-0.000382335,-2.38665,0.251307,0.234773,0.0964144,
2,0,0,1,0,2413.52,0.0919401,0.0915973,-4.06262,2,0.00742915,11,-0.000372125,-2.39119,0.277857,0.212339,0.0948474,
2,0,0,1,0,2413.56,0.0904402,0.0901419,-4.01434,2,0.00727761,11,-0.00036186,-2.39639,0.258089,0.228603,0.0933533,
2,0,0,1,0,2413.59,0.0889402,0.0886129,-3.96508,2,0.00712797,11,-0.000351357,-2.40175,0.273648,0.215606,0.091785,
2,0,0,1,0,2413.63,0.0874438,0.0870881,-3.90927,2,0.00698094,11,-0.000340451,-2.4079,0.295528,0.199643,0.0902155,
2,0,0,1,0,2413.67,0.0859483,0.085638,-3.86285,2,0.00683546,11,-0.000330807,-2.41309,0.351271,0.167961,0.0887283,
2,0,0,1,0,2413.71,0.0844447,0.0841362,-3.82063,2,0.00669078,11,-0.000321453,-2.41787,0.320706,0.183969,0.0871927,
2,0,0,1,0,2413.74,0.0829492,0.0826559,-3.77961,2,0.00654843,11,-0.000312407,-2.42255,0.296202,0.199188,0.0856796,
2,0,0,1,0,2413.78,0.0814528,0.0811726,-3.72743,2,0.0064079,11,-0.000302565,-2.42859,0.305758,0.192963,0.0841545,
2,0,0,1,0,2413.82,0.0799528,0.0796479,-3.69131,2,0.00626862,11,-0.000294005,-2.43282,0.338928,0.174078,0.0826009,
2,0,0,1,0,2413.86,0.0784529,0.0781043,-3.65618,2,0.00613076,11,-0.000285563,-2.43697,0.307599,0.191808,0.0810292,
2,0,0,1,0,2413.89,0.0769565,0.0766682,-3.61007,2,0.00599483,11,-0.000276777,-2.44248,0.26367,0.223764,0.0795562,
2,0,0,1,0,2413.93,0.0754601,0.0751781,-3.55289,2,0.00586076,11,-0.000267099,-2.44942,0.261142,0.225931,0.0780204,
2,0,0,1,0,2413.97,0.0739601,0.0736667,-3.51288,2,0.00572812,11,-0.000258782,-2.45434,0.284144,0.207641,0.076477,
2,0,0,1,0,2414.01,0.0724601,0.0721262,-3.46488,2,0.00559712,11,-0.000249908,-2.46031,0.271269,0.217496,0.0748981,
2,0,0,1,0,2414.04,0.0709637,0.0706877,-3.41756,2,0.00546814,11,-0.000241579,-2.46628,0.25097,0.235088,0.0734217,
2,0,0,1,0,2414.08,0.0694682,0.0691619,-3.37169,2,0.00534099,11,-0.000233193,-2.47215,0.249002,0.236946,0.0718592,
2,0,0,1,0,2414.12,0.0679646,0.0676438,-3.32342,2,0.00521511,11,-0.000224809,-2.47841,0.266096,0.221725,0.0703025,
2,0,0,1,0,2414.16,0.0664691,0.066171,-3.28187,2,0.00509155,11,-0.000217165,-2.48388,0.261952,0.225232,0.0687965,
2,0,0,1,0,2414.19,0.0649727,0.0646728,-3.2363,2,0.00496955,11,-0.0002093,-2.48995,0.235307,0.250736,0.0672618,
2,0,0,1,0,2414.23,0.0634727,0.0631837,-3.18831,2,0.00484902,11,-0.000201449,-2.49644,0.222637,0.265005,0.0657344,
2,0,0,1,0,2414.27,0.0619728,0.061671,-3.13261,2,0.00473048,11,-0.000193191,-2.50409,0.23331,0.252883,0.0641771,
2,0,0,1,0,2414.31,0.0604764,0.0601336,-3.08983,2,0.00461388,11,-0.000185803,-2.51007,0.268855,0.21945,0.0626055,
2,0,0,1,0,2414.34,0.05898,0.0586971,-3.0533,2,0.00449878,11,-0.00017922,-2.51523,0.264538,0.22303,0.0611397,
2,0,0,1,0,2414.38,0.05748,0.0571781,-3.01668,2,0.00438485,11,-0.000172488,-2.52047,0.253336,0.232892,0.0595914,
2,0,0,1,0,2414.42,0.05598,0.055646,-2.97303,2,0.00427253,11,-0.000165437,-2.5268,0.29396,0.200708,0.0580244,
2,0,0,1,0,2414.45,0.0544836,0.0542271,-2.94275,2,0.00416197,11,-0.000159577,-2.53125,0.348412,0.16934,0.0565813,
2,0,0,1,0,2414.49,0.0529881,0.0526946,-2.91548,2,0.00405236,11,-0.00015363,-2.53529,0.340783,0.173131,0.055027,
2,0,0,1,0,2414.53,0.0514846,0.0511755,-2.87569,2,0.0039434,11,-0.000147165,-2.54126,0.319178,0.18485,0.0534761,
2,0,0,1,0,2414.57,0.049989,0.0496673,-2.83347,2,0.00383627,11,-0.000140731,-2.54768,0.348126,0.169479,0.051934,
2,0,0,1,0,2414.6,0.0484926,0.0481563,-2.81226,2,0.00373034,11,-0.000135428,-2.55094,0.399725,0.147601,0.0504061,
2,0,0,1,0,2414.64,0.0469927,0.0466697,-2.79677,2,0.00362488,11,-0.000130524,-2.55334,0.445487,0.132439,0.0489071,
2,0,0,1,0,2414.68,0.0454927,0.0451938,-2.77774,2,0.00352017,11,-0.000125537,-2.55631,0.412543,0.143016,0.047416,
2,0,0,1,0,2414.72,0.0439963,0.0436997,-2.75932,2,0.00341657,11,-0.000120581,-2.5592,0.445521,0.132429,0.0459072,
2,0,0,1,0,2414.75,0.0424999,0.0421787,-2.74121,2,0.00331388,11,-0.000115621,-2.56206,0.678139,0.0870028,0.0443717,
2,0,0,1,0,2414.79,0.0409999,0.0407372,-2.72674,2,0.00321136,11,-0.00011108,-2.56436,0.932247,0.0632879,0.0429186,
2,0,0,1,0,2414.83,0.0394999,0.0391853,-2.71712,2,0.00310913,11,-0.000106471,-2.56589,0.750275,0.0786379,0.0413589,
2,0,0,1,0,2414.87,0.0380044,0.0376799,-2.70237,2,0.00300768,11,-0.000101825,-2.56826,0.868569,0.0679278,0.0398418,
2,0,0,1,0,2414.9,0.0365089,0.0362284,-2.68381,2,0.00290692,11,-9.72302e-05,-2.57125,0.972083,0.0606944,0.0383755,
2,0,0,1,0,2414.94,0.0350054,0.0347345,-2.68114,2,0.00280583,11,-9.31279e-05,-2.57168,4.74215,0.0124416,0.0368794,
2,0,0,1,0,2414.98,0.033509,0.0332041,-2.6803,2,0.00270551,11,-8.89969e-05,-2.57182,1.99431,0.0295841,0.0353483,
2,0,0,1,0,2415.02,0.0320125,0.0316718,-2.6705,2,0.00260531,11,-8.45796e-05,-2.57341,1.40745,0.0419198,0.0338082,
2,0,0,1,0,2415.05,0.0305126,0.0302254,-2.66322,2,0.00250523,11,-8.04969e-05,-2.57459,1.88613,0.031281,0.032356,
2,0,0,1,0,2415.09,0.0290126,0.0286993,-2.66411,2,0.00240528,11,-7.6458e-05,-2.57445,-5.07031,-0.0116364,0.0308306,
2,0,0,1,0,2415.13,0.0275162,0.0272095,-2.66521,2,0.00230546,11,-7.2519e-05,-2.57427,-39.8103,-0.00148203,0.0293417,
2,0,0,1,0,2415.17,0.0260198,0.0257239,-2.66126,2,0.0022056,11,-6.84582e-05,-2.57491,2.65063,0.0222588,0.0278529,
2,0,0,1,0,2415.2,0.0245198,0.0242146,-2.64974,2,0.00210565,11,-6.41625e-05,-2.5768,29.2503,0.00201707,0.0263344,
2,0,0,1,0,2415.24,0.0230198,0.0227374,-2.66245,2,0.0020058,11,-6.05374e-05,-2.57472,-3.79292,-0.0155553,0.0248674,
2,0,0,1,0,2415.28,0.0215243,0.0212212,-2.66987,2,0.00190593,11,-5.66578e-05,-2.57351,-1.70995,-0.034504,0.0233571,
2,0,0,1,0,2415.32,0.0200288,0.019692,-2.67442,2,0.00180589,11,-5.26645e-05,-2.57277,-11.2959,-0.00522315,0.0218315,
2,0,0,1,0,2415.35,0.0185253,0.0182156,-2.68024,2,0.00170516,11,-4.88222e-05,-2.57183,-1.89021,-0.0312134,0.0203598,
2,0,0,1,0,2415.39,0.0170289,0.0166977,-2.67646,2,0.00160499,11,-4.46906e-05,-2.57244,-1.07379,-0.0549456,0.0188388,
2,0,0,1,0,2415.43,0.0155325,0.0152174,-2.68413,2,0.00150444,11,-4.08453e-05,-2.5712,-1.04878,-0.0562559,0.0173647,
2,0,0,1,0,2415.47,0.0140325,0.0137363,-2.693,2,0.00140318,11,-3.69919e-05,-2.56976,-1.45384,-0.0405821,0.0158907,
2,0,0,1,0,2415.5,0.0125325,0.0121883,-2.70074,2,0.00130175,11,-3.29174e-05,-2.56852,-2.18461,-0.0270072,0.0143489,
2,0,0,1,0,2415.54,0.0110361,0.0107104,-2.70697,2,0.00120055,11,-2.89927e-05,-2.56752,-1.25834,-0.0468873,0.012876,
2,0,0,1,0,2415.58,0.0095397,0.00924254,-2.72479,2,0.00109894,11,-2.5184e-05,-2.56467,-0.656289,-0.0898994,0.0114224,
2,0,0,1,0,2415.62,0.00803616,0.0077585,-2.73553,2,0.000996343,11,-2.12236e-05,-2.56296,-0.801458,-0.0736158,0.00994692,
2,0,0,1,0,2415.65,0.00654064,0.00619487,-2.74035,2,0.000893851,11,-1.69761e-05,-2.56219,-0.939542,-0.0627965,0.00838715,
2,0,0,1,0,2415.69,0.00504513,0.00471288,-2.74383,2,0.000791108,11,-1.29313e-05,-2.56164,-0.923936,-0.0638572,0.00690794,
2,0,0,1,0,2415.73,0.00354515,0.00326343,-2.76137,2,0.000687666,11,-9.01154e-06,-2.55887,-0.310409,-0.190072,0.00547253,
2,0,0,1,0,2415.77,0.00204518,0.00168788,-2.84803,2,0.000583244,11,-4.80712e-06,-2.54546,-0.705479,-0.0836311,0.0039663,
2,0,0,1,0,2415.8,0.000548773,0.000183217,-2.80368,2,0.0004776,11,-5.13683e-07,-2.55227, , ,0.00242616,
2,0,0,1,0,2415.81,0.000177222,-0.000152392,-2.79668,2,0.00045151,11,4.26193e-07,-2.55336, , ,0.00208495,