File: Figure_codes/Fig_S3_S4/20221101_1-115_002_TrumpetPlot_ParaChange_16_CV_C01_1.csv
mode,ox/red,error,control changes,counter inc.,time/s,control/V,Ewe/V,<I>/mA,cycle number,(Q-Qo)/C,I Range,P/W,log(|I|),Tafel slope mV/dec,alpha_eff,E-IR/V,
2,1,0,1,0,2450.71,2.44065e-05,-0.00168052,58.7768,2,0.0000000E+000,10,-9.87758e-05,-1.23079, , ,-0.048702,
2,1,0,1,0,2450.71,0.00312067,0.00287074,57.7692,2,0.000182065,10,0.000165841,-1.2383, , ,-0.0433446,
2,1,0,1,0,2450.71,0.00711584,0.00678576,56.8781,2,0.000410961,10,0.000385961,-1.24506, , ,-0.0387167,
2,1,0,1,0,2450.72,0.011111,0.0107888,56.6564,2,0.000637924,10,0.000611255,-1.24675,-2.1452,-0.0275032,-0.0345364,
2,1,0,1,0,2450.72,0.0151062,0.0147303,56.6103,2,0.000864393,10,0.000833888,-1.2471,14.0956,0.0041857,-0.0305579,
2,1,0,1,0,2450.73,0.0191014,0.0187079,56.7456,2,0.00109108,10,0.00106159,-1.24607,4.24033,0.013914,-0.0266886,
2,1,0,1,0,2450.73,0.0231465,0.0227915,57.0259,2,0.00131871,10,0.00129971,-1.24393,3.04366,0.0193845,-0.0228292,
2,1,0,1,0,2450.73,0.0271416,0.0267787,57.1386,2,0.00154706,10,0.00153009,-1.24307,3.3656,0.0175303,-0.0189322,
2,1,0,1,0,2450.74,0.0311368,0.0307976,57.2794,2,0.00177595,10,0.00176407,-1.242,5.61034,0.0105163,-0.0150259,
2,1,0,1,0,2450.74,0.035132,0.0348112,57.3551,2,0.00200522,10,0.0019966,-1.24143,6.92147,0.0085242,-0.0110728,
2,1,0,1,0,2450.75,0.0391272,0.0387856,57.3945,2,0.00223473,10,0.00222608,-1.24113,19.6686,0.0029997,-0.00712995,
2,1,0,1,0,2450.75,0.0431223,0.0427728,57.4388,2,0.0024644,10,0.00245682,-1.24079,108.273,0.00054492,-0.00317827,
2,1,0,1,0,2450.75,0.0471175,0.0467238,57.3857,2,0.00269406,10,0.00268128,-1.2412,23.8135,0.00247759,0.000815266,
2,1,0,1,0,2450.76,0.0511127,0.0506686,57.3744,2,0.0029235,10,0.00290708,-1.24128,14.1747,0.00416235,0.00476903,
2,1,0,1,0,2450.76,0.0551079,0.0547681,57.4829,2,0.00315324,10,0.00314823,-1.24046,5.39089,0.0109444,0.0087818,
2,1,0,1,0,2450.77,0.059103,0.0587839,57.5873,2,0.0033834,10,0.0033852,-1.23967,4.23289,0.0139385,0.012714,
2,1,0,1,0,2450.77,0.0631481,0.062842,57.7745,2,0.00361406,10,0.00363067,-1.23826,4.18268,0.0141058,0.0166224,
2,1,0,1,0,2450.77,0.0671433,0.0668387,57.8689,2,0.00384534,10,0.00386788,-1.23756,3.63609,0.0162262,0.0205436,
2,1,0,1,0,2450.78,0.0711385,0.0708534,57.9814,2,0.00407706,10,0.00410818,-1.23671,3.23657,0.0182292,0.0244683,
2,1,0,1,0,2450.78,0.0751337,0.0748257,58.1584,2,0.00430933,10,0.00435174,-1.23539,2.3124,0.0255147,0.0282989,
2,1,0,1,0,2450.79,0.0791288,0.0788171,58.4136,2,0.00454247,10,0.00460399,-1.23349,1.69505,0.0348072,0.0320862,
2,1,0,1,0,2450.79,0.083124,0.0828148,58.7553,2,0.00477682,10,0.00486581,-1.23095,1.32965,0.0443726,0.0358105,
2,1,0,1,0,2450.79,0.0871192,0.0867712,59.1722,2,0.00501269,10,0.00513444,-1.22788,1.06566,0.0553648,0.0394334,
2,1,0,1,0,2450.8,0.0911143,0.0908039,59.6654,2,0.00525038,10,0.00541785,-1.22428,0.878543,0.0671566,0.0430715,
2,1,0,1,0,2450.8,0.0951095,0.0947857,60.2705,2,0.0054903,10,0.00571278,-1.2199,0.729632,0.0808627,0.0465693,
2,1,0,1,0,2450.81,0.0991047,0.0987972,60.9832,2,0.00573286,10,0.00602497,-1.21479,0.601734,0.09805,0.0500107,
2,1,0,1,0,2450.81,0.103114,0.10278,61.8233,2,0.00597852,10,0.0063542,-1.20885,0.527123,0.111928,0.0533215,
2,1,0,1,0,2450.81,0.107145,0.106856,62.8331,2,0.006228,10,0.00671411,-1.20181,0.470192,0.125481,0.0565898,
2,1,0,1,0,2450.82,0.11114,0.110805,63.8382,2,0.0064814,10,0.00707361,-1.19492,0.422303,0.13971,0.0597347,
2,1,0,1,0,2450.82,0.115135,0.114843,64.951,2,0.00673907,10,0.00745919,-1.18741,0.391146,0.150839,0.0628825,
2,1,0,1,0,2450.83,0.119131,0.118765,66.1827,2,0.00700143,10,0.00786017,-1.17926,0.358802,0.164436,0.0658185,
2,1,0,1,0,2450.83,0.123126,0.1228,67.5118,2,0.00726892,10,0.00829041,-1.17062,0.329803,0.178895,0.0687901,
2,1,0,1,0,2450.83,0.127121,0.126838,68.9303,2,0.00754194,10,0.00874295,-1.16159,0.309512,0.190623,0.0716933,
2,1,0,1,0,2450.84,0.131116,0.130808,70.4235,2,0.00782078,10,0.00921194,-1.15228,0.289896,0.203521,0.0744689,
2,1,0,1,0,2450.84,0.135111,0.134752,72.0035,2,0.00810579,10,0.00970265,-1.14265,0.271745,0.217115,0.0771496,
2,1,0,1,0,2450.85,0.139106,0.138769,73.6911,2,0.00839734,10,0.0102261,-1.13259,0.252335,0.233816,0.0798164,
2,1,0,1,0,2450.85,0.143102,0.142774,75.4734,2,0.0086958,10,0.0107757,-1.12221,0.239573,0.246271,0.0823957,
2,1,0,1,0,2450.85,0.147147,0.14681,77.4315,2,0.00900183,10,0.0113677,-1.11108,0.228287,0.258446,0.0848651,
2,1,0,1,0,2450.86,0.151142,0.150791,79.3752,2,0.00931562,10,0.0119691,-1.10032,0.215623,0.273626,0.0872909,
2,1,0,1,0,2450.86,0.155137,0.154814,81.4068,2,0.00963735,10,0.0126029,-1.08934,0.206747,0.285373,0.0896888,
2,1,0,1,0,2450.87,0.159132,0.158783,83.5642,2,0.0099675,10,0.0132686,-1.07798,0.194521,0.30331,0.091932,
2,1,0,1,0,2450.87,0.163127,0.162795,85.8407,2,0.0103065,10,0.0139744,-1.06631,0.182819,0.322724,0.0941223,
2,1,0,1,0,2450.87,0.167123,0.166762,88.2028,2,0.0106548,10,0.0147089,-1.05452,0.175123,0.336905,0.0961996,
2,1,0,1,0,2450.88,0.171118,0.170779,90.6684,2,0.0110128,10,0.0154842,-1.04254,0.16803,0.351127,0.0982439,
2,1,0,1,0,2450.88,0.175113,0.174816,93.2146,2,0.0113807,10,0.0162954,-1.03052,0.162287,0.363554,0.100244,
2,1,0,1,0,2450.89,0.179108,0.178802,95.8186,2,0.0117591,10,0.0171325,-1.01855,0.156876,0.376092,0.102147,
2,1,0,1,0,2450.89,0.183103,0.182796,98.5095,2,0.012148,10,0.0180072,-1.00652,0.156116,0.377924,0.103989,
2,1,0,1,0,2450.89,0.187146,0.186807,101.279,2,0.0125477,10,0.0189195,-0.994482,0.159449,0.370025,0.105784,
2,1,0,1,0,2450.9,0.191143,0.190815,103.964,2,0.0129586,10,0.0198379,-0.983117,0.16991,0.347243,0.107644,
2,1,0,1,0,2450.9,0.195139,0.19477,106.572,2,0.0133799,10,0.0207571,-0.972356,0.186458,0.316425,0.109513,
2,1,0,1,0,2450.91,0.199134,0.198814,109.107,2,0.0138116,10,0.0216919,-0.962148,0.209977,0.280984,0.111528,
2,1,0,1,0,2450.91,0.203129,0.202788,111.512,2,0.0142531,10,0.0226133,-0.952678,0.247907,0.237992,0.113578,
2,1,0,1,0,2450.91,0.207124,0.206772,113.703,2,0.0147038,10,0.0235106,-0.944228,0.307883,0.191632,0.11581,
2,1,0,1,0,2450.92,0.211119,0.210777,115.617,2,0.0151627,10,0.0243695,-0.936977,0.415115,0.142129,0.118283,
2,1,0,1,0,2450.92,0.215115,0.214811,117.177,2,0.0156286,10,0.0251709,-0.931158,0.619009,0.0953136,0.121069,
2,1,0,1,0,2450.93,0.21911,0.218826,118.28,2,0.0160997,10,0.0258828,-0.927087,1.14638,0.0514665,0.124201,
2,1,0,1,0,2450.93,0.223105,0.222811,118.856,2,0.0165742,10,0.0264825,-0.924977,4.86014,0.0121396,0.127726,
2,1,0,1,0,2450.93,0.227108,0.226789,118.789,2,0.0170497,10,0.0269401,-0.925223,-2.47594,-0.0238294,0.131758,
2,1,0,1,0,2450.94,0.231145,0.230903,118.035,2,0.0175236,10,0.0272547,-0.927988,-1.06782,-0.0552528,0.136474,
2,1,0,1,0,2450.94,0.23514,0.234869,116.363,2,0.0179925,10,0.0273299,-0.934187,-0.718767,-0.082085,0.141779,
2,1,0,1,0,2450.95,0.239136,0.23888,113.814,2,0.0184528,10,0.0271879,-0.943804,-0.555714,-0.10617,0.147829,
2,1,0,1,0,2450.95,0.243131,0.242919,110.411,2,0.0189012,10,0.0268208,-0.956989,-0.466432,-0.126492,0.154591,
2,1,0,1,0,2450.95,0.247126,0.24693,106.203,2,0.0193342,10,0.0262248,-0.973862,-0.405339,-0.145557,0.161967,
2,1,0,1,0,2450.96,0.251121,0.250984,101.23,2,0.0197488,10,0.0254071,-0.994691,-0.360596,-0.163618,0.17,
2,1,0,1,0,2450.96,0.255116,0.254961,95.6455,2,0.0201421,10,0.0243859,-1.01934,-0.326118,-0.180916,0.178445,
2,1,0,1,0,2450.97,0.259111,0.258954,89.6254,2,0.0205121,10,0.0232088,-1.04757,-0.297596,-0.198255,0.187253,
2,1,0,1,0,2450.97,0.263107,0.262973,83.3419,2,0.0208575,10,0.0219166,-1.07914,-0.275134,-0.214441,0.196299,
2,1,0,1,0,2450.97,0.267102,0.26697,76.9878,2,0.0211775,10,0.0205535,-1.11358,-0.254627,-0.231712,0.20538,
2,1,0,1,0,2450.98,0.271147,0.271018,70.809,2,0.0214724,10,0.0191905,-1.14991,-0.237827,-0.248079,0.214371,
2,1,0,1,0,2450.98,0.275142,0.274981,64.7762,2,0.0217429,10,0.0178122,-1.18858,-0.224146,-0.263221,0.22316,
2,1,0,1,0,2450.99,0.279137,0.279006,59.1793,2,0.0219901,10,0.0165114,-1.22783,-0.213075,-0.276898,0.231662,
2,1,0,1,0,2450.99,0.283132,0.282992,54.1128,2,0.0222161,10,0.0153135,-1.2667,-0.206752,-0.285366,0.239702,
2,1,0,1,0,2450.99,0.287128,0.286952,49.6395,2,0.022423,10,0.0142441,-1.30417,-0.203763,-0.289553,0.24724,
2,1,0,1,0,2451,0.291123,0.290949,45.7801,2,0.0226133,10,0.0133197,-1.33932,-0.206296,-0.285996,0.254325,
2,1,0,1,0,2451,0.295118,0.294924,42.5281,2,0.0227894,10,0.0125425,-1.37132,-0.208273,-0.283283,0.260901,
2,1,0,1,0,2451.01,0.298913,0.298748,40.0192,2,0.022946,10,0.0119557,-1.39773,-0.134458,-0.438798,0.266733,
2,1,0,1,0,2451.01,0.300012,0.299727,39.3524,2,0.0229897,10,0.011795,-1.40503,-0.0533984,-1.1049,0.268245,
2,1,0,1,0,2451.01,0.298714,0.298794,34.1123,2,0.0230354,10,0.0101926,-1.46709,-0.0248674,-2.37258,0.271504,
2,1,0,1,0,2451.01,0.294718,0.294796,18.9764,2,0.0231389,10,0.00559418,-1.72179,-0.0120674,-4.88922,0.279615,
2,1,0,1,0,2451.02,0.290723,0.290724,7.64751,2,0.0231902,10,0.00222332,-2.11648,-0.026175,-2.25406,0.284606,
2,1,0,1,0,2451.02,0.286728,0.28666,-1.00542,2,0.023202,10,-0.000288214,-2.99765,-0.0496014,-1.18948,0.287464,
2,0,0,1,0,2451.02,0.282733,0.282561,-7.57019,2,0.0231837,10,-0.00213904,-2.12089,0.00900879,6.54916,0.288618,
2,0,0,1,0,2451.03,0.278738,0.278614,-12.4979,2,0.0231427,10,-0.00348208,-1.90316,-0.00126663,-46.5802,0.288612,
2,0,0,1,0,2451.03,0.274742,0.274553,-16.2537,2,0.0230845,10,-0.0044625,-1.78905,-0.0111031,-5.31385,0.287556,
2,0,0,1,0,2451.04,0.270747,0.270551,-19.1161,2,0.0230133,10,-0.00517189,-1.7186,-0.0285306,-2.06795,0.285844,
2,0,0,1,0,2451.04,0.266702,0.266478,-21.4082,2,0.0229318,10,-0.00570483,-1.66942,-0.0544209,-1.08414,0.283605,
2,0,0,1,0,2451.04,0.262707,0.262549,-23.0784,2,0.0228425,10,-0.00605922,-1.63679,-0.0897006,-0.657744,0.281012,
2,0,0,1,0,2451.05,0.258712,0.258508,-24.3582,2,0.0227474,10,-0.0062968,-1.61335,-0.137963,-0.427649,0.277995,
2,0,0,1,0,2451.05,0.254717,0.254482,-25.3872,2,0.0226478,10,-0.00646058,-1.59539,-0.195921,-0.301142,0.274792,
2,0,0,1,0,2451.06,0.250722,0.250523,-26.2062,2,0.0225445,10,-0.00656528,-1.5816,-0.258217,-0.22849,0.271488,
2,0,0,1,0,2451.06,0.246726,0.246507,-26.8868,2,0.0224382,10,-0.00662778,-1.57046,-0.330035,-0.178769,0.268016,
2,0,0,1,0,2451.06,0.242731,0.242482,-27.4811,2,0.0223293,10,-0.00666368,-1.56097,-0.404661,-0.145801,0.264467,
2,0,0,1,0,2451.07,0.238736,0.238508,-27.9735,2,0.0222183,10,-0.0066719,-1.55325,-0.466631,-0.126438,0.260887,
2,0,0,1,0,2451.07,0.234741,0.23451,-28.4186,2,0.0221055,10,-0.00666445,-1.5464,-0.496117,-0.118923,0.257245,
2,0,0,1,0,2451.08,0.230746,0.230528,-28.8661,2,0.0219909,10,-0.00665445,-1.53961,-0.527518,-0.111845,0.253621,
2,0,0,1,0,2451.08,0.226701,0.226481,-29.3906,2,0.0218744,10,-0.00665641,-1.53179,-0.540132,-0.109233,0.249993,
2,0,0,1,0,2451.08,0.222705,0.222494,-29.8073,2,0.0217559,10,-0.00663195,-1.52568,-0.551774,-0.106928,0.24634,
2,0,0,1,0,2451.09,0.21871,0.218501,-30.2376,2,0.0216358,10,-0.00660696,-1.51945,-0.568014,-0.103871,0.242691,
2,0,0,1,0,2451.09,0.214715,0.214436,-30.6844,2,0.021514,10,-0.00657982,-1.51308,-0.529447,-0.111437,0.238983,
2,0,0,1,0,2451.1,0.21072,0.210531,-31.1729,2,0.0213902,10,-0.00656288,-1.50622,-0.492394,-0.119823,0.23547,
2,0,0,1,0,2451.1,0.206725,0.206512,-31.7388,2,0.0212644,10,-0.00655444,-1.49841,-0.447171,-0.13194,0.231903,
2,0,0,1,0,2451.1,0.202729,0.202475,-32.3359,2,0.0211361,10,-0.00654723,-1.49031,-0.411419,-0.143406,0.228344,
2,0,0,1,0,2451.11,0.198734,0.198483,-32.9957,2,0.0210054,10,-0.00654908,-1.48154,-0.377675,-0.156219,0.224879,
2,0,0,1,0,2451.11,0.194739,0.194512,-33.7116,2,0.020872,10,-0.00655729,-1.47222,-0.333702,-0.176804,0.221481,
2,0,0,1,0,2451.12,0.190744,0.190488,-34.5238,2,0.0207354,10,-0.00657638,-1.46188,-0.296087,-0.199266,0.218107,
2,0,0,1,0,2451.12,0.186735,0.186501,-35.4823,2,0.0205954,10,-0.00661749,-1.44999,-0.265429,-0.222282,0.214887,
2,0,0,1,0,2451.12,0.182704,0.182486,-36.5497,2,0.0204511,10,-0.00666979,-1.43712,-0.238887,-0.246979,0.211725,
2,0,0,1,0,2451.13,0.178709,0.17849,-37.6847,2,0.0203025,10,-0.00672634,-1.42383,-0.217398,-0.271391,0.208638,
2,0,0,1,0,2451.13,0.174713,0.174498,-38.9312,2,0.0201493,10,-0.0067934,-1.4097,-0.196546,-0.300184,0.205642,
2,0,0,1,0,2451.14,0.170718,0.170558,-40.3217,2,0.0199906,10,-0.0068772,-1.39446,-0.176137,-0.334966,0.202816,
2,0,0,1,0,2451.14,0.166723,0.166504,-41.9141,2,0.019826,10,-0.00697887,-1.37764,-0.157535,-0.374519,0.200035,
2,0,0,1,0,2451.14,0.162728,0.162518,-43.6338,2,0.0196548,10,-0.00709129,-1.36018,-0.141225,-0.417773,0.197425,
2,0,0,1,0,2451.15,0.158733,0.158507,-45.5298,2,0.0194764,10,-0.00721677,-1.3417,-0.127326,-0.463378,0.19493,
2,0,0,1,0,2451.15,0.154737,0.15453,-47.6132,2,0.0192899,10,-0.00735768,-1.32227,-0.113819,-0.518366,0.192621,
2,0,0,1,0,2451.16,0.150742,0.150527,-49.871,2,0.0190948,10,-0.00750693,-1.30215,-0.100953,-0.584433,0.190424,
2,0,0,1,0,2451.16,0.146747,0.146571,-52.334,2,0.0188902,10,-0.00767064,-1.28122,-0.0925837,-0.637261,0.188438,
2,0,0,1,0,2451.16,0.142702,0.14256,-55.0534,2,0.0186752,10,-0.00784843,-1.25922,-0.084103,-0.701521,0.186603,
2,0,0,1,0,2451.17,0.138707,0.138556,-57.8194,2,0.0184492,10,-0.00801123,-1.23793,-0.0778944,-0.757435,0.184812,
2,0,0,1,0,2451.17,0.134712,0.134538,-60.8058,2,0.0182117,10,-0.0081807,-1.21606,-0.0729984,-0.808237,0.183183,
2,0,0,1,0,2451.18,0.130717,0.130534,-63.9218,2,0.017962,10,-0.00834398,-1.19435,-0.0680138,-0.867471,0.181672,
2,0,0,1,0,2451.18,0.126721,0.126559,-67.1715,2,0.0176995,10,-0.00850113,-1.17282,-0.0661026,-0.892552,0.180296,
2,0,0,1,0,2451.18,0.122726,0.12256,-70.4957,2,0.0174238,10,-0.00863994,-1.15184,-0.0662888,-0.890045,0.178956,
2,0,0,1,0,2451.19,0.118731,0.118574,-73.8076,2,0.0171348,10,-0.00875165,-1.1319,-0.0663251,-0.889558,0.17762,
2,0,0,1,0,2451.19,0.114736,0.114675,-77.0324,2,0.0168329,10,-0.00883367,-1.11333,-0.0676303,-0.872389,0.176301,
2,0,0,1,0,2451.2,0.110741,0.110675,-80.5062,2,0.0165174,10,-0.00891001,-1.09417,-0.0699707,-0.84321,0.17508,
2,0,0,1,0,2451.2,0.106745,0.106687,-83.9321,2,0.0161881,10,-0.00895444,-1.07607,-0.0738239,-0.799199,0.173832,
2,0,0,1,0,2451.2,0.102703,0.102612,-87.358,2,0.0158453,10,-0.00896394,-1.0587,-0.0832357,-0.70883,0.172498,
2,0,0,1,0,2451.21,0.0987052,0.098652,-90.5718,2,0.0154891,10,-0.00893508,-1.04301,-0.0928997,-0.635093,0.171109,
2,0,0,1,0,2451.21,0.09471,0.0946235,-93.7086,2,0.0151202,10,-0.00886703,-1.02822,-0.107056,-0.551112,0.16959,
2,0,0,1,0,2451.22,0.0907148,0.0906014,-96.8297,2,0.0147388,10,-0.0087729,-1.01399,-0.124335,-0.474524,0.168065,
2,0,0,1,0,2451.22,0.0867197,0.0865347,-99.7466,2,0.0143452,10,-0.00863154,-1.0011,-0.148069,-0.398463,0.166332,
2,0,0,1,0,2451.22,0.0827245,0.0825497,-102.409,2,0.0139406,10,-0.00845382,-0.989663,-0.184921,-0.319055,0.164477,
2,0,0,1,0,2451.23,0.0787293,0.0785244,-104.823,2,0.0135258,10,-0.00823116,-0.979543,-0.233449,-0.252732,0.162383,
2,0,0,1,0,2451.23,0.0747341,0.0745309,-106.944,2,0.013102,10,-0.00797063,-0.970843,-0.305499,-0.193127,0.160086,
2,0,0,1,0,2451.24,0.070739,0.0705575,-108.757,2,0.0126703,10,-0.00767366,-0.963541,-0.411992,-0.143207,0.157563,
2,0,0,1,0,2451.24,0.0667438,0.066545,-110.222,2,0.0122321,10,-0.0073347,-0.957733,-0.586796,-0.100546,0.154722,
2,0,0,1,0,2451.24,0.0627403,0.0625356,-111.333,2,0.0117888,10,-0.00696227,-0.953376,-0.945584,-0.0623953,0.151602,
2,0,0,1,0,2451.25,0.0587035,0.0584222,-112.095,2,0.0113416,10,-0.00654884,-0.950414,-1.94618,-0.0303159,0.148098,
2,0,0,1,0,2451.25,0.0547083,0.0544765,-112.319,2,0.0108927,10,-0.00611873,-0.949548,-19.4557,-0.00303253,0.144331,
2,0,0,1,0,2451.26,0.0507132,0.0504618,-112.136,2,0.0104437,10,-0.00565857,-0.950256,2.85521,0.020664,0.14017,
2,0,0,1,0,2451.26,0.046718,0.0464556,-111.543,2,0.00999627,10,-0.00518179,-0.952558,1.53175,0.0385181,0.13569,
2,0,0,1,0,2451.26,0.0427228,0.042478,-110.553,2,0.00955205,10,-0.00469606,-0.95643,1.09758,0.0537545,0.13092,
2,0,0,1,0,2451.27,0.0387276,0.0384527,-109.24,2,0.00911251,10,-0.00420059,-0.961617,0.89148,0.0661821,0.125845,
2,0,0,1,0,2451.27,0.0347325,0.0344496,-107.611,2,0.00867891,10,-0.00370717,-0.968142,0.778459,0.0757908,0.120539,
2,0,0,1,0,2451.28,0.0307373,0.030454,-105.754,2,0.00825229,10,-0.00322064,-0.975702,0.697508,0.0845868,0.115057,
2,0,0,1,0,2451.28,0.0267421,0.0264415,-103.747,2,0.00783345,10,-0.00274322,-0.984025,0.654411,0.0901574,0.109439,
2,0,0,1,0,2451.28,0.022747,0.0224925,-101.55,2,0.00742303,10,-0.00228412,-0.993318,0.61463,0.0959927,0.103733,
2,0,0,1,0,2451.29,0.0187018,0.0184184,-99.3797,2,0.00702134,10,-0.00183042,-1.0027,0.581064,0.101538,0.0979222,
2,0,0,1,0,2451.29,0.0147067,0.0144196,-97.0138,2,0.0066288,10,-0.0013989,-1.01317,0.558262,0.105685,0.0920306,
2,0,0,1,0,2451.3,0.0107115,0.010441,-94.5857,2,0.00624581,10,-0.000987568,-1.02417,0.530923,0.111127,0.0861096,
2,0,0,1,0,2451.3,0.00671632,0.00643159,-92.1335,2,0.00587261,10,-0.000592565,-1.03558,0.513468,0.114905,0.0801384,
2,0,0,1,0,2451.3,0.00272115,0.00242007,-89.6361,2,0.00550934,10,-0.000216925,-1.04752,0.496427,0.118849,0.0741289,
2,0,0,1,0,2451.31,-0.00127403,-0.00158297,-87.1594,2,0.00515588,10,0.00013797,-1.05969,0.479247,0.12311,0.0681446,
2,0,0,1,0,2451.31,-0.0052692,-0.00562418,-84.6004,2,0.00481263,10,0.000475808,-1.07263,0.465573,0.126725,0.0620561,
2,0,0,1,0,2451.32,-0.00926438,-0.00960495,-82.0624,2,0.00447957,10,0.000788205,-1.08586,0.454572,0.129792,0.056045,
2,0,0,1,0,2451.32,-0.0132596,-0.0135581,-79.6014,2,0.00415649,10,0.00107925,-1.09908,0.452907,0.13027,0.050123,
2,0,0,1,0,2451.32,-0.0172547,-0.0175834,-77.1924,2,0.00384318,10,0.00135731,-1.11243,0.452897,0.130273,0.0441704,
2,0,0,1,0,2451.33,-0.0212915,-0.021665,-74.9841,2,0.00353915,10,0.00162453,-1.12503,0.46045,0.128135,0.0383223,
2,0,0,1,0,2451.33,-0.025295,-0.0256012,-72.8791,2,0.00324367,10,0.00186579,-1.1374,0.475598,0.124054,0.0327021,
2,0,0,1,0,2451.34,-0.0292902,-0.0296254,-70.9597,2,0.00295626,10,0.00210221,-1.14899,0.497265,0.118649,0.0271423,
2,0,0,1,0,2451.34,-0.0332854,-0.0336009,-69.2753,2,0.002676,10,0.00232771,-1.15942,0.537146,0.10984,0.0218194,
2,0,0,1,0,2451.34,-0.0372805,-0.0375817,-67.8361,2,0.002402,10,0.00254939,-1.16854,0.593451,0.0994184,0.0166872,
2,0,0,1,0,2451.35,-0.0412757,-0.04159,-66.6021,2,0.00213329,10,0.00276998,-1.17651,0.668292,0.0882848,0.0116917,
2,0,0,1,0,2451.35,-0.0452709,-0.0456302,-65.5836,2,0.00186908,10,0.00299259,-1.1832,0.780084,0.0756329,0.00683677,
2,0,0,1,0,2451.36,-0.0492661,-0.0495144,-64.7698,2,0.00160852,10,0.00320704,-1.18863,0.93658,0.0629951,0.00230146,
2,0,0,1,0,2451.36,-0.0532612,-0.0535938,-64.1427,2,0.00135077,10,0.00343765,-1.19285,1.16841,0.0504959,-0.00227966,
2,0,0,1,0,2451.36,-0.0572564,-0.0575205,-63.6766,2,0.00109519,10,0.00366271,-1.19602,1.63906,0.0359963,-0.00657921,
2,0,0,1,0,2451.37,-0.0612544,-0.0615469,-63.3333,2,0.000841264,10,0.00389797,-1.19837,2.38782,0.0247087,-0.0108802,
2,0,0,1,0,2451.37,-0.0652967,-0.0655446,-63.2171,2,0.000588064,10,0.00414354,-1.19917,4.24295,0.0139054,-0.0149709,
2,0,0,1,0,2451.38,-0.0692919,-0.0695858,-63.1109,2,0.000335455,10,0.00439162,-1.1999,16.6619,0.00354101,-0.0190971,
2,0,0,1,0,2451.38,-0.0732871,-0.073574,-63.1087,2,8.30424e-05,10,0.00464316,-1.19991,-21.1507,-0.00278951,-0.023087,
2,0,0,1,0,2451.38,-0.0772822,-0.0776205,-63.1918,2,-0.000169553,10,0.00490498,-1.19934,-5.52949,-0.0106701,-0.0270671,
2,0,0,1,0,2451.39,-0.0812774,-0.0815239,-63.3266,2,-0.000422589,10,0.00516263,-1.19841,-3.2843,-0.0179643,-0.0308626,
2,0,0,1,0,2451.39,-0.0852726,-0.0855375,-63.5228,2,-0.000676312,10,0.00543358,-1.19707,-2.37407,-0.0248518,-0.0347193,
2,0,0,1,0,2451.4,-0.0892678,-0.0895861,-63.7965,2,-0.000930959,10,0.00571529,-1.1952,-1.9193,-0.0307403,-0.0385489,
2,0,0,1,0,2451.4,-0.0932629,-0.0935256,-64.1276,2,-0.0011868,10,0.00599757,-1.19296,-1.6222,-0.0363704,-0.0422235,
2,0,0,1,0,2451.4,-0.0972581,-0.0974968,-64.4804,2,-0.00144405,10,0.00628663,-1.19057,-1.362,-0.0433188,-0.0459125,
2,0,0,1,0,2451.41,-0.101253,-0.101538,-64.8818,2,-0.0017028,10,0.00658796,-1.18788,-1.27966,-0.0461059,-0.0496326,
2,0,0,1,0,2451.41,-0.105298,-0.105546,-65.3994,2,-0.00196336,10,0.00690267,-1.18443,-1.17916,-0.0500355,-0.0532268,
2,0,0,1,0,2451.42,-0.109294,-0.109586,-65.8449,2,-0.00222588,10,0.00721571,-1.18148,-1.11586,-0.052874,-0.0569105,
2,0,0,1,0,2451.42,-0.113289,-0.113532,-66.3385,2,-0.00249027,10,0.00753156,-1.17823,-1.11009,-0.0531489,-0.0604614,
2,0,0,1,0,2451.42,-0.117284,-0.117566,-66.8464,2,-0.00275669,10,0.00785886,-1.17492,-1.05434,-0.055959,-0.0640889,
2,0,0,1,0,2451.43,-0.121279,-0.121565,-67.3863,2,-0.00302522,10,0.00819181,-1.17143,-1.02213,-0.0577228,-0.0676558,
2,0,0,1,0,2451.43,-0.125274,-0.125528,-67.9297,2,-0.00329588,10,0.00852705,-1.16794,-0.965377,-0.061116,-0.0711838,
2,0,0,1,0,2451.44,-0.129269,-0.129548,-68.5073,2,-0.00356882,10,0.00887496,-1.16426,-0.93594,-0.0630382,-0.0747417,
2,0,0,1,0,2451.44,-0.133265,-0.133547,-69.1403,2,-0.00384417,10,0.00923351,-1.16027,-0.895862,-0.0658584,-0.0782352,
2,0,0,1,0,2451.44,-0.13726,-0.137555,-69.7629,2,-0.00412204,10,0.00959622,-1.15638,-0.84487,-0.0698332,-0.0817444,
2,0,0,1,0,2451.45,-0.141255,-0.141527,-70.4199,2,-0.00440249,10,0.00996631,-1.1523,-0.831258,-0.0709767,-0.0851911,
2,0,0,1,0,2451.45,-0.145286,-0.145532,-71.1471,2,-0.0046856,10,0.0103542,-1.14784,-0.805436,-0.0732523,-0.0886145,
2,0,0,1,0,2451.46,-0.149295,-0.14958,-71.8477,2,-0.00497172,10,0.010747,-1.14359,-0.80007,-0.0737435,-0.0921016,
2,0,0,1,0,2451.46,-0.15329,-0.153569,-72.5646,2,-0.00526059,10,0.0111437,-1.13928,-0.806613,-0.0731454,-0.0955173,
2,0,0,1,0,2451.46,-0.157286,-0.157553,-73.2628,2,-0.00555232,10,0.0115428,-1.13512,-0.791876,-0.0745066,-0.0989427,
2,0,0,1,0,2451.47,-0.161281,-0.161587,-73.9999,2,-0.00584694,10,0.0119574,-1.13077,-0.787391,-0.074931,-0.102387,
2,0,0,1,0,2451.47,-0.165276,-0.165528,-74.7514,2,-0.00614449,10,0.0123735,-1.12638,-0.760802,-0.0775497,-0.105727,
2,0,0,1,0,2451.48,-0.169271,-0.169496,-75.5034,2,-0.00644508,10,0.0127976,-1.12203,-0.740044,-0.079725,-0.109094,
2,0,0,1,0,2451.48,-0.173266,-0.173499,-76.3186,2,-0.00674881,10,0.0132412,-1.11737,-0.725168,-0.0813605,-0.112444,
2,0,0,1,0,2451.48,-0.177261,-0.177466,-77.1422,2,-0.0070558,10,0.0136901,-1.11271,-0.696751,-0.0846787,-0.115753,
2,0,0,1,0,2451.49,-0.181257,-0.181503,-77.9956,2,-0.00736618,10,0.0141564,-1.10793,-0.657236,-0.0897699,-0.119107,
2,0,0,1,0,2451.49,-0.185252,-0.18549,-78.8918,2,-0.00768003,10,0.0146337,-1.10297,-0.635608,-0.0928245,-0.122377,
2,0,0,1,0,2451.5,-0.189297,-0.189503,-79.9111,2,-0.00799781,10,0.0151434,-1.09739,-0.605971,-0.0973643,-0.125574,
2,0,0,1,0,2451.5,-0.193292,-0.193543,-80.886,2,-0.0083195,10,0.0156549,-1.09213,-0.580393,-0.101655,-0.128834,
2,0,0,1,0,2451.5,-0.197287,-0.197567,-81.9213,2,-0.00864521,10,0.016185,-1.0866,-0.689692,-0.0855454,-0.13203,
2,0,0,1,0,2451.51,-0.199984,-0.200208,-82.6449,2,-0.00886732,10,0.0165461,-1.08278,0.201246,0.293173,-0.134092,
2,0,0,1,1,2451.51,-0.199984,-0.200437,-82.345,2,-0.00891678,10,0.016505,-1.08436,0.0985463,0.598703,-0.134561,
2,0,0,1,1,2451.51,-0.196688,-0.197221,-70.5568,2,-0.00914996,10,0.0139153,-1.15146,0.0714162,0.826143,-0.140775,
2,0,0,1,1,2451.51,-0.192693,-0.193213,-58.0662,2,-0.0094055,10,0.0112192,-1.23608,0.0603288,0.977975,-0.14676,
2,0,0,1,1,2451.52,-0.188698,-0.1892,-47.0175,2,-0.00961422,10,0.0088957,-1.32774,0.0445806,1.32345,-0.151586,
2,0,0,1,1,2451.52,-0.184653,-0.185124,-37.0257,2,-0.00978107,10,0.00685432,-1.4315,0.0309387,1.907,-0.155503,
2,0,0,1,1,2451.53,-0.180657,-0.181074,-28.0443,2,-0.00991006,10,0.00507808,-1.55216,0.0200407,2.94401,-0.158638,
2,0,0,1,1,2451.53,-0.176662,-0.177061,-19.8369,2,-0.0100048,10,0.00351235,-1.70253,0.0111327,5.2997,-0.161192,
2,0,0,1,1,2451.53,-0.172667,-0.173102,-12.3549,2,-0.0100683,10,0.00213866,-1.90816,0.00467814,12.6119,-0.163218,
2,0,0,1,1,2451.54,-0.168672,-0.169124,-5.47927,2,-0.0101031,10,0.000926677,-2.26128,0.0111715,5.28128,-0.164741,
2,0,0,1,1,2451.54,-0.164677,-0.16517,0.816633,2,-0.0101116,10,-0.000134883,-3.08797,0.392037,0.150496,-0.165823,
2,1,0,1,1,2451.55,-0.160682,-0.16118,6.64657,2,-0.010096,10,-0.00107129,-2.1774,-0.00430419,-13.7076,-0.166497,
2,1,0,1,1,2451.55,-0.156686,-0.15718,12.0938,2,-0.0100578,10,-0.0019009,-1.91744,-0.000539105,-109.441,-0.166855,
2,1,0,1,1,2451.55,-0.152691,-0.153226,17.0445,2,-0.00999893,10,-0.00261167,-1.76842,0.000650768,90.6621,-0.166862,
2,1,0,1,1,2451.56,-0.148696,-0.149216,21.7191,2,-0.00992089,10,-0.00324083,-1.66316,0.00388133,15.201,-0.166591,
2,1,0,1,1,2451.56,-0.14467,-0.1452,26.137,2,-0.00982471,10,-0.00379509,-1.58275,0.00867582,6.80051,-0.16611,
2,1,0,1,1,2451.57,-0.140656,-0.14114,30.2142,2,-0.00971144,10,-0.00426443,-1.51979,0.0150913,3.90955,-0.165311,
2,1,0,1,1,2451.57,-0.136661,-0.137071,33.988,2,-0.00958259,10,-0.00465877,-1.46867,0.0244136,2.41669,-0.164262,
2,1,0,1,1,2451.57,-0.132665,-0.133121,37.3878,2,-0.00943944,10,-0.00497711,-1.42727,0.0354235,1.66556,-0.163031,
2,1,0,1,1,2451.58,-0.12867,-0.129062,40.5042,2,-0.00928326,10,-0.00522755,-1.3925,0.0486166,1.21358,-0.161465,
2,1,0,1,1,2451.58,-0.124675,-0.125059,43.3663,2,-0.00911519,10,-0.00542334,-1.36285,0.0641824,0.919255,-0.159752,
2,1,0,1,1,2451.59,-0.12068,-0.121078,45.995,2,-0.00893613,10,-0.00556898,-1.33729,0.0818575,0.720765,-0.157874,
2,1,0,1,1,2451.59,-0.116685,-0.117079,48.4264,2,-0.00874699,10,-0.00566973,-1.31492,0.101603,0.580691,-0.15582,
2,1,0,1,1,2451.59,-0.112689,-0.113007,50.6441,2,-0.0085486,10,-0.00572316,-1.29547,0.125659,0.469525,-0.153523,
2,1,0,1,1,2451.6,-0.108694,-0.109097,52.6351,2,-0.00834177,10,-0.00574231,-1.27872,0.152684,0.386418,-0.151205,
2,1,0,1,1,2451.6,-0.104699,-0.105103,54.451,2,-0.00812737,10,-0.00572296,-1.26399,0.183015,0.322378,-0.148664,
2,1,0,1,1,2451.61,-0.100654,-0.101017,56.1855,2,-0.00790582,10,-0.00567571,-1.25038,0.220382,0.267717,-0.145966,
2,1,0,1,1,2451.61,-0.0966588,-0.0970164,57.6904,2,-0.00767784,10,-0.00559691,-1.2389,0.262532,0.224735,-0.143169,
2,1,0,1,1,2451.61,-0.0926637,-0.0930049,59.0306,2,-0.00744423,10,-0.00549013,-1.22892,0.314882,0.187372,-0.140229,
2,1,0,1,1,2451.62,-0.0886685,-0.0890146,60.2168,2,-0.00720558,10,-0.00536017,-1.22028,0.375458,0.157141,-0.137188,
2,1,0,1,1,2451.62,-0.0846733,-0.0850232,61.2963,2,-0.00696241,10,-0.00521161,-1.21257,0.439989,0.134094,-0.13406,
2,1,0,1,1,2451.63,-0.0806781,-0.0810032,62.2389,2,-0.00671525,10,-0.00504155,-1.20594,0.51123,0.115408,-0.130794,
2,1,0,1,1,2451.63,-0.076683,-0.0770267,63.0958,2,-0.00646444,10,-0.00486006,-1.2,0.600867,0.0981915,-0.127503,
2,1,0,1,1,2451.63,-0.0726878,-0.0730289,63.8668,2,-0.00621041,10,-0.00466412,-1.19472,0.703141,0.0839091,-0.124122,
2,1,0,1,1,2451.64,-0.0686926,-0.0690333,64.5273,2,-0.00595353,10,-0.00445453,-1.19026,0.791322,0.0745588,-0.120655,
2,1,0,1,1,2451.64,-0.0646974,-0.0650144,65.0955,2,-0.0056942,10,-0.00423214,-1.18645,0.934046,0.0631661,-0.117091,
2,1,0,1,1,2451.65,-0.0606523,-0.0609827,65.7101,2,-0.00543259,10,-0.00400718,-1.18237,1.08443,0.0544067,-0.113551,
2,1,0,1,1,2451.65,-0.0566571,-0.0569574,66.1495,2,-0.00516881,10,-0.0037677,-1.17947,1.27118,0.0464136,-0.109877,
2,1,0,1,1,2451.65,-0.052662,-0.0530032,66.5342,2,-0.0049034,10,-0.00352653,-1.17695,1.65002,0.0357572,-0.106231,
2,1,0,1,1,2451.66,-0.0486668,-0.0490107,66.8408,2,-0.00463663,10,-0.00327592,-1.17496,1.98732,0.0296882,-0.102483,
2,1,0,1,1,2451.66,-0.0446716,-0.0449992,67.0889,2,-0.00436872,10,-0.00301895,-1.17335,2.49766,0.0236221,-0.0986703,
2,1,0,1,1,2451.67,-0.0406764,-0.0410503,67.3076,2,-0.00409989,10,-0.002763,-1.17194,3.16679,0.0186309,-0.0948964,
2,1,0,1,1,2451.67,-0.0366813,-0.0370165,67.4752,2,-0.00383032,10,-0.00249769,-1.17086,4.11336,0.0143435,-0.0909967,
2,1,0,1,1,2451.67,-0.0326861,-0.0330664,67.5908,2,-0.00356013,10,-0.00223499,-1.17011,6.45709,0.00913725,-0.087139,
2,1,0,1,1,2451.68,-0.0286909,-0.0290358,67.6734,2,-0.00328958,10,-0.00196495,-1.16958,9.6534,0.00611184,-0.0831746,
2,1,0,1,1,2451.68,-0.0246957,-0.0250487,67.6855,2,-0.00301884,10,-0.00169544,-1.1695,16.5302,0.00356923,-0.0791971,
2,1,0,1,1,2451.69,-0.0206756,-0.0210107,67.73,2,-0.00274803,10,-0.00142305,-1.16922,-68.3448,-0.00086327,-0.0751947,
2,1,0,1,1,2451.69,-0.0166554,-0.0169758,67.7413,2,-0.00247702,10,-0.00114996,-1.16915,-15.4078,-0.00382924,-0.0711689,
2,1,0,1,1,2451.69,-0.0126603,-0.0130035,67.6368,2,-0.00220625,10,-0.000879518,-1.16982,-6.45874,-0.0091349,-0.067113,
2,1,0,1,1,2451.7,-0.0086651,-0.00901748,67.5222,2,-0.00193594,10,-0.00060888,-1.17055,-4.23745,-0.0139235,-0.0630353,
2,1,0,1,1,2451.7,-0.00466992,-0.00501338,67.3373,2,-0.00166622,10,-0.000337588,-1.17174, , ,-0.0588832,
2,1,0,1,1,2451.71,-0.000974387,-0.0012956,67.1493,2,-0.0014174,10,-8.69983e-05,-1.17296, , ,-0.055015,
2,1,0,1,1,2451.71,-0.000175352,-0.000535284,67.0986,2,-0.00136369,10,-3.59168e-05,-1.17329, , ,-0.0542142,