File: Figure_codes/Fig_S3_S4/20221101_1-115_003_TrumpetPlot_ParaChange_from10_every3_13_CV_C01_16.csv
mode,ox/red,error,control changes,counter inc.,time/s,control/V,Ewe/V,<I>/mA,cycle number,(Q-Qo)/C,I Range,P/W,log(|I|),Tafel slope mV/dec,alpha_eff,dI/d(E-IR),E-IR/V,
2,1,0,1,0,32719.9,2.44065e-05,-0.000306236,21.0525,17,0.0000000E+000,10,-6.44703e-06,-1.6767, , , ,-0.000306236,
2,1,0,1,0,32719.9,0.00266289,0.00226631,22.4876,17,6.80771e-05,10,5.09638e-05,-1.64806, , , ,0.00226631,
2,1,0,1,0,32719.9,0.00586735,0.00553024,23.661,17,0.000160586,10,0.000130851,-1.62597, , , ,0.00553024,
2,1,0,1,0,32720,0.00906349,0.00868071,24.6175,17,0.000257258,10,0.000213697,-1.60876,0.18996,0.310591,294.952,0.00868071,
2,1,0,1,0,32720,0.0122624,0.0118821,25.4767,17,0.00035756,10,0.000302716,-1.59386,0.222645,0.264996,261.621,0.0118821,
2,1,0,1,0,32720,0.0154641,0.0151142,26.2771,17,0.00046116,10,0.000397157,-1.58042,0.249662,0.23632,241.024,0.0151142,
2,1,0,1,0,32720,0.0186602,0.0183187,27.0067,17,0.000567822,10,0.000494729,-1.56853,0.275286,0.214323,224.955,0.0183187,
2,1,0,1,0,32720,0.0218675,0.0215127,27.7103,17,0.00067734,10,0.000596124,-1.55736,0.301713,0.19555,210.657,0.0215127,
2,1,0,1,0,32720,0.0250636,0.0247172,28.3641,17,0.00078957,10,0.000701081,-1.54723,0.324108,0.182038,200.866,0.0247172,
2,1,0,1,0,32720,0.0282597,0.0279091,28.9724,17,0.000904322,10,0.000808593,-1.53802,0.350011,0.168566,190.2,0.0279091,
2,1,0,1,0,32720,0.031467,0.0311263,29.5793,17,0.00102152,10,0.000920696,-1.52901,0.369162,0.159821,184.162,0.0311263,
2,1,0,1,0,32720,0.0346631,0.0343277,30.1477,17,0.00114102,10,0.0010349,-1.52075,0.388146,0.152005,178.569,0.0343277,
2,1,0,1,0,32720,0.0378704,0.0375036,30.7188,17,0.0012628,10,0.00115207,-1.5126,0.410627,0.143683,171.959,0.0375036,
2,1,0,1,0,32720,0.0410665,0.0407156,31.2593,17,0.00138678,10,0.00127274,-1.50502,0.427868,0.137893,167.945,0.04071559,
2,1,0,1,0,32720,0.0442626,0.043918,31.779,17,0.00151291,10,0.00139567,-1.49786,0.450428,0.130987,162.295,0.043918,
2,1,0,1,0,32720,0.0474671,0.0470961,32.2921,17,0.00164109,10,0.00152083,-1.4909,0.462025,0.127699,160.853,0.0470961,
2,1,0,1,0,32720,0.0506632,0.0503239,32.7995,17,0.00177133,10,0.0016506,-1.48413,0.471533,0.125124,160.127,0.0503239,
2,1,0,1,0,32720,0.0538621,0.0534924,33.3145,17,0.00190359,10,0.00178207,-1.47737,0.486203,0.121348,157.68,0.0534924,
2,1,0,1,0,32720,0.0570638,0.056697,33.8252,17,0.00203794,10,0.00191779,-1.47076,0.493008,0.119673,157.865,0.05669697,
2,1,0,1,0,32720,0.06026,0.0599471,34.3185,17,0.00217427,10,0.00205729,-1.46447,0.501353,0.117681,157.599,0.0599471,
2,1,0,1,0,32720,0.0634672,0.0631347,34.8219,17,0.00231263,10,0.00219847,-1.45815,0.509375,0.115828,157.427,0.0631347,
2,1,0,1,0,32720,0.0666633,0.0663138,35.3351,17,0.002453,10,0.00234321,-1.45179,0.504436,0.116962,161.299,0.0663138,
2,1,0,1,0,32720,0.0698595,0.0695321,35.8458,17,0.00259544,10,0.00249244,-1.44556,0.513238,0.114956,160.786,0.0695321,
2,1,0,1,0,32720,0.0730667,0.0726921,36.3742,17,0.00273994,10,0.00264412,-1.43921,0.514662,0.114638,162.7,0.0726921,
2,1,0,1,0,32720,0.0762629,0.0759031,36.8748,17,0.00288651,10,0.00279891,-1.43327,0.519082,0.113662,163.606,0.0759031,
2,1,0,1,0,32720,0.0794701,0.0791055,37.4163,17,0.00303513,10,0.00295983,-1.42694,0.522492,0.11292,164.905,0.0791055,
2,1,0,1,0,32720,0.0826662,0.0823238,37.9386,17,0.00318589,10,0.00312325,-1.42092,0.519067,0.113665,168.311,0.0823238,
2,1,0,1,0,32720,0.0858624,0.0854881,38.4843,17,0.0033388,10,0.00328995,-1.41472,0.525841,0.112201,168.525,0.0854881,
2,1,0,1,0,32720.1,0.0890668,0.0887064,39.0298,17,0.0034939,10,0.00346219,-1.4086,0.523294,0.112747,171.72,0.0887064,
2,1,0,1,0,32720.1,0.092263,0.0919194,39.5758,17,0.00365115,10,0.00363778,-1.40257,0.531217,0.111066,171.514,0.09191943,
2,1,0,1,0,32720.1,0.0954674,0.0951049,40.1334,17,0.00381061,10,0.00381688,-1.39649,0.533181,0.110657,173.281,0.0951049,
2,1,0,1,0,32720.1,0.0986636,0.0982532,40.6737,17,0.00397226,10,0.00399633,-1.39069,0.532267,0.110847,176.011,0.0982532,
2,1,0,1,0,32720.1,0.10186,0.101458,41.2394,17,0.00413617,10,0.00418405,-1.38469,0.537137,0.109842,176.834,0.1014578,
2,1,0,1,0,32720.1,0.105067,0.104662,41.8187,17,0.00430234,10,0.00437684,-1.37863,0.535385,0.110201,179.846,0.104662,
2,1,0,1,0,32720.1,0.108263,0.107863,42.3894,17,0.00447082,10,0.00457223,-1.37274,0.540042,0.109251,180.727,0.107863,
2,1,0,1,0,32720.1,0.111465,0.111084,42.9813,17,0.00464162,10,0.00477455,-1.36672,0.544525,0.108351,181.716,0.111084,
2,1,0,1,0,32720.1,0.114666,0.114277,43.5561,17,0.00481478,10,0.00497747,-1.36095,0.547102,0.107841,183.302,0.114277,
2,1,0,1,0,32720.1,0.117863,0.117484,44.1485,17,0.00499024,10,0.00518673,-1.35508,0.558053,0.105725,182.095,0.117484,
2,1,0,1,0,32720.1,0.12107,0.120677,44.7382,17,0.00516807,10,0.00539886,-1.34932,0.561602,0.105057,183.336,0.1206766,
2,1,0,1,0,32720.1,0.124266,0.123839,45.3039,17,0.00534821,10,0.00561038,-1.34386,0.544027,0.10845,191.982,0.123839,
2,1,0,1,0,32720.1,0.127462,0.127038,45.8957,17,0.0055306,10,0.00583049,-1.33823,0.535628,0.110151,197.724,0.127038,
2,1,0,1,0,32720.1,0.130667,0.130211,46.5919,17,0.00571565,10,0.00606676,-1.33169,0.517999,0.1139,207.263,0.130211,
2,1,0,1,0,32720.1,0.133863,0.133503,47.2744,17,0.00590345,10,0.00631129,-1.32537,0.511018,0.115456,212.93,0.133503,
2,1,0,1,0,32720.1,0.137067,0.136726,47.9749,17,0.00609402,10,0.00655941,-1.31899,0.51858,0.113772,212.905,0.136726,
2,1,0,1,0,32720.1,0.140263,0.139941,48.6431,17,0.00628733,10,0.00680717,-1.31298,0.518313,0.113831,216.079,0.139941,
2,1,0,1,0,32720.1,0.143459,0.143089,49.3338,17,0.00648334,10,0.00705914,-1.30686,0.522705,0.112874,217.382,0.143089,
2,1,0,1,0,32720.1,0.146667,0.14626,50.0308,17,0.00668216,10,0.00731751,-1.30076,0.526438,0.112074,218.82,0.14626,
2,1,0,1,0,32720.1,0.149863,0.149472,50.7457,17,0.00688379,10,0.00758505,-1.2946,0.536078,0.110059,217.842,0.149472,
2,1,0,1,0,32720.1,0.153064,0.152723,51.4401,17,0.00708823,10,0.00785609,-1.2887,0.550546,0.107166,214.972,0.152723,
2,1,0,1,0,32720.1,0.156266,0.155906,52.1259,17,0.00729545,10,0.00812677,-1.28295,0.566183,0.104207,211.856,0.155906,
2,1,0,1,0,32720.1,0.159462,0.15911,52.7932,17,0.00750537,10,0.00839993,-1.27742,0.587319,0.100456,206.809,0.15911,
2,1,0,1,0,32720.1,0.16267,0.162305,53.4644,17,0.00771793,10,0.00867754,-1.27194,0.612483,0.0963292,200.76,0.162305,
2,1,0,1,0,32720.1,0.165866,0.165504,54.0833,17,0.0079331,10,0.00895102,-1.26694,0.647364,0.0911388,192.136,0.165504,
2,1,0,1,0,32720.2,0.169062,0.16872,54.6985,17,0.00815071,10,0.00922875,-1.26202,0.690863,0.0854004,182.047,0.16872,
2,1,0,1,0,32720.2,0.172266,0.171962,55.2626,17,0.00837072,10,0.00950307,-1.25757,0.739661,0.0797663,171.761,0.171962,
2,1,0,1,0,32720.2,0.175462,0.175102,55.7941,17,0.00859289,10,0.00976965,-1.25341,0.808829,0.072945,158.596,0.175102,
2,1,0,1,0,32720.2,0.178667,0.1783,56.2812,17,0.00881711,10,0.0100349,-1.24964,0.891415,0.0661869,145.12,0.1783,
2,1,0,1,0,32720.2,0.181863,0.181553,56.7337,17,0.00904321,10,0.0103002,-1.24616,1.02448,0.0575901,127.22,0.181553,
2,1,0,1,0,32720.2,0.185059,0.184691,57.1098,17,0.00927096,10,0.0105477,-1.24329,1.23103,0.0479275,106.542,0.184691,
2,1,0,1,0,32720.2,0.188266,0.187887,57.4206,17,0.00950011,10,0.0107886,-1.24093,1.59351,0.0370253,82.739,0.187887,
2,1,0,1,0,32720.2,0.191463,0.191096,57.6445,17,0.0097303,10,0.0110156,-1.23924,2.32252,0.0254034,56.982,0.191096,
2,1,0,1,0,32720.2,0.194664,0.194305,57.7888,17,0.0099612,10,0.0112286,-1.23816,4.59519,0.0128395,28.8653,0.194305,
2,1,0,1,0,32720.2,0.197866,0.197549,57.8425,17,0.0101925,10,0.0114267,-1.23775,-792.042,-7.4491e-05,-0.167578,0.197549,
2,1,0,1,0,32720.2,0.201062,0.200715,57.7909,17,0.0104238,10,0.0115995,-1.23814,-4.3753,-0.0134848,-30.3102,0.200715,
2,1,0,1,0,32720.2,0.204269,0.203944,57.6423,17,0.0106547,10,0.0117558,-1.23926,-2.10612,-0.0280135,-62.7975,0.203944,
2,1,0,1,0,32720.2,0.207465,0.207104,57.4008,17,0.0108848,10,0.0118879,-1.24108,-1.42554,-0.0413878,-92.3862,0.207104,
2,1,0,1,0,32720.2,0.210662,0.210352,57.0385,17,0.0111136,10,0.0119982,-1.24383,-1.05239,-0.0560628,-124.37,0.210352,
2,1,0,1,0,32720.2,0.213866,0.213533,56.6067,17,0.0113409,10,0.0120874,-1.24713,-0.845035,-0.0698196,-153.7,0.213533,
2,1,0,1,0,32720.2,0.217062,0.216737,56.0513,17,0.0115662,10,0.0121484,-1.25141,-0.701168,-0.0841453,-183.434,0.216737,
2,1,0,1,0,32720.2,0.220267,0.219961,55.4246,17,0.0117891,10,0.0121913,-1.2563,-0.599523,-0.0984116,-212.147,0.2199614,
2,1,0,1,0,32720.2,0.223463,0.223133,54.694,17,0.0120093,10,0.012204,-1.26206,-0.529823,-0.111358,-236.96,0.223133,
2,1,0,1,0,32720.2,0.226659,0.226343,53.8891,17,0.0122264,10,0.0121974,-1.2685,-0.47681,-0.123739,-259.541,0.226343,
2,1,0,1,0,32720.2,0.229866,0.229506,53.0254,17,0.0124402,10,0.0121697,-1.27552,-0.434674,-0.135734,-280.121,0.229506,
2,1,0,1,0,32720.2,0.233062,0.232775,52.0989,17,0.0126504,10,0.0121273,-1.28317,-0.402447,-0.146603,-297.312,0.232775,
2,1,0,1,0,32720.2,0.236264,0.235939,51.1069,17,0.0128567,10,0.0120581,-1.29152,-0.376991,-0.156502,-311.478,0.235939,
2,1,0,1,0,32720.2,0.239466,0.239135,50.086,17,0.013059,10,0.0119773,-1.30028,-0.357748,-0.16492,-321.904,0.239135,
2,1,0,1,0,32720.2,0.242662,0.242364,49.0206,17,0.0132571,10,0.0118808,-1.30962,-0.343294,-0.171864,-328.503,0.242364,
2,1,0,1,0,32720.2,0.245869,0.245556,47.9846,17,0.0134511,10,0.0117829,-1.3189,-0.332544,-0.17742,-331.855,0.245556,
2,1,0,1,0,32720.3,0.249065,0.248725,46.9065,17,0.0136407,10,0.0116668,-1.32877,-0.324647,-0.181736,-332.412,0.248725,
2,1,0,1,0,32720.3,0.252261,0.251955,45.8315,17,0.0138261,10,0.0115475,-1.33884,-0.317763,-0.185673,-332.107,0.251955,
2,1,0,1,0,32720.3,0.255466,0.255126,44.7784,17,0.0140072,10,0.0114241,-1.34893,-0.318395,-0.185304,-323.965,0.255126,
2,1,0,1,0,32720.3,0.258662,0.258325,43.7442,17,0.0141841,10,0.0113002,-1.35908,-0.31862,-0.185174,-316.354,0.258325,
2,1,0,1,0,32720.3,0.261866,0.261551,42.7515,17,0.014357,10,0.0111817,-1.36905,-0.32108,-0.183755,-306.751,0.261551,
2,1,0,1,0,32720.3,0.265063,0.264756,41.7818,17,0.014526,10,0.011062,-1.37901,-0.324654,-0.181732,-296.585,0.264756,
2,1,0,1,0,32720.3,0.268259,0.267995,40.8308,17,0.0146911,10,0.0109424,-1.38901,-0.328583,-0.179559,-286.53,0.267995,
2,1,0,1,0,32720.3,0.271466,0.271126,39.9475,17,0.0148526,10,0.0108308,-1.39851,-0.335654,-0.175776,-274.459,0.271126,
2,1,0,1,0,32720.3,0.274662,0.274364,39.0799,17,0.0150106,10,0.0107221,-1.40805,-0.344426,-0.1713,-261.669,0.274364,
2,1,0,1,0,32720.3,0.277869,0.277492,38.2864,17,0.0151652,10,0.0106242,-1.41696,-0.355519,-0.165955,-248.274,0.277492,
2,1,0,1,0,32720.3,0.281065,0.280729,37.4986,17,0.0153167,10,0.0105269,-1.42598,-0.36697,-0.160776,-235.624,0.280729,
2,1,0,1,0,32720.3,0.284262,0.283951,36.7635,17,0.0154652,10,0.010439,-1.43458,-0.38017,-0.155194,-223.06,0.283951,
2,1,0,1,0,32720.3,0.287469,0.287162,36.0646,17,0.0156108,10,0.0103564,-1.44292,-0.391122,-0.150848,-212.653,0.2871615,
2,1,0,1,0,32720.3,0.290665,0.290395,35.4082,17,0.0157536,10,0.0102824,-1.4509,-0.410092,-0.14387,-199.157,0.290395,
2,1,0,1,0,32720.3,0.293861,0.293519,34.7789,17,0.0158939,10,0.0102082,-1.45868,-0.418708,-0.14091,-191.9,0.2935186,
2,1,0,1,0,32720.3,0.297066,0.296786,34.2073,17,0.0160319,10,0.0101522,-1.46588,-0.420592,-0.140279,-189.017,0.296786,
2,1,0,1,0,32720.3,0.299638,0.299212,33.7521,17,0.0161406,10,0.010099,-1.4717,-0.10917,-0.54044,-693.78,0.299212,
2,1,0,1,0,32720.3,0.300012,0.299651,33.6586,17,0.0161574,10,0.0100858,-1.4729,0.0088895,6.63704,7612.37,0.299651,
2,1,0,1,0,32720.3,0.298983,0.298854,31.0776,17,0.0161985,10,0.00928765,-1.50755,0.0317552,1.85797,1927.96,0.298854,
2,1,0,1,0,32720.3,0.295787,0.295582,25.0456,17,0.0163095,10,0.00740302,-1.60127,0.0347263,1.699,1606.65,0.295582,
2,1,0,1,0,32720.3,0.292579,0.292348,20.5184,17,0.0163999,10,0.00599851,-1.68786,0.0358233,1.64697,1355.07,0.292348,
2,1,0,1,0,32720.3,0.289383,0.289129,16.7527,17,0.0164739,10,0.00484367,-1.77592,0.0344803,1.71112,1123.09,0.289129,
2,1,0,1,0,32720.3,0.286187,0.285883,13.501,17,0.016534,10,0.0038597,-1.86963,0.0317992,1.85539,967.113,0.285883,
2,1,0,1,0,32720.3,0.282983,0.282743,10.6258,17,0.0165818,10,0.00300436,-1.97364,0.027866,2.11728,853.463,0.282743,
2,1,0,1,0,32720.3,0.279786,0.2795,8.09305,17,0.0166189,10,0.00226201,-2.09189,0.023062,2.55832,762.186,0.2795,
2,1,0,1,0,32720.3,0.276582,0.2763,5.80376,17,0.0166464,10,0.00160358,-2.23629,0.0172153,3.42717,680.504,0.2763,
2,1,0,1,0,32720.4,0.273386,0.273125,3.77722,17,0.0166653,10,0.00103165,-2.42283,0.00836409,7.05397,614.526,0.273125,
2,1,0,1,0,32720.4,0.27019,0.269949,1.91955,17,0.0166765,10,0.00051818,-2.7168,0.019634,3.005,555.817,0.269949,
2,1,0,1,0,32720.4,0.266982,0.266721,0.240035,17,0.0166806,10,6.40224e-05,-3.61973,0.0875027,0.674265,506.561,0.266721,
2,0,0,1,0,32720.4,0.263786,0.263524,-1.29722,17,0.0166782,10,-0.000341848,-2.88699,-0.0404355,-1.45912,460.283,0.263524,
2,0,0,1,0,32720.4,0.260585,0.260342,-2.69826,17,0.0166701,10,-0.000702468,-2.56892,-0.00965335,-6.11187,419.768,0.260342,
2,0,0,1,0,32720.4,0.257383,0.25712,-3.98534,17,0.0166565,10,-0.00102471,-2.39953,-0.0188029,-3.13781,386.284,0.25712,
2,0,0,1,0,32720.4,0.254187,0.25386,-5.15843,17,0.0166381,10,-0.00130952,-2.28748,-0.029873,-1.97503,355.492,0.25386,
2,0,0,1,0,32720.4,0.25098,0.250665,-6.26424,17,0.0166151,10,-0.00157023,-2.20313,-0.0407449,-1.44803,330.544,0.250665,
2,0,0,1,0,32720.4,0.247783,0.247485,-7.2686,17,0.0165879,10,-0.00179887,-2.13855,-0.052147,-1.13142,306.197,0.247485,
2,0,0,1,0,32720.4,0.244587,0.244312,-8.21915,17,0.0165569,10,-0.00200803,-2.08517,-0.064401,-0.916135,283.931,0.244312,
2,0,0,1,0,32720.4,0.241383,0.24106,-9.0778,17,0.0165222,10,-0.0021883,-2.04202,-0.0769416,-0.766815,265.052,0.2410603,
2,0,0,1,0,32720.4,0.238187,0.237882,-9.89379,17,0.0164841,10,-0.00235356,-2.00464,-0.0908295,-0.649569,246.255,0.237882,
2,0,0,1,0,32720.4,0.234982,0.234686,-10.661,17,0.0164429,10,-0.00250199,-1.9722,-0.104517,-0.5645,231.039,0.234686,
2,0,0,1,0,32720.4,0.231786,0.231476,-11.3799,17,0.0163988,10,-0.00263417,-1.94386,-0.118783,-0.496703,217.647,0.231476,
2,0,0,1,0,32720.4,0.22859,0.228259,-12.0354,17,0.0163518,10,-0.00274719,-1.91954,-0.134751,-0.437846,203.611,0.228259,
2,0,0,1,0,32720.4,0.225383,0.225097,-12.6765,17,0.0163023,10,-0.00285343,-1.897,-0.149253,-0.395303,194.106,0.225097,
2,0,0,1,0,32720.4,0.222187,0.221898,-13.2649,17,0.0162503,10,-0.00294345,-1.8773,-0.16455,-0.358553,184.408,0.221898,
2,0,0,1,0,32720.4,0.218979,0.21867,-13.8657,17,0.016196,10,-0.00303201,-1.85806,-0.182144,-0.32392,173.958,0.21867,
2,0,0,1,0,32720.4,0.215783,0.215482,-14.3915,17,0.0161395,10,-0.00310112,-1.84189,-0.197894,-0.298139,166.438,0.215482,
2,0,0,1,0,32720.4,0.212587,0.212285,-14.9052,17,0.0160808,10,-0.00316415,-1.82666,-0.218006,-0.270634,156.841,0.2122851,
2,0,0,1,0,32720.4,0.20938,0.209089,-15.3967,17,0.0160201,10,-0.00321929,-1.81257,-0.233592,-0.252577,151.22,0.209089,
2,0,0,1,0,32720.4,0.206184,0.205835,-15.8788,17,0.0159575,10,-0.0032684,-1.79918,-0.249829,-0.236162,145.821,0.205835,
2,0,0,1,0,32720.4,0.202988,0.202656,-16.3312,17,0.0158931,10,-0.0033096,-1.78698,-0.267333,-0.220699,140.197,0.202656,
2,0,0,1,0,32720.4,0.199783,0.199465,-16.7747,17,0.0158268,10,-0.00334596,-1.77535,-0.284147,-0.207639,135.568,0.1994648,
2,0,0,1,0,32720.4,0.196587,0.196296,-17.1902,17,0.0157588,10,-0.00337438,-1.76472,-0.302507,-0.195037,130.553,0.196296,
2,0,0,1,0,32720.5,0.193382,0.193062,-17.6103,17,0.0156892,10,-0.00339989,-1.75423,-0.317477,-0.18584,127.491,0.193062,
2,0,0,1,0,32720.5,0.190186,0.189879,-17.9992,17,0.0156179,10,-0.00341767,-1.74475,-0.329515,-0.179051,125.665,0.1898787,
2,0,0,1,0,32720.5,0.18699,0.18666,-18.4071,17,0.0155451,10,-0.00343588,-1.73501,-0.343419,-0.171802,123.287,0.18666,
2,0,0,1,0,32720.5,0.183783,0.183481,-18.8006,17,0.0154706,10,-0.00344957,-1.72583,-0.348939,-0.169084,123.931,0.183481,
2,0,0,1,0,32720.5,0.180587,0.180269,-19.1875,17,0.0153946,10,-0.00345892,-1.71698,-0.364632,-0.161807,121.075,0.1802693,
2,0,0,1,0,32720.5,0.17738,0.177086,-19.5847,17,0.015317,10,-0.00346817,-1.70808,-0.372213,-0.158511,121.041,0.177086,
2,0,0,1,0,32720.5,0.174183,0.173833,-19.9602,17,0.0152379,10,-0.00346974,-1.69983,-0.369212,-0.1598,124.572,0.173833,
2,0,0,1,0,32720.5,0.170987,0.17066,-20.3526,17,0.0151572,10,-0.00347337,-1.69138,-0.376965,-0.156513,124.429,0.17066,
2,0,0,1,0,32720.5,0.16778,0.167461,-20.7831,17,0.0150749,10,-0.00348035,-1.68229,-0.371242,-0.158926,128.842,0.167461,
2,0,0,1,0,32720.5,0.164584,0.164285,-21.1775,17,0.014991,10,-0.00347914,-1.67413,-0.367712,-0.160452,132.68,0.164285,
2,0,0,1,0,32720.5,0.161382,0.161047,-21.6075,17,0.0149054,10,-0.00347983,-1.6654,-0.362657,-0.162688,137.46,0.161047,
2,0,0,1,0,32720.5,0.158183,0.15789,-22.0468,17,0.014818,10,-0.00348098,-1.65665,-0.349789,-0.168673,145.455,0.1578905,
2,0,0,1,0,32720.5,0.154987,0.154676,-22.5404,17,0.0147288,10,-0.00348647,-1.64704,-0.335957,-0.175618,154.764,0.154676,
2,0,0,1,0,32720.5,0.151783,0.151471,-23.0413,17,0.0146376,10,-0.00349009,-1.63749,-0.321915,-0.183278,165.136,0.151471,
2,0,0,1,0,32720.5,0.148587,0.148284,-23.5828,17,0.0145443,10,-0.00349696,-1.6274,-0.308529,-0.19123,176.512,0.148284,
2,0,0,1,0,32720.5,0.145385,0.145098,-24.1593,17,0.0144487,10,-0.00350547,-1.61691,-0.291085,-0.20269,191.794,0.145098,
2,0,0,1,0,32720.5,0.142183,0.141886,-24.7981,17,0.0143508,10,-0.0035185,-1.60558,-0.274497,-0.214938,208.845,0.141886,
2,0,0,1,0,32720.5,0.138987,0.138695,-25.4917,17,0.0142501,10,-0.00353557,-1.5936,-0.259696,-0.227189,226.86,0.138695,
2,0,0,1,0,32720.5,0.13578,0.135469,-26.2591,17,0.0141466,10,-0.00355731,-1.58072,-0.245831,-0.240003,246.75,0.135469,
2,0,0,1,0,32720.5,0.132584,0.132275,-27.0682,17,0.0140399,10,-0.00358046,-1.56754,-0.234973,-0.251093,266.184,0.132275,
2,0,0,1,0,32720.5,0.129388,0.129103,-27.9524,17,0.0139298,10,-0.00360873,-1.55358,-0.223113,-0.26444,289.636,0.1291026,
2,0,0,1,0,32720.5,0.12618,0.125865,-28.9068,17,0.0138159,10,-0.00363835,-1.539,-0.213585,-0.276237,312.882,0.125865,
2,0,0,1,0,32720.5,0.122984,0.122721,-29.9515,17,0.0136982,10,-0.00367568,-1.52358,-0.20712,-0.284859,333.983,0.122721,
2,0,0,1,0,32720.5,0.119782,0.11949,-31.0685,17,0.013576,10,-0.00371238,-1.50768,-0.203501,-0.289925,351.907,0.11949,
2,0,0,1,0,32720.5,0.116584,0.116284,-32.2335,17,0.0134493,10,-0.00374825,-1.49169,-0.203465,-0.289977,364.796,0.116284,
2,0,0,1,0,32720.6,0.113387,0.113085,-33.4041,17,0.013318,10,-0.00377751,-1.4762,-0.20487,-0.287988,375.412,0.113085,
2,0,0,1,0,32720.6,0.110183,0.109893,-34.631,17,0.0131818,10,-0.00380571,-1.46054,-0.210286,-0.28057,378.872,0.109893,
2,0,0,1,0,32720.6,0.106987,0.106756,-35.8492,17,0.0130407,10,-0.0038271,-1.44552,-0.214398,-0.275189,384.486,0.106756,
2,0,0,1,0,32720.6,0.103785,0.103488,-37.0815,17,0.0128947,10,-0.0038375,-1.43084,-0.223868,-0.263548,380.647,0.103488,
2,0,0,1,0,32720.6,0.100583,0.100331,-38.3081,17,0.0127438,10,-0.00384347,-1.41671,-0.236791,-0.249165,371.171,0.100331,
2,0,0,1,0,32720.6,0.0973873,0.0971228,-39.492,17,0.012588,10,-0.00383558,-1.40349,-0.247055,-0.238813,366.939,0.0971228,
2,0,0,1,0,32720.6,0.0941801,0.0939851,-40.5892,17,0.0124277,10,-0.00381478,-1.39159,-0.259493,-0.227366,359.927,0.0939851,
2,0,0,1,0,32720.6,0.0909839,0.0907604,-41.7519,17,0.0122629,10,-0.00378942,-1.37932,-0.273628,-0.215621,350.854,0.09076041,
2,0,0,1,0,32720.6,0.0877878,0.0875622,-42.9038,17,0.0120935,10,-0.00375675,-1.3675,-0.286163,-0.206176,344.02,0.0875622,
2,0,0,1,0,32720.6,0.0845806,0.0843428,-43.9759,17,0.0119196,10,-0.00370906,-1.35678,-0.306264,-0.192644,329.55,0.0843428,
2,0,0,1,0,32720.6,0.0813844,0.0811775,-44.9953,17,0.0117415,10,-0.00365261,-1.34683,-0.331805,-0.177815,311.391,0.0811775,
2,0,0,1,0,32720.6,0.0781828,0.0779231,-45.9824,17,0.0115595,10,-0.00358309,-1.33741,-0.35993,-0.163921,293.216,0.0779231,
2,0,0,1,0,32720.6,0.0749838,0.0747324,-46.8989,17,0.0113736,10,-0.00350486,-1.32884,-0.389366,-0.151529,276.434,0.0747324,
2,0,0,1,0,32720.6,0.0717877,0.0714918,-47.7441,17,0.0111842,10,-0.00341331,-1.32108,-0.423861,-0.139197,258.645,0.0714918,
2,0,0,1,0,32720.6,0.0685832,0.0683572,-48.5393,17,0.0109915,10,-0.00331801,-1.31391,-0.465369,-0.126781,239.561,0.0683572,
2,0,0,1,0,32720.6,0.0653871,0.0651792,-49.2786,17,0.0107958,10,-0.00321194,-1.30734,-0.504157,-0.117027,224.537,0.0651792,
2,0,0,1,0,32720.6,0.0621854,0.0619227,-49.9676,17,0.0105973,10,-0.00309413,-1.30131,-0.556882,-0.105947,206.125,0.0619227,
2,0,0,1,0,32720.6,0.0589837,0.0587298,-50.6096,17,0.010396,10,-0.00297229,-1.29577,-0.617451,-0.0955541,188.274,0.0587298,
2,0,0,1,0,32720.6,0.0557876,0.0555114,-51.1871,17,0.0101923,10,-0.00284147,-1.29084,-0.693434,-0.0850839,169.507,0.0555114,
2,0,0,1,0,32720.6,0.0525804,0.0522411,-51.7145,17,0.00998648,10,-0.00270162,-1.28639,-0.791086,-0.074581,150.097,0.0522411,
2,0,0,1,0,32720.6,0.0493842,0.0490864,-52.1434,17,0.0097787,10,-0.00255953,-1.2828,-0.902406,-0.0653808,132.775,0.04908644,
2,0,0,1,0,32720.6,0.0461881,0.0458808,-52.5382,17,0.00956928,10,-0.0024105,-1.27952,-1.03838,-0.0568191,116.315,0.0458808,
2,0,0,1,0,32720.6,0.0429808,0.0426583,-52.8937,17,0.00935836,10,-0.00225635,-1.2766,-1.18338,-0.0498573,102.736,0.0426583,
2,0,0,1,0,32720.6,0.0397847,0.0394675,-53.2002,17,0.00914615,10,-0.00209968,-1.27409,-1.37501,-0.0429089,88.9319,0.0394675,
2,0,0,1,0,32720.6,0.036583,0.0362619,-53.4609,17,0.00893278,10,-0.00193859,-1.27196,-1.64564,-0.0358523,74.6753,0.0362619,
2,0,0,1,0,32720.7,0.0333841,0.0330563,-53.6787,17,0.00871847,10,-0.00177442,-1.2702,-1.91455,-0.0308166,64.4785,0.0330563,
2,0,0,1,0,32720.7,0.030188,0.0298676,-53.8488,17,0.00850338,10,-0.00160834,-1.26882,-2.3471,-0.0251374,52.7777,0.02986763,
2,0,0,1,0,32720.7,0.0269835,0.0266451,-54.027,17,0.0082876,10,-0.00143955,-1.26739,-2.87206,-0.0205428,43.2565,0.0266451,
2,0,0,1,0,32720.7,0.0237874,0.0234649,-54.1363,17,0.00807125,10,-0.0012703,-1.26651,-3.72305,-0.0158472,33.4357,0.0234649,
2,0,0,1,0,32720.7,0.0205857,0.0202731,-54.2317,17,0.0078545,10,-0.00109944,-1.26575,-5.56025,-0.010611,22.4329,0.0202731,
2,0,0,1,0,32720.7,0.017384,0.0170908,-54.276,17,0.00763745,10,-0.00092762,-1.26539,-8.22986,-0.00716902,15.1736,0.0170908,
2,0,0,1,0,32720.7,0.0141878,0.0138375,-54.3143,17,0.00742025,10,-0.000751573,-1.26509,-18.036,-0.00327124,6.92922,0.0138375,
2,0,0,1,0,32720.7,0.0109806,0.0106732,-54.3304,17,0.00720293,10,-0.00057988,-1.26496,88.9771,0.000663092,-1.40434,0.0106732,
2,0,0,1,0,32720.7,0.00778448,0.00745806,-54.3205,17,0.00698562,10,-0.000405125,-1.26504,26.8414,0.00219809,-4.65677,0.00745806,
2,0,0,1,0,32720.7,0.00458834,0.00428214,-54.258,17,0.00676845,10,-0.000232341,-1.26554,7.96084,0.00741127,-15.6853,0.004282143,
2,0,0,1,0,32720.7,0.0013811,0.000991701,-54.2545,17,0.00655146,10,-5.38043e-05,-1.26556,5.60439,0.0105275,-22.2588,0.000991701,
2,0,0,1,0,32720.7,-0.00181504,-0.00216301,-54.1291,17,0.00633469,10,0.000117082,-1.26657,4.03933,0.0146064,-30.8163,-0.00216301,
2,0,0,1,0,32720.7,-0.0050195,-0.00541952,-54.0338,17,0.00611838,10,0.000292837,-1.26733,2.84063,0.02077,-43.7512,-0.00541952,
2,0,0,1,0,32720.7,-0.00821564,-0.00856469,-53.8621,17,0.00590259,10,0.000461312,-1.26872,2.42538,0.0243261,-51.0777,-0.00856469,
2,0,0,1,0,32720.7,-0.0114118,-0.0117851,-53.6955,17,0.00568749,10,0.000632809,-1.27006,2.01156,0.0293305,-61.4009,-0.0117851,
2,0,0,1,0,32720.7,-0.0146162,-0.0149653,-53.4752,17,0.00547315,10,0.000800272,-1.27185,1.83468,0.0321582,-67.0583,-0.0149653,
2,0,0,1,0,32720.7,-0.0178124,-0.0182038,-53.2489,17,0.0052597,10,0.000969331,-1.27369,1.62055,0.0364074,-75.6045,-0.0182038,
2,0,0,1,0,32720.7,-0.0210196,-0.0213755,-53.0031,17,0.00504722,10,0.00113297,-1.2757,1.47658,0.0399572,-82.5614,-0.0213755,
2,0,0,1,0,32720.7,-0.0242158,-0.0245864,-52.7277,17,0.00483579,10,0.00129638,-1.27796,1.36594,0.0431937,-88.803,-0.0245864,
2,0,0,1,0,32720.7,-0.0274119,-0.0277856,-52.4167,17,0.0046255,10,0.00145643,-1.28053,1.26334,0.0467014,-95.4832,-0.0277856,
2,0,0,1,0,32720.7,-0.0306191,-0.0309753,-52.1147,17,0.00441646,10,0.00161427,-1.28304,1.22038,0.0483455,-98.2924,-0.0309753,
2,0,0,1,0,32720.7,-0.0338153,-0.0342064,-51.7779,17,0.00420869,10,0.00177114,-1.28586,1.18682,0.0497128,-100.44,-0.0342064,
2,0,0,1,0,32720.7,-0.037017,-0.0373982,-51.4684,17,0.00400224,10,0.00192482,-1.28846,1.14525,0.0515173,-103.44,-0.0373982,
2,0,0,1,0,32720.7,-0.0402187,-0.0406144,-51.1282,17,0.00379708,10,0.00207654,-1.29134,1.13678,0.0519009,-103.53,-0.0406144,
2,0,0,1,0,32720.7,-0.0434148,-0.0438052,-50.7876,17,0.00359327,10,0.00222476,-1.29424,1.11814,0.052766,-104.602,-0.0438052,
2,0,0,1,0,32720.8,-0.0466193,-0.0470097,-50.4524,17,0.00339083,10,0.00237175,-1.29712,1.1196,0.0526973,-103.785,-0.04700974,
2,0,0,1,0,32720.8,-0.0498154,-0.0502122,-50.128,17,0.00318972,10,0.00251704,-1.29992,1.16102,0.0508175,-99.458,-0.0502122,
2,0,0,1,0,32720.8,-0.0530115,-0.0533563,-49.8058,17,0.00298989,10,0.00265745,-1.30272,1.18623,0.0497375,-96.7293,-0.0533563,
2,0,0,1,0,32720.8,-0.056216,-0.0565916,-49.5159,17,0.00279127,10,0.00280218,-1.30526,1.25246,0.0471072,-91.0849,-0.0565916,
2,0,0,1,0,32720.8,-0.0594121,-0.0597802,-49.2171,17,0.00259381,10,0.00294221,-1.30788,1.30998,0.0450387,-86.5625,-0.0597802,
2,0,0,1,0,32720.8,-0.0626194,-0.0629752,-48.9655,17,0.0023975,10,0.00308361,-1.31011,1.38834,0.0424967,-81.2575,-0.0629752,
2,0,0,1,0,32720.8,-0.0658155,-0.066218,-48.6924,17,0.00220221,10,0.00322431,-1.31254,1.51315,0.0389916,-74.1717,-0.066218,
2,0,0,1,0,32720.8,-0.0690117,-0.0693854,-48.4763,17,0.00200789,10,0.00336355,-1.31447,1.64725,0.0358173,-67.8371,-0.0693854,
2,0,0,1,0,32720.8,-0.0722189,-0.0725486,-48.2701,17,0.00181441,10,0.00350193,-1.31632,1.85986,0.0317229,-59.8103,-0.0725486,
2,0,0,1,0,32720.8,-0.075415,-0.0757733,-48.0973,17,0.0016217,10,0.00364449,-1.31788,2.0539,0.0287258,-53.9587,-0.0757733,
2,0,0,1,0,32720.8,-0.0786167,-0.078963,-47.9302,17,0.00142968,10,0.00378471,-1.31939,2.36337,0.0249644,-46.737,-0.078963,
2,0,0,1,0,32720.8,-0.0818184,-0.0821484,-47.7876,17,0.00123827,10,0.00392568,-1.32068,2.86068,0.0206245,-38.5149,-0.08214844,
2,0,0,1,0,32720.8,-0.0850146,-0.0853318,-47.6726,17,0.00104736,10,0.00406799,-1.32173,3.47086,0.0169987,-31.6623,-0.0853318,
2,0,0,1,0,32720.8,-0.088219,-0.0885936,-47.6035,17,0.000856852,10,0.00421737,-1.32236,4.54101,0.0129927,-24.1527,-0.0885936,
2,0,0,1,0,32720.8,-0.0914152,-0.091778,-47.5244,17,0.000666609,10,0.0043617,-1.32308,6.20413,0.0095098,-17.6511,-0.091778,
2,0,0,1,0,32720.8,-0.0946141,-0.0949804,-47.4777,17,0.000476633,10,0.00450945,-1.32351,9.16906,0.00643469,-11.9354,-0.0949804,
2,0,0,1,0,32720.8,-0.0978158,-0.0981574,-47.4462,17,0.000286782,10,0.0046572,-1.3238,33.5015,0.00176112,-3.26496,-0.0981574,
2,0,0,1,0,32720.8,-0.101012,-0.101339,-47.4514,17,9.6988e-05,10,0.00480866,-1.32375,-34.9875,-0.00168632,3.1259,-0.101339,
2,0,0,1,0,32720.8,-0.104219,-0.10457,-47.4826,17,-9.2873e-05,10,0.00496524,-1.32347,-11.5762,-0.00509666,9.44941,-0.10457,
2,0,0,1,0,32720.8,-0.107415,-0.107755,-47.5176,17,-0.000282886,10,0.00512027,-1.32315,-6.54105,-0.00901996,16.7418,-0.107755,
2,0,0,1,0,32720.8,-0.110611,-0.110976,-47.5674,17,-0.000473056,10,0.00527882,-1.32269,-5.18102,-0.0113877,21.1628,-0.1109756,
2,0,0,1,0,32720.8,-0.113819,-0.114215,-47.667,17,-0.000663547,10,0.00544429,-1.32178,-3.76223,-0.0156822,29.1962,-0.114215,
2,0,0,1,0,32720.8,-0.117015,-0.117379,-47.7537,17,-0.000854409,10,0.0056053,-1.32099,-3.08928,-0.0190983,35.6238,-0.117379,
2,0,0,1,0,32720.8,-0.120216,-0.120542,-47.8909,17,-0.0010457,10,0.00577285,-1.31975,-2.80042,-0.0210683,39.3995,-0.120542,
2,0,0,1,0,32720.8,-0.123418,-0.123765,-48.023,17,-0.00123754,10,0.00594357,-1.31855,-2.42995,-0.0242804,45.5264,-0.123765,
2,0,0,1,0,32720.9,-0.126614,-0.126972,-48.1696,17,-0.00142991,10,0.00611618,-1.31723,-2.25639,-0.026148,49.1929,-0.126972,
2,0,0,1,0,32720.9,-0.129819,-0.130183,-48.3366,17,-0.00162294,10,0.00629259,-1.31572,-2.06484,-0.0285736,53.9364,-0.130183,
2,0,0,1,0,32720.9,-0.133015,-0.133372,-48.5221,17,-0.00181665,10,0.00647152,-1.31406,-1.89677,-0.0311055,58.9336,-0.133372,
2,0,0,1,0,32720.9,-0.136214,-0.13657,-48.7136,17,-0.00201114,10,0.0066528,-1.31235,-1.84896,-0.0319099,60.6772,-0.1365696,
2,0,0,1,0,32720.9,-0.139416,-0.139812,-48.9263,17,-0.00220645,10,0.0068405,-1.31046,-1.75776,-0.0335655,64.098,-0.139812,
2,0,0,1,0,32720.9,-0.142612,-0.142962,-49.112,17,-0.00240254,10,0.00702114,-1.30881,-1.70616,-0.0345806,66.312,-0.142962,
2,0,0,1,0,32720.9,-0.145819,-0.14618,-49.3431,17,-0.00259947,10,0.00721297,-1.30677,-1.69101,-0.0348903,67.2036,-0.14618,
2,0,0,1,0,32720.9,-0.149015,-0.149332,-49.5599,17,-0.0027973,10,0.00740086,-1.30487,-1.64068,-0.0359608,69.5508,-0.149332,
2,0,0,1,0,32720.9,-0.152211,-0.152582,-49.7845,17,-0.00299602,10,0.0075962,-1.30291,-1.65877,-0.0355685,69.1044,-0.152582,
2,0,0,1,0,32720.9,-0.155418,-0.155812,-50.0057,17,-0.00319566,10,0.00779148,-1.30098,-1.67439,-0.0352368,68.76,-0.155812,
2,0,0,1,0,32720.9,-0.158615,-0.158935,-50.2245,17,-0.00339614,10,0.00798241,-1.29908,-1.64893,-0.0357808,70.1431,-0.158935,
2,0,0,1,0,32720.9,-0.161816,-0.162191,-50.4441,17,-0.0035975,10,0.00818159,-1.29719,-1.71365,-0.0344295,67.7709,-0.162191,
2,0,0,1,0,32720.9,-0.165018,-0.165348,-50.6799,17,-0.00379975,10,0.00837982,-1.29516,-1.73411,-0.0340232,67.2608,-0.165348,
2,0,0,1,0,32720.9,-0.168214,-0.168575,-50.8707,17,-0.00400287,10,0.00857552,-1.29353,-1.81561,-0.0324959,64.4949,-0.1685748,
2,0,0,1,0,32720.9,-0.171419,-0.171779,-51.0884,17,-0.00420681,10,0.00877593,-1.29168,-1.9288,-0.030589,60.9673,-0.171779,
2,0,0,1,0,32720.9,-0.174615,-0.174964,-51.2679,17,-0.00441154,10,0.00897002,-1.29015,-1.91869,-0.0307502,61.5183,-0.174964,
2,0,0,1,0,32720.9,-0.177814,-0.178183,-51.4625,17,-0.00461702,10,0.00916974,-1.28851,-2.0241,-0.0291487,58.5406,-0.178183,
2,0,0,1,0,32720.9,-0.181015,-0.18132,-51.6548,17,-0.0048233,10,0.00936603,-1.28689,-2.03755,-0.0289563,58.3567,-0.18132,
2,0,0,1,0,32720.9,-0.184211,-0.18452,-51.8343,17,-0.0050303,10,0.00956446,-1.28538,-2.13577,-0.0276246,55.8656,-0.18452,
2,0,0,1,0,32720.9,-0.187419,-0.187737,-52.0133,17,-0.00523803,10,0.00976484,-1.28389,-2.27668,-0.025915,52.5824,-0.187737,
2,0,0,1,0,32720.9,-0.190615,-0.190955,-52.176,17,-0.00544643,10,0.00996324,-1.28253,-2.28827,-0.0257836,52.4967,-0.190955,
2,0,0,1,0,32720.9,-0.193811,-0.194127,-52.3282,17,-0.00565547,10,0.0101583,-1.28126,-2.47958,-0.0237943,48.5772,-0.1941274,
2,0,0,1,0,32720.9,-0.197018,-0.197355,-52.5081,17,-0.00586518,10,0.0103627,-1.27977,-3.25609,-0.0181199,37.0226,-0.197355,
2,0,0,1,0,32720.9,-0.199647,-0.200031,-52.6105,17,-0.00603865,10,0.0105237,-1.27893,0.222865,0.264734,-526.134,-0.200031,
2,0,0,1,0,32720.9,-0.200134,-0.20057,-52.532,17,-0.00607021,10,0.0105364,-1.27958,-0.0137729,-4.28378,7974.81,-0.2005704,
2,0,0,1,1,32720.9,-0.198935,-0.199417,-49.5453,17,-0.00614587,10,0.00988017,-1.305,-0.0515464,-1.1446,2015.39,-0.199417,
2,0,0,1,1,32720.9,-0.195739,-0.196188,-43.1972,17,-0.00633009,10,0.00847477,-1.36454,-0.0584539,-1.00934,1684.98,-0.196188,
2,0,0,1,1,32721,-0.192535,-0.192966,-38.3718,17,-0.00649245,10,0.00740446,-1.41599,-0.0621107,-0.949917,1460.82,-0.192966,
2,0,0,1,1,32721,-0.189339,-0.189755,-34.3088,17,-0.00663725,10,0.00651028,-1.46459,-0.0657711,-0.897051,1218.09,-0.189755,
2,0,0,1,1,32721,-0.186137,-0.186552,-30.7521,17,-0.00676691,10,0.00573687,-1.51212,-0.0665589,-0.886433,1072.45,-0.186552,
2,0,0,1,1,32721,-0.182935,-0.183348,-27.5577,17,-0.00688311,10,0.00505265,-1.55976,-0.0658996,-0.895302,966.637,-0.183348,
2,0,0,1,1,32721,-0.179739,-0.180162,-24.6397,17,-0.00698714,10,0.00443913,-1.60836,-0.0641802,-0.919287,884.945,-0.180162,
2,0,0,1,1,32721,-0.176532,-0.176959,-21.9398,17,-0.00707997,10,0.00388245,-1.65877,-0.0616419,-0.957142,818.501,-0.176959,
2,0,0,1,1,32721,-0.173336,-0.173771,-19.4416,17,-0.00716243,10,0.00337838,-1.71127,-0.0585222,-1.00816,761.492,-0.1737708,
2,0,0,1,1,32721,-0.17014,-0.170566,-17.0955,17,-0.00723524,10,0.00291591,-1.76712,-0.0546308,-1.07998,714.537,-0.170566,
2,0,0,1,1,32721,-0.166932,-0.167351,-14.8844,17,-0.00729894,10,0.00249092,-1.82727,-0.0500927,-1.17782,675.174,-0.167351,
2,0,0,1,1,32721,-0.163736,-0.164149,-12.786,17,-0.00735406,10,0.00209881,-1.89327,-0.0450847,-1.30865,640.645,-0.164149,
2,0,0,1,1,32721,-0.160532,-0.160944,-10.7813,17,-0.00740097,10,0.00173519,-1.96733,-0.0396577,-1.48773,609.648,-0.160944,
2,0,0,1,1,32721,-0.157336,-0.157746,-8.88218,17,-0.00744009,10,0.00140113,-2.05148,-0.0335583,-1.75814,584.182,-0.157746,
2,0,0,1,1,32721,-0.154139,-0.154541,-7.07497,17,-0.00747179,10,0.00109338,-2.15028,-0.0271681,-2.17166,557.672,-0.154541,
2,0,0,1,1,32721,-0.150935,-0.151368,-5.31952,17,-0.00749638,10,0.000805203,-2.27413,-0.019862,-2.9705,536.97,-0.151368,
2,0,0,1,1,32721,-0.147739,-0.148146,-3.64421,17,-0.00751411,10,0.000539876,-2.4384,-0.0108571,-5.43425,516.638,-0.148146,
2,0,0,1,1,32721,-0.144532,-0.144963,-2.01798,17,-0.00752527,10,0.000292532,-2.69508,-0.0178639,-3.30276,495.507,-0.144963,
2,0,0,1,1,32721,-0.141335,-0.141757,-0.47013,17,-0.00753006,10,6.66443e-05,-3.32778,-0.0771246,-0.764996,480.033,-0.1417571,
2,1,0,1,1,32721,-0.138139,-0.13857,1.022,17,-0.00752881,10,-0.000141618,-2.99055,0.0446063,1.32268,463.492,-0.13857,
2,1,0,1,1,32721,-0.134932,-0.13537,2.48858,17,-0.00752161,10,-0.00033688,-2.60405,0.0121467,4.85728,450.108,-0.13537,
2,1,0,1,1,32721,-0.131736,-0.132191,3.90153,17,-0.00750868,10,-0.000515748,-2.40877,0.0157381,3.74886,437.466,-0.132191,
2,1,0,1,1,32721,-0.12854,-0.129011,5.26698,17,-0.0074902,10,-0.000679499,-2.27844,0.0255455,2.3096,421.668,-0.129011,
2,1,0,1,1,32721,-0.125333,-0.125821,6.5989,17,-0.00746631,10,-0.000830283,-2.18053,0.0345001,1.71014,411.22,-0.125821,
2,1,0,1,1,32721,-0.122136,-0.122581,7.88153,17,-0.00743721,10,-0.000966124,-2.10339,0.0433192,1.36198,400.949,-0.1225807,
2,1,0,1,1,32721,-0.118932,-0.119403,9.16042,17,-0.00740301,10,-0.00109378,-2.03808,0.0522392,1.12942,390.917,-0.119403,
2,1,0,1,1,32721,-0.115736,-0.116218,10.3962,17,-0.00736376,10,-0.00120823,-1.98312,0.0608352,0.969833,383.733,-0.116218,
2,1,0,1,1,32721.1,-0.11254,-0.113008,11.6077,17,-0.00731964,10,-0.00131177,-1.93525,0.0705452,0.836344,371.253,-0.1130084,
2,1,0,1,1,32721.1,-0.109335,-0.10979,12.7897,17,-0.0072707,10,-0.00140418,-1.89314,0.0799152,0.738283,362.454,-0.10979,
2,1,0,1,1,32721.1,-0.106139,-0.106586,13.9188,17,-0.00721716,10,-0.00148354,-1.8564,0.089474,0.659409,353.931,-0.106586,
2,1,0,1,1,32721.1,-0.102932,-0.103381,15.0492,17,-0.0071591,10,-0.0015558,-1.82249,0.0995833,0.592469,344.376,-0.103381,
2,1,0,1,1,32721.1,-0.0997357,-0.100181,16.1478,17,-0.00709659,10,-0.0016177,-1.79189,0.108388,0.544339,339.854,-0.100181,
2,1,0,1,1,32721.1,-0.0965395,-0.0969348,17.2168,17,-0.00702972,10,-0.0016689,-1.76405,0.119509,0.493685,328.913,-0.0969348,
2,1,0,1,1,32721.1,-0.0933323,-0.0937705,18.274,17,-0.00695862,10,-0.00171357,-1.73817,0.130424,0.452369,320.038,-0.0937705,
2,1,0,1,1,32721.1,-0.0901361,-0.0905575,19.267,17,-0.00688344,10,-0.00174477,-1.71519,0.140376,0.420301,314.232,-0.0905575,
2,1,0,1,1,32721.1,-0.0869345,-0.0873211,20.2634,17,-0.00680428,10,-0.00176942,-1.69329,0.152368,0.387221,304.719,-0.08732111,
2,1,0,1,1,32721.1,-0.0837328,-0.0841388,21.2377,17,-0.00672116,10,-0.00178691,-1.67289,0.162311,0.3635,299.773,-0.0841388,
2,1,0,1,1,32721.1,-0.0805366,-0.0809523,22.18,17,-0.00663422,10,-0.00179552,-1.65404,0.173214,0.340619,293.55,-0.0809523,
2,1,0,1,1,32721.1,-0.0773322,-0.0777308,23.1121,17,-0.00654353,10,-0.00179652,-1.63616,0.186333,0.316638,284.35,-0.07773079,
2,1,0,1,1,32721.1,-0.074136,-0.0745665,24.0075,17,-0.00644922,10,-0.00179015,-1.61965,0.197721,0.2984,278.606,-0.0745665,
2,1,0,1,1,32721.1,-0.0709371,-0.0713312,24.8795,17,-0.00635134,10,-0.00177469,-1.60416,0.210421,0.28039,271.48,-0.0713312,
2,1,0,1,1,32721.1,-0.0677354,-0.068115,25.7565,17,-0.00624997,10,-0.00175441,-1.58911,0.2218,0.266005,266.542,-0.068115,
2,1,0,1,1,32721.1,-0.0645393,-0.0649296,26.5873,17,-0.00614519,10,-0.0017263,-1.57533,0.234817,0.25126,259.898,-0.06492956,
2,1,0,1,1,32721.1,-0.061332,-0.0617706,27.4181,17,-0.00603711,10,-0.00169363,-1.56196,0.249347,0.236618,252.413,-0.0617706,
2,1,0,1,1,32721.1,-0.0581359,-0.0585618,28.1983,17,-0.00592578,10,-0.00165134,-1.54978,0.262216,0.225005,247.046,-0.0585618,
2,1,0,1,1,32721.1,-0.0549398,-0.0553679,28.9741,17,-0.00581136,10,-0.00160423,-1.53799,0.280228,0.210543,237.622,-0.0553679,
2,1,0,1,1,32721.1,-0.0517325,-0.052175,29.7383,17,-0.00569384,10,-0.0015516,-1.52668,0.292815,0.201492,233.31,-0.052175,
2,1,0,1,1,32721.1,-0.0485364,-0.0489121,30.4736,17,-0.00557334,10,-0.00149053,-1.51608,0.309898,0.190385,225.879,-0.0489121,
2,1,0,1,1,32721.1,-0.0453347,-0.045733,31.1914,17,-0.00544993,10,-0.00142647,-1.50597,0.328968,0.179349,217.81,-0.045733,
2,1,0,1,1,32721.1,-0.042133,-0.0425348,31.8728,17,-0.00532373,10,-0.0013557,-1.49658,0.341952,0.172539,214.274,-0.0425348,
2,1,0,1,1,32721.1,-0.0389369,-0.0393112,32.5402,17,-0.00519483,10,-0.00127919,-1.48758,0.363065,0.162505,206.065,-0.0393112,
2,1,0,1,1,32721.1,-0.0357324,-0.0361491,33.2084,17,-0.00506328,10,-0.00120045,-1.47875,0.381463,0.154668,200.035,-0.0361491,
2,1,0,1,1,32721.2,-0.0325363,-0.0329392,33.8277,17,-0.00492913,10,-0.00111426,-1.47073,0.399871,0.147547,194.415,-0.0329392,
2,1,0,1,1,32721.2,-0.0293374,-0.0297071,34.4388,17,-0.00479253,10,-0.00102308,-1.46295,0.427181,0.138115,185.33,-0.0297071,
2,1,0,1,1,32721.2,-0.0261357,-0.026581,35.0151,17,-0.00465354,10,-0.000930737,-1.45574,0.445613,0.132402,180.707,-0.026581,
2,1,0,1,1,32721.2,-0.0229395,-0.0233277,35.5846,17,-0.00451228,10,-0.000830105,-1.44874,0.471611,0.125103,173.497,-0.0233277,
2,1,0,1,1,32721.2,-0.0197323,-0.0201369,36.1412,17,-0.0043688,10,-0.000727771,-1.442,0.497986,0.118477,166.796,-0.0201369,
2,1,0,1,1,32721.2,-0.0165361,-0.0169345,36.6548,17,-0.00422314,10,-0.00062073,-1.43587,0.526924,0.111971,159.937,-0.0169345,
2,1,0,1,1,32721.2,-0.01334,-0.0137649,37.1528,17,-0.00407545,10,-0.000511405,-1.43001,0.561164,0.105139,152.259,-0.0137649,
2,1,0,1,1,32721.2,-0.0101328,-0.0105095,37.6347,17,-0.00392581,10,-0.000395521,-1.42441,0.589512,0.100083,146.819,-0.0105095,
2,1,0,1,1,32721.2,-0.00693663,-0.00733673,38.0901,17,-0.00377431,10,-0.000279457,-1.41919,0.623049,0.0946957,140.557,-0.00733673,
2,1,0,1,1,32721.2,-0.00373494,-0.00410355,38.5386,17,-0.00362101,10,-0.000158145,-1.4141, , , ,-0.00410355,
2,1,0,1,1,32721.2,-0.000774628,-0.00114449,38.9267,17,-0.00347767,10,-4.45511e-05,-1.40975, , , ,-0.001144488,
2,1,0,0,1,32721.2,-0.000125413,-0.000497109,39.0376,17,-0.0034465,10,-1.94059e-05,-1.40852, , , ,-0.000497109,