File: Figure_codes/Fig_S3_S4/20221101_1-115_002_TrumpetPlot_ParaChange_04_CV_C01_1.csv
mode,ox/red,error,control changes,counter inc.,time/s,control/V,Ewe/V,<I>/mA,cycle number,(Q-Qo)/C,I Range,P/W,log(|I|),Tafel slope mV/dec,alpha_eff,E-IR/V,
2,0,0,1,0,1590.43,2.44065e-05,-0.000287149,-0.362085,2,0.0000000E+000,11,1.03972e-07,-3.44119, , ,2.51873e-06,
2,0,0,1,0,1591.7,0.00129791,0.000987475,-0.168859,2,-0.000221089,11,-1.66744e-07,-3.77248, , ,0.00112256,
2,0,0,1,0,1593.2,0.00279612,0.00253677,-0.137938,2,-0.000412996,11,-3.49918e-07,-3.86031,-0.0185736,-3.17656,0.00264712,
2,0,0,1,0,1594.7,0.00429431,0.00399059,-0.118571,2,-0.000571241,11,-4.73168e-07,-3.92602,-0.0265694,-2.2206,0.00408545,
2,0,0,1,0,1596.2,0.00579242,0.00549203,-0.105858,2,-0.000706204,11,-5.81373e-07,-3.97528,-0.0301447,-1.95723,0.00557671,
2,0,0,1,0,1597.7,0.00729061,0.00702116,-0.0954652,2,-0.000823112,11,-6.70277e-07,-4.02015,-0.0339955,-1.73552,0.00709753,
2,0,0,1,0,1599.19,0.00878882,0.00847394,-0.086568,2,-0.000926006,11,-7.33572e-07,-4.06264,-0.0381715,-1.54566,0.00854319,
2,0,0,1,0,1600.69,0.010287,0.0100189,-0.079585,2,-0.00101709,11,-7.97357e-07,-4.09917,-0.0414885,-1.42208,0.0100826,
2,0,0,1,0,1602.19,0.0117852,0.0114781,-0.074002,2,-0.00109873,11,-8.49402e-07,-4.13076,-0.0442586,-1.33307,0.0115373,
2,0,0,1,0,1603.69,0.0132834,0.0129743,-0.0679301,2,-0.00117197,11,-8.81347e-07,-4.16794,-0.0472163,-1.24957,0.0130287,
2,0,0,1,0,1605.19,0.0147815,0.014498,-0.0635222,2,-0.00123766,11,-9.20946e-07,-4.19707,-0.0488478,-1.20783,0.0145488,
2,0,0,1,0,1606.69,0.0162797,0.015973,-0.0596098,2,-0.00129644,11,-9.52149e-07,-4.22468,-0.0530031,-1.11314,0.0160207,
2,0,0,1,0,1608.18,0.0177779,0.0174555,-0.055463,2,-0.00134957,11,-9.68134e-07,-4.256,-0.0538105,-1.09644,0.0174999,
2,0,0,1,0,1609.68,0.0192761,0.0189846,-0.0527988,2,-0.00139776,11,-1.00236e-06,-4.27738,-0.0505756,-1.16657,0.0190268,
2,0,0,1,0,1611.18,0.0207743,0.020519,-0.0491169,2,-0.00144067,11,-1.00783e-06,-4.30877,-0.0553247,-1.06643,0.0205583,
2,0,0,1,0,1612.68,0.0222725,0.0219507,-0.0458424,2,-0.00147899,11,-1.00627e-06,-4.33873,-0.0516556,-1.14218,0.0219873,
2,0,0,1,0,1614.18,0.0237707,0.0234904,-0.0433585,2,-0.00151322,11,-1.01851e-06,-4.36293,-0.060536,-0.974626,0.023525,
2,0,0,1,0,1615.67,0.0252689,0.024995,-0.0410561,2,-0.00154398,11,-1.0262e-06,-4.38662,-0.0563272,-1.04745,0.0250279,
2,0,0,1,0,1617.17,0.0267671,0.0264499,-0.0392736,2,-0.0015708,11,-1.03878e-06,-4.4059,-0.0593729,-0.993719,0.0264813,
2,0,0,1,0,1618.67,0.0282653,0.0279536,-0.0363075,2,-0.00159416,11,-1.01493e-06,-4.44,-0.0547694,-1.07724,0.0279827,
2,0,0,1,0,1620.17,0.0297635,0.0294774,-0.0343193,2,-0.00161426,11,-1.01164e-06,-4.46446,-0.0542693,-1.08717,0.0295049,
2,0,0,1,0,1621.67,0.0312617,0.0309525,-0.0327107,2,-0.00163143,11,-1.01248e-06,-4.48531,-0.0567664,-1.03935,0.0309786,
2,0,0,1,0,1623.17,0.0327599,0.0324402,-0.0307732,2,-0.00164564,11,-9.9829e-07,-4.51183,-0.0557222,-1.05882,0.0324648,
2,0,0,1,0,1624.66,0.0342581,0.0339471,-0.0284731,2,-0.00165662,11,-9.66578e-07,-4.54557,-0.0478215,-1.23375,0.0339699,
2,0,0,1,0,1626.16,0.0357563,0.0354528,-0.0264147,2,-0.00166495,11,-9.36475e-07,-4.57815,-0.0430787,-1.36959,0.035474,
2,0,0,1,0,1627.66,0.0372544,0.0369554,-0.0254437,2,-0.00167071,11,-9.40283e-07,-4.59442,-0.0476686,-1.23771,0.0369757,
2,0,0,1,0,1629.16,0.0387526,0.0384739,-0.0233403,2,-0.00167405,11,-8.97994e-07,-4.63189,-0.0456695,-1.29189,0.0384926,
2,0,0,1,0,1630.66,0.0402508,0.0399224,-0.0214106,2,-0.00167461,11,-8.54763e-07,-4.66937,-0.042547,-1.3867,0.0399395,
2,0,0,1,0,1632.15,0.041749,0.0414728,-0.0193947,2,-0.00167243,11,-8.0435e-07,-4.71232,-0.0482598,-1.22255,0.0414883,
2,0,0,1,0,1633.65,0.0432472,0.0429594,-0.0183119,2,-0.00166799,11,-7.86668e-07,-4.73727,-0.0394936,-1.49391,0.0429741,
2,0,0,1,0,1635.15,0.0447454,0.0444429,-0.0165787,2,-0.00166153,11,-7.36807e-07,-4.78045,-0.0287359,-2.05318,0.0444562,
2,0,0,1,0,1636.65,0.0462435,0.0459571,-0.0147508,2,-0.00165224,11,-6.77906e-07,-4.83118,-0.0265622,-2.2212,0.0459689,
2,0,0,1,0,1638.15,0.0477417,0.0474417,-0.0133356,2,-0.00164043,11,-6.32664e-07,-4.87499,-0.030047,-1.96359,0.0474524,
2,0,0,1,0,1639.65,0.0492399,0.0489634,-0.011618,2,-0.00162616,11,-5.68856e-07,-4.93487,-0.0230625,-2.55827,0.0489727,
2,0,0,1,0,1641.14,0.0507381,0.0504289,-0.00981646,2,-0.00160977,11,-4.95033e-07,-5.00805,-0.0203419,-2.90042,0.0504367,
2,0,0,1,0,1642.64,0.0522363,0.051923,-0.00884258,2,-0.00159061,11,-4.59133e-07,-5.05342,-0.0175728,-3.35746,0.0519301,
2,0,0,1,0,1644.14,0.0537345,0.0534298,-0.00650538,2,-0.00156875,11,-3.47581e-07,-5.18673,-0.0123882,-4.76258,0.053435,
2,0,0,1,0,1645.64,0.0552327,0.0549293,-0.00486389,2,-0.00154465,11,-2.6717e-07,-5.31302,-0.00991359,-5.95142,0.0549332,
2,0,0,1,0,1647.14,0.0567309,0.0564212,-0.00352919,2,-0.00151805,11,-1.99121e-07,-5.45233,-0.00623273,-9.46615,0.0564241,
2,0,0,1,0,1648.63,0.0582291,0.0578814,-0.00117024,2,-0.00148891,11,-6.7735e-08,-5.93173,-0.00793253,-7.43773,0.0578824,
2,0,0,1,0,1650.13,0.0597273,0.0593872,0.000631934,2,-0.00145678,11,3.75288e-08,-6.19933,-0.41161,-0.14334,0.0593867,
2,0,0,1,0,1651.63,0.0612255,0.0609471,0.00180276,2,-0.00142194,11,1.09873e-07,-5.74406,0.00258002,22.868,0.0609457,
2,0,0,1,0,1653.13,0.0627237,0.0624115,0.00338677,2,-0.00138445,11,2.11373e-07,-5.47021,0.00637198,9.25928,0.0624088,
2,0,0,1,0,1654.63,0.0642219,0.0639544,0.00504824,2,-0.00134432,11,3.22857e-07,-5.29686,0.00815962,7.23073,0.0639504,
2,0,0,1,0,1656.13,0.0657201,0.0654454,0.00699577,2,-0.00130092,11,4.57841e-07,-5.15516,0.0107884,5.46882,0.0654398,
2,0,0,1,0,1657.62,0.0672183,0.0669363,0.00947659,2,-0.00125423,11,6.34328e-07,-5.02335,0.0186376,3.16565,0.0669287,
2,0,0,1,0,1659.12,0.0687164,0.0683986,0.0113888,2,-0.0012048,11,7.78974e-07,-4.94352,0.0186125,3.16991,0.0683894,
2,0,0,1,0,1660.62,0.0702146,0.0698937,0.0136878,2,-0.00115289,11,9.56691e-07,-4.86367,0.024067,2.45149,0.0698827,
2,1,0,1,0,1662.12,0.0717128,0.0713751,0.0155742,2,-0.00109741,11,1.11161e-06,-4.80759,0.0226417,2.60581,0.0713626,
2,0,0,1,0,1663.62,0.073211,0.0729106,0.0177564,2,-0.00103869,11,1.29463e-06,-4.75064,0.0303561,1.9436,0.0728964,
2,1,0,1,0,1665.11,0.0747092,0.0743962,0.0189801,2,-0.000976894,11,1.41205e-06,-4.7217,0.0303018,1.94708,0.074381,
2,1,0,1,0,1666.61,0.0762074,0.0759635,0.0213636,2,-0.000912516,11,1.62286e-06,-4.67032,0.0330787,1.78363,0.0759464,
2,1,0,1,0,1668.11,0.0777055,0.077431,0.0237709,2,-0.000844413,11,1.8406e-06,-4.62396,0.0390486,1.51094,0.077412,
2,1,0,1,0,1669.61,0.0792037,0.0789124,0.0264566,2,-0.000773108,11,2.08775e-06,-4.57747,0.0389972,1.51293,0.0788912,
2,1,0,1,0,1671.11,0.0807019,0.0804087,0.0282329,2,-0.000698724,11,2.27017e-06,-4.54924,0.0504698,1.16901,0.0803861,
2,1,0,1,0,1672.61,0.0822001,0.0819187,0.0297372,2,-0.000621536,11,2.43604e-06,-4.5267,0.050311,1.17271,0.0818949,
2,1,0,1,0,1674.1,0.0836983,0.0834277,0.0318294,2,-0.000541296,11,2.65546e-06,-4.49717,0.0481985,1.2241,0.0834023,
2,1,0,1,0,1675.6,0.0851965,0.0849239,0.0341059,2,-0.000457969,11,2.89641e-06,-4.46717,0.0602129,0.979857,0.0848966,
2,1,0,1,0,1677.1,0.0866947,0.0863767,0.0357821,2,-0.00037154,11,3.09074e-06,-4.44633,0.0644438,0.915526,0.0863481,
2,1,0,1,0,1678.6,0.0881929,0.0879058,0.0378096,2,-0.00028198,11,3.32368e-06,-4.4224,0.0762395,0.773877,0.0878756,
2,1,0,1,0,1680.1,0.0896911,0.0893639,0.0399379,2,-0.000190179,11,3.569e-06,-4.39861,0.0712994,0.827496,0.0893319,
2,1,0,1,0,1681.59,0.0911893,0.0909057,0.0422161,2,-9.48447e-05,11,3.83768e-06,-4.37452,0.0706431,0.835185,0.0908719,
2,1,0,1,0,1683.09,0.0926875,0.0923489,0.0441199,2,4.07588e-06,11,4.07442e-06,-4.35537,0.0687381,0.85833,0.0923136,
2,1,0,1,0,1684.59,0.0941857,0.0939067,0.0467655,2,0.000105977,11,4.3916e-06,-4.33007,0.0687945,0.857627,0.0938693,
2,1,0,1,0,1686.09,0.0956839,0.0953765,0.0480139,2,0.00020991,11,4.5794e-06,-4.31863,0.0832697,0.708541,0.0953381,
2,1,0,1,0,1687.59,0.0971821,0.0968546,0.0502234,2,0.000317709,11,4.86437e-06,-4.29909,0.0739806,0.797506,0.0968144,
2,1,0,1,0,1689.09,0.0986803,0.0984516,0.052267,2,0.000428591,11,5.14577e-06,-4.28177,0.086161,0.684765,0.0984098,
2,1,0,1,0,1690.58,0.100178,0.0998979,0.0542139,2,0.000542802,11,5.41585e-06,-4.26589,0.0940289,0.627467,0.0998545,
2,1,0,1,0,1692.08,0.101677,0.101394,0.0560113,2,0.000659845,11,5.67922e-06,-4.25172,0.0875182,0.674145,0.101349,
2,1,0,1,0,1693.58,0.103175,0.102859,0.059612,2,0.000780787,11,6.1316e-06,-4.22467,0.0731376,0.806699,0.102811,
2,1,0,1,0,1695.08,0.104673,0.104364,0.0616609,2,0.000905744,11,6.4352e-06,-4.20999,0.0739246,0.798111,0.104315,
2,1,0,1,0,1696.58,0.106171,0.105884,0.0649271,2,0.00103483,11,6.87474e-06,-4.18757,0.0749609,0.787077,0.105832,
2,1,0,1,0,1698.07,0.107669,0.107373,0.0659542,2,0.00116784,11,7.08169e-06,-4.18076,0.0771209,0.765033,0.10732,
2,1,0,1,0,1699.57,0.109167,0.108888,0.0708275,2,0.0013056,11,7.71227e-06,-4.1498,0.0687076,0.858711,0.108831,
2,1,0,1,0,1701.07,0.110666,0.110361,0.0743005,2,0.00144861,11,8.19987e-06,-4.12901,0.0752869,0.783668,0.110301,
2,1,0,1,0,1702.57,0.112164,0.111919,0.0782399,2,0.00159763,11,8.7565e-06,-4.10657,0.0814803,0.724101,0.111856,
2,1,0,1,0,1704.07,0.113662,0.113365,0.0820153,2,0.00175231,11,9.29767e-06,-4.0861,0.0687431,0.858267,0.113299,
2,1,0,1,0,1705.57,0.11516,0.114874,0.0865144,2,0.00191243,11,9.93826e-06,-4.06291,0.0621787,0.948878,0.114805,
2,1,0,1,0,1707.06,0.116658,0.116328,0.0915462,2,0.00208037,11,1.06494e-05,-4.03836,0.059004,0.999932,0.116255,
2,1,0,1,0,1708.56,0.118157,0.11791,0.0962233,2,0.00225635,11,1.13457e-05,-4.01672,0.0690152,0.854885,0.117833,
2,1,0,1,0,1710.06,0.119655,0.1194,0.102101,2,0.00243997,11,1.21909e-05,-3.99097,0.0639008,0.923307,0.119318,
2,1,0,1,0,1711.56,0.121153,0.120865,0.107134,2,0.00263068,11,1.29488e-05,-3.97007,0.0639324,0.922849,0.12078,
2,1,0,1,0,1713.06,0.122651,0.12235,0.11275,2,0.00283126,11,1.37949e-05,-3.94788,0.0541098,1.09038,0.12226,
2,1,0,1,0,1714.55,0.124149,0.123884,0.119111,2,0.00304132,11,1.4756e-05,-3.92405,0.0691382,0.853363,0.123789,
2,1,0,1,0,1716.05,0.125648,0.12538,0.125152,2,0.00326018,11,1.56915e-05,-3.90256,0.0776087,0.760224,0.125279,
2,1,0,1,0,1717.55,0.127146,0.126834,0.130662,2,0.00348809,11,1.65724e-05,-3.88385,0.0698461,0.844714,0.12673,
2,1,0,1,0,1719.05,0.128644,0.128385,0.138341,2,0.00372538,11,1.77609e-05,-3.85905,0.0834782,0.706772,0.128274,
2,1,0,1,0,1720.55,0.130142,0.129827,0.145339,2,0.00397199,11,1.88689e-05,-3.83762,0.0871561,0.676946,0.129711,
2,1,0,1,0,1722.05,0.13164,0.131373,0.14883,2,0.00422743,11,1.95522e-05,-3.82731,0.100984,0.584249,0.131254,
2,1,0,1,0,1723.54,0.133139,0.132865,0.152869,2,0.00448995,11,2.03109e-05,-3.81568,0.115977,0.50872,0.132743,
2,1,0,1,0,1725.04,0.134637,0.134347,0.158175,2,0.00475878,11,2.12504e-05,-3.80086,0.136107,0.433482,0.134221,
2,1,0,1,0,1726.54,0.136135,0.135878,0.162638,2,0.0050349,11,2.20988e-05,-3.78878,0.169821,0.347425,0.135747,
2,1,0,1,0,1728.04,0.137633,0.137329,0.165774,2,0.00531605,11,2.27656e-05,-3.78048,0.25417,0.232128,0.137197,
2,1,0,1,0,1729.54,0.139131,0.138842,0.168127,2,0.00560097,11,2.33432e-05,-3.77436,0.361396,0.163256,0.138708,
2,1,0,1,0,1731.03,0.14063,0.140334,0.169491,2,0.00588749,11,2.37854e-05,-3.77085,0.702236,0.0840173,0.140199,
2,1,0,1,0,1732.53,0.142128,0.141836,0.169454,2,0.00617615,11,2.40347e-05,-3.77095,-1.88027,-0.0313784,0.1417,
2,1,0,1,0,1734.03,0.143626,0.143325,0.168605,2,0.00646587,11,2.41653e-05,-3.77313,-0.544432,-0.10837,0.14319,
2,1,0,1,0,1735.53,0.145124,0.144832,0.165957,2,0.00675297,11,2.40358e-05,-3.78001,-0.212847,-0.277194,0.144699,
2,1,0,1,0,1737.03,0.146622,0.146338,0.163464,2,0.00703585,11,2.39211e-05,-3.78658,-0.159082,-0.370878,0.146208,
2,1,0,1,0,1738.53,0.14812,0.147834,0.16019,2,0.00731509,11,2.36815e-05,-3.79536,-0.148689,-0.396801,0.147705,
2,1,0,1,0,1740.02,0.149619,0.149395,0.156129,2,0.00758839,11,2.33248e-05,-3.80652,-0.106868,-0.552085,0.14927,
2,1,0,1,0,1741.52,0.151117,0.150827,0.151444,2,0.00785428,11,2.28419e-05,-3.81975,-0.0904914,-0.651996,0.150706,
2,1,0,1,0,1743.02,0.152615,0.152303,0.143675,2,0.00811082,11,2.18822e-05,-3.84262,-0.0757192,-0.779195,0.152188,
2,1,0,1,0,1744.52,0.154113,0.153839,0.137977,2,0.00835743,11,2.12262e-05,-3.86019,-0.066368,-0.888983,0.153728,
2,1,0,1,0,1746.02,0.155611,0.155307,0.131076,2,0.00859442,11,2.03571e-05,-3.88248,-0.0609297,-0.968329,0.155203,
2,1,0,1,0,1747.52,0.15711,0.156852,0.123918,2,0.00882055,11,1.94368e-05,-3.90687,-0.0565178,-1.04392,0.156753,
2,1,0,1,0,1749.01,0.158608,0.158324,0.115715,2,0.00903521,11,1.83204e-05,-3.93661,-0.0574651,-1.02671,0.158232,
2,1,0,1,0,1750.51,0.160106,0.159862,0.108922,2,0.00923826,11,1.74126e-05,-3.96288,-0.0550176,-1.07238,0.159775,
2,1,0,1,0,1752.01,0.161604,0.161332,0.102347,2,0.00943162,11,1.65118e-05,-3.98993,-0.0550277,-1.07219,0.16125,
2,1,0,1,0,1753.51,0.163102,0.162832,0.0969739,2,0.00961517,11,1.57904e-05,-4.01335,-0.0518762,-1.13732,0.162754,
2,1,0,1,0,1755.01,0.164601,0.164308,0.0907534,2,0.00978964,11,1.49115e-05,-4.04214,-0.0579367,-1.01835,0.164235,
2,1,0,1,0,1756.5,0.166099,0.165803,0.0847517,2,0.00995529,11,1.40521e-05,-4.07185,-0.0587762,-1.00381,0.165735,
2,1,0,1,0,1758,0.167597,0.167304,0.0805644,2,0.0101141,11,1.34787e-05,-4.09386,-0.0604991,-0.975222,0.167239,
2,1,0,1,0,1759.5,0.169095,0.1688,0.0764495,2,0.0102666,11,1.29047e-05,-4.11663,-0.0711629,-0.829084,0.168739,
2,1,0,1,0,1761,0.170593,0.170279,0.0721097,2,0.0104131,11,1.22788e-05,-4.14201,-0.0743251,-0.79381,0.170222,
2,1,0,1,0,1762.5,0.172091,0.171815,0.0688886,2,0.0105537,11,1.18361e-05,-4.16185,-0.0802791,-0.734936,0.17176,
2,1,0,1,0,1764,0.17359,0.173295,0.066594,2,0.0106901,11,1.15404e-05,-4.17656,-0.0827179,-0.713268,0.173242,
2,1,0,1,0,1765.49,0.175088,0.174791,0.0642668,2,0.0108222,11,1.12333e-05,-4.19201,-0.0916442,-0.643794,0.17474,
2,1,0,1,0,1766.99,0.176586,0.176281,0.0617505,2,0.0109507,11,1.08854e-05,-4.20936,-0.093401,-0.631685,0.176232,
2,1,0,1,0,1768.49,0.178084,0.177791,0.0596235,2,0.0110756,11,1.06005e-05,-4.22458,-0.113001,-0.522121,0.177743,
2,1,0,1,0,1769.99,0.179582,0.179264,0.0575826,2,0.0111975,11,1.03225e-05,-4.23971,-0.111319,-0.530008,0.179218,
2,1,0,1,0,1771.49,0.181081,0.180795,0.0562356,2,0.0113173,11,1.01671e-05,-4.24999,-0.126868,-0.46505,0.18075,
2,1,0,1,0,1772.98,0.182579,0.182298,0.0548331,2,0.0114343,11,9.99595e-06,-4.26096,-0.125525,-0.470027,0.182254,
2,1,0,1,0,1774.48,0.184077,0.183802,0.0531649,2,0.0115493,11,9.77178e-06,-4.27438,-0.117041,-0.504098,0.183759,
2,1,0,1,0,1775.98,0.185575,0.1853,0.0520798,2,0.011662,11,9.65038e-06,-4.28333,-0.225732,-0.261372,0.185258,
2,1,0,1,0,1777.48,0.187073,0.186797,0.0510204,2,0.0117731,11,9.53047e-06,-4.29226,-0.175868,-0.335478,0.186756,
2,1,0,1,0,1778.98,0.188572,0.188283,0.0503099,2,0.011883,11,9.4725e-06,-4.29835,-0.209581,-0.281514,0.188243,
2,1,0,1,0,1780.48,0.19007,0.189814,0.049312,2,0.0119912,11,9.36011e-06,-4.30705,-0.203487,-0.289945,0.189775,
2,1,0,1,0,1781.97,0.191568,0.191287,0.0488976,2,0.0120978,11,9.35347e-06,-4.31071,-0.154318,-0.382328,0.191248,
2,1,0,1,0,1783.47,0.193066,0.192759,0.0479401,2,0.0122034,11,9.24087e-06,-4.3193,-0.340523,-0.173263,0.192721,
2,1,0,1,0,1784.97,0.194564,0.194257,0.0468484,2,0.0123082,11,9.10064e-06,-4.32931,-0.294993,-0.200005,0.19422,
2,1,0,1,0,1786.47,0.196063,0.195832,0.0474658,2,0.0124119,11,9.29531e-06,-4.32362,-0.304595,-0.1937,0.195794,
2,1,0,1,0,1787.97,0.197561,0.197315,0.0463839,2,0.0125143,11,9.15226e-06,-4.33363,-0.393021,-0.150119,0.197278,
2,1,0,1,0,1789.46,0.199059,0.198738,0.0461323,2,0.0126163,11,9.16825e-06,-4.336,-0.380465,-0.155074,0.198701,
2,1,0,1,0,1790.96,0.200557,0.200292,0.0459979,2,0.0127178,11,9.21301e-06,-4.33726,-0.55612,-0.106092,0.200255,
2,1,0,1,0,1792.46,0.202055,0.201795,0.0450591,2,0.0128186,11,9.09268e-06,-4.34622,-1.81349,-0.0325339,0.201759,
2,1,0,1,0,1793.96,0.203554,0.203253,0.0453109,2,0.0129187,11,9.20956e-06,-4.3438,-0.764914,-0.0771329,0.203216,
2,1,0,1,0,1795.46,0.205052,0.204757,0.044916,2,0.0130183,11,9.19688e-06,-4.3476,-1.65921,-0.0355591,0.204721,
2,1,0,1,0,1796.96,0.20655,0.206269,0.0443585,2,0.0131175,11,9.14981e-06,-4.35302,-0.449046,-0.13139,0.206234,
2,1,0,1,0,1798.45,0.208048,0.207754,0.0444734,2,0.0132168,11,9.23951e-06,-4.3519,-0.636638,-0.0926744,0.207718,
2,1,0,1,0,1799.95,0.209546,0.209288,0.0440027,2,0.0133152,11,9.20925e-06,-4.35652,-0.378195,-0.156004,0.209253,
2,1,0,1,0,1801.45,0.211044,0.210788,0.0442905,2,0.013413,11,9.33589e-06,-4.35369,-3.88603,-0.0151826,0.210752,
2,1,0,1,0,1802.95,0.212543,0.212235,0.0439196,2,0.0135108,11,9.32129e-06,-4.35734,-0.840623,-0.070186,0.2122,
2,1,0,1,0,1804.45,0.214041,0.213758,0.0437613,2,0.0136085,11,9.35433e-06,-4.35891,-2.0632,-0.0285964,0.213723,
2,1,0,1,0,1805.94,0.215539,0.215253,0.0438932,2,0.013706,11,9.44816e-06,-4.3576,0.936706,0.0629867,0.215218,
2,1,0,1,0,1807.44,0.217037,0.216739,0.0439913,2,0.0138031,11,9.53463e-06,-4.35663,45.6703,0.00129187,0.216704,
2,1,0,1,0,1808.94,0.218535,0.218234,0.0437695,2,0.0139002,11,9.55199e-06,-4.35883,-0.462552,-0.127553,0.218199,
2,1,0,1,0,1810.44,0.220034,0.219748,0.043723,2,0.0139975,11,9.60805e-06,-4.35929,-0.821297,-0.0718376,0.219713,
2,1,0,1,0,1811.94,0.221532,0.221241,0.0436059,2,0.0140944,11,9.64743e-06,-4.36045,-0.545897,-0.108079,0.221206,
2,1,0,1,0,1813.44,0.22303,0.222724,0.0431905,2,0.0141912,11,9.61955e-06,-4.36461,1.53065,0.0385458,0.222689,
2,1,0,1,0,1814.93,0.224528,0.224278,0.0434996,2,0.0142878,11,9.75602e-06,-4.36151,0.636817,0.0926483,0.224244,
2,1,0,1,0,1816.43,0.226026,0.22577,0.0434371,2,0.0143846,11,9.80681e-06,-4.36214,1.33188,0.0442983,0.225736,
2,1,0,1,0,1817.93,0.227525,0.227243,0.0430735,2,0.0144813,11,9.78815e-06,-4.36579,1.42446,0.0414191,0.227209,
2,1,0,1,0,1819.43,0.229023,0.228738,0.044172,2,0.0145781,11,1.01038e-05,-4.35485,1.08414,0.0544211,0.228703,
2,1,0,1,0,1820.93,0.230521,0.230243,0.0438088,2,0.0146749,11,1.00867e-05,-4.35844,0.934582,0.0631298,0.230208,
2,1,0,1,0,1822.42,0.232019,0.231711,0.0434641,2,0.0147718,11,1.00711e-05,-4.36187,0.664404,0.0888013,0.231676,
2,1,0,1,0,1823.92,0.233517,0.233215,0.0439232,2,0.0148688,11,1.02436e-05,-4.35731,1.47562,0.0399832,0.23318,
2,1,0,1,0,1825.42,0.235016,0.234772,0.0444895,2,0.0149658,11,1.04449e-05,-4.35174,1.0233,0.0576566,0.234737,
2,1,0,1,0,1826.92,0.236514,0.236202,0.043736,2,0.0150626,11,1.03305e-05,-4.35916,1.14643,0.0514642,0.236167,
2,1,0,1,0,1828.42,0.238012,0.237753,0.0436805,2,0.0151597,11,1.03852e-05,-4.35971,2.02224,0.0291755,0.237718,
2,1,0,1,0,1829.92,0.23951,0.239188,0.0440154,2,0.0152568,11,1.05279e-05,-4.3564,1.80434,0.0326989,0.239152,
2,1,0,1,0,1831.41,0.241008,0.240709,0.0442919,2,0.0153541,11,1.06615e-05,-4.35368,0.777894,0.0758458,0.240674,
2,1,0,1,0,1832.91,0.242506,0.242215,0.0440571,2,0.0154512,11,1.06713e-05,-4.35598,1.48779,0.0396561,0.24218,
2,1,0,1,0,1834.41,0.244005,0.243735,0.0444316,2,0.0155487,11,1.08295e-05,-4.35231,0.443009,0.13318,0.243699,
2,1,0,1,0,1835.91,0.245503,0.245203,0.0448717,2,0.0156467,11,1.10027e-05,-4.34803,0.58397,0.101033,0.245167,
2,1,0,1,0,1837.41,0.247001,0.246742,0.0448425,2,0.0157446,11,1.10645e-05,-4.34831,-0.969504,-0.0608558,0.246706,
2,1,0,1,0,1838.9,0.248499,0.248197,0.0447495,2,0.0158424,11,1.11067e-05,-4.34921,4.1283,0.0142916,0.248161,
2,1,0,1,0,1840.4,0.249997,0.249707,0.0453164,2,0.0159404,11,1.13158e-05,-4.34374,3.60032,0.0163874,0.249671,
2,1,0,1,0,1841.9,0.251496,0.251214,0.0450905,2,0.0160386,11,1.13273e-05,-4.34592,4.76643,0.0123782,0.251178,
2,1,0,1,0,1843.4,0.252994,0.252741,0.0453171,2,0.016137,11,1.14535e-05,-4.34374,1.47054,0.0401214,0.252704,
2,1,0,1,0,1844.9,0.254492,0.254246,0.0453173,2,0.0162354,11,1.15218e-05,-4.34374,11.3417,0.00520203,0.25421,
2,1,0,1,0,1846.4,0.25599,0.255716,0.045628,2,0.0163338,11,1.16678e-05,-4.34077,1.83016,0.0322376,0.25568,
2,1,0,1,0,1847.89,0.257488,0.257238,0.0449532,2,0.0164326,11,1.15637e-05,-4.34724,0.977141,0.0603802,0.257202,
2,1,0,1,0,1849.39,0.258987,0.258717,0.045938,2,0.0165315,11,1.1885e-05,-4.33783,0.577827,0.102107,0.25868,
2,1,0,1,0,1850.89,0.260485,0.260256,0.0461174,2,0.0166307,11,1.20023e-05,-4.33613,0.514197,0.114742,0.260219,
2,1,0,1,0,1852.39,0.261983,0.261681,0.0452046,2,0.0167298,11,1.18292e-05,-4.34482,3.04715,0.0193624,0.261645,
2,1,0,1,0,1853.89,0.263481,0.263179,0.0458025,2,0.0168292,11,1.20543e-05,-4.33911,1.42705,0.0413439,0.263143,
2,1,0,1,0,1855.38,0.264979,0.264671,0.0460361,2,0.0169289,11,1.21844e-05,-4.3369,0.998088,0.059113,0.264635,
2,1,0,1,0,1856.88,0.266477,0.266186,0.0459826,2,0.0170286,11,1.22399e-05,-4.33741,0.737186,0.080034,0.266149,
2,1,0,1,0,1858.38,0.267976,0.267699,0.0462041,2,0.0171284,11,1.23688e-05,-4.33532,1.5086,0.039109,0.267662,
2,1,0,1,0,1859.88,0.269474,0.269168,0.0471026,2,0.0172284,11,1.26785e-05,-4.32695,1.31749,0.0447822,0.269131,
2,1,0,1,0,1861.38,0.270972,0.270675,0.0469187,2,0.0173288,11,1.26997e-05,-4.32865,0.777783,0.0758566,0.270638,
2,1,0,1,0,1862.88,0.27247,0.272201,0.0468564,2,0.0174292,11,1.27544e-05,-4.32923,-1.10929,-0.0531869,0.272164,
2,1,0,1,0,1864.37,0.273968,0.273658,0.0466853,2,0.0175297,11,1.27758e-05,-4.33082,0.710462,0.0830445,0.273621,
2,1,0,1,0,1865.87,0.275467,0.27519,0.0471349,2,0.0176304,11,1.29711e-05,-4.32666,1.62053,0.0364078,0.275153,
2,1,0,1,0,1867.37,0.276965,0.276729,0.0472943,2,0.0177315,11,1.30877e-05,-4.32519,0.560617,0.105241,0.276691,
2,1,0,1,0,1868.87,0.278463,0.278174,0.047354,2,0.0178327,11,1.31727e-05,-4.32464,0.45946,0.128412,0.278137,
2,1,0,1,0,1870.37,0.279961,0.27967,0.0479732,2,0.0179342,11,1.34166e-05,-4.319,0.914026,0.0645496,0.279631,
2,1,0,1,0,1871.86,0.281459,0.281204,0.0481883,2,0.0180355,11,1.35507e-05,-4.31706,3.15711,0.018688,0.281166,
2,1,0,1,0,1873.36,0.282958,0.282655,0.048108,2,0.0181372,11,1.35979e-05,-4.31778,10.0055,0.00589677,0.282616,
2,1,0,1,0,1874.86,0.284456,0.284152,0.0479493,2,0.0182392,11,1.36249e-05,-4.31922,1.3416,0.0439773,0.284114,
2,1,0,1,0,1876.36,0.285954,0.285648,0.0475998,2,0.0183413,11,1.35968e-05,-4.32239,0.353898,0.166715,0.28561,
2,1,0,1,0,1877.86,0.287452,0.287162,0.0483205,2,0.0184433,11,1.38758e-05,-4.31587,0.630105,0.0936352,0.287123,
2,1,0,1,0,1879.36,0.28895,0.28869,0.0485744,2,0.0185458,11,1.40229e-05,-4.31359,0.330086,0.178741,0.288651,
2,1,0,1,0,1880.85,0.290448,0.290163,0.0492542,2,0.0186484,11,1.42918e-05,-4.30756,1.22483,0.0481698,0.290124,
2,1,0,1,0,1882.35,0.291947,0.291673,0.048623,2,0.0187513,11,1.41821e-05,-4.31316,0.387057,0.152432,0.291635,
2,1,0,1,0,1883.85,0.293445,0.293221,0.0491387,2,0.0188543,11,1.44085e-05,-4.30858,-3.70187,-0.0159379,0.293181,
2,1,0,1,0,1885.35,0.294943,0.294645,0.0487743,2,0.0189575,11,1.43711e-05,-4.31181,0.720039,0.08194,0.294606,
2,1,0,1,0,1886.85,0.296441,0.296168,0.0497007,2,0.019061,11,1.47197e-05,-4.30364,1.0023,0.0588648,0.296128,
2,1,0,1,0,1888.34,0.297939,0.297661,0.0496531,2,0.0191647,11,1.47798e-05,-4.30405,2.92337,0.0201822,0.297621,
2,1,0,1,0,1889.84,0.299438,0.299186,0.0496546,2,0.0192683,11,1.4856e-05,-4.30404,-0.00776296,-7.60019,0.299147,
2,1,0,1,0,1890.69,0.299737,0.299454,0.033539,2,0.0193121,11,1.00434e-05,-4.47445,0.00336441,17.5365,0.299427,
2,1,0,1,0,1892.19,0.298239,0.298005,0.023967,2,0.019324,11,7.1423e-06,-4.62039,0.00916402,6.43822,0.297986,
2,1,0,1,0,1893.69,0.296741,0.296453,0.0202362,2,0.0193269,11,5.99906e-06,-4.69387,0.0174066,3.38953,0.296437,
2,1,0,1,0,1895.19,0.295243,0.294954,0.0163455,2,0.0193244,11,4.82119e-06,-4.7866,0.0202411,2.91486,0.294941,
2,1,0,1,0,1896.69,0.293745,0.293444,0.0142967,2,0.0193181,11,4.1953e-06,-4.84476,0.0232317,2.53963,0.293433,
2,1,0,1,0,1898.18,0.292246,0.291932,0.0119966,2,0.0193086,11,3.50219e-06,-4.92094,0.0217269,2.71552,0.291923,
2,1,0,1,0,1899.68,0.290748,0.290471,0.0103918,2,0.019296,11,3.01852e-06,-4.98331,0.0226548,2.6043,0.290463,
2,1,0,1,0,1901.18,0.28925,0.288982,0.00900568,2,0.0192809,11,2.60248e-06,-5.04548,0.0187043,3.15435,0.288975,
2,1,0,1,0,1902.68,0.287752,0.287495,0.00724855,2,0.0192634,11,2.08393e-06,-5.13975,0.0183344,3.218,0.28749,
2,1,0,1,0,1904.18,0.286254,0.285941,0.00597952,2,0.0192439,11,1.70979e-06,-5.22333,0.0183088,3.22249,0.285936,
2,1,0,1,0,1905.67,0.284755,0.28446,0.00479296,2,0.0192222,11,1.3634e-06,-5.3194,0.0128761,4.58214,0.284456,
2,1,0,1,0,1907.17,0.283257,0.282983,0.00307788,2,0.0191985,11,8.70988e-07,-5.51175,0.00833164,7.08144,0.282981,
2,1,0,1,0,1908.67,0.281759,0.281482,0.00200772,2,0.0191731,11,5.65136e-07,-5.6973,0.00780069,7.56344,0.28148,
2,1,0,1,0,1910.17,0.280261,0.27996,0.00164534,2,0.0191461,11,4.60629e-07,-5.78374,0.00516503,11.423,0.279959,
2,0,0,1,0,1911.67,0.278763,0.278497,0.000393756,2,0.0191176,11,1.0966e-07,-6.40477,0.0183295,3.21886,0.278497,
2,0,0,1,0,1913.17,0.277264,0.277003,-0.000946763,2,0.0190871,11,-2.62256e-07,-6.02376,-0.014189,-4.15816,0.277004,
2,0,0,1,0,1914.66,0.275766,0.275464,-0.0013157,2,0.0190553,11,-3.62427e-07,-5.88084,-0.00622695,-9.47494,0.275465,
2,0,0,1,0,1916.16,0.274268,0.273993,-0.00273316,2,0.0190221,11,-7.48869e-07,-5.56333,-0.00526616,-11.2036,0.273996,
2,0,0,1,0,1917.66,0.27277,0.272446,-0.0030743,2,0.0189876,11,-8.37582e-07,-5.51225,-0.0132103,-4.46622,0.272449,
2,0,0,1,0,1919.16,0.271272,0.271006,-0.00404385,2,0.0189515,11,-1.09591e-06,-5.3932,-0.0160105,-3.68507,0.271009,
2,1,0,1,0,1920.66,0.269774,0.269481,-0.00537056,2,0.018914,11,-1.44727e-06,-5.26998,-0.0321136,-1.83723,0.269486,
2,0,0,1,0,1922.15,0.268275,0.268,-0.0060119,2,0.0188754,11,-1.61119e-06,-5.22099,-0.0188324,-3.13291,0.268005,
2,0,0,1,0,1923.65,0.266777,0.266454,-0.00630952,2,0.0188357,11,-1.68119e-06,-5.2,-0.0317105,-1.86058,0.266459,
2,0,0,1,0,1925.15,0.265279,0.265002,-0.00823436,2,0.0187944,11,-2.18212e-06,-5.08437,-0.0301257,-1.95846,0.265009,
2,0,0,1,0,1926.65,0.263781,0.263538,-0.0085485,2,0.018752,11,-2.25285e-06,-5.06811,-0.0370903,-1.59071,0.263545,
2,0,0,1,0,1928.15,0.262283,0.261963,-0.00895875,2,0.0187084,11,-2.34686e-06,-5.04775,-0.036337,-1.62369,0.26197,
2,0,0,1,0,1929.65,0.260784,0.260546,-0.0101355,2,0.0186637,11,-2.64077e-06,-4.99415,-0.0451835,-1.30579,0.260554,
2,0,0,1,0,1931.14,0.259286,0.258996,-0.0112331,2,0.0186178,11,-2.90932e-06,-4.9495,-0.0581314,-1.01494,0.259005,
2,0,0,1,0,1932.64,0.257788,0.257492,-0.0117082,2,0.0185706,11,-3.01477e-06,-4.93151,-0.0555169,-1.06274,0.257502,
2,1,0,1,0,1934.14,0.25629,0.255983,-0.0121917,2,0.0185223,11,-3.12086e-06,-4.91394,-0.0421202,-1.40075,0.255993,
2,1,0,1,0,1935.64,0.254792,0.25454,-0.012612,2,0.0184729,11,-3.21027e-06,-4.89922,-0.0563578,-1.04688,0.25455,
2,0,0,1,0,1937.14,0.253293,0.253016,-0.0137362,2,0.0184225,11,-3.47547e-06,-4.86213,-0.0575851,-1.02457,0.253027,
2,1,0,1,0,1938.63,0.251795,0.251478,-0.0144652,2,0.0183709,11,-3.63768e-06,-4.83967,-0.082781,-0.712724,0.251489,
2,1,0,1,0,1940.13,0.250297,0.250043,-0.0147211,2,0.0183182,11,-3.68092e-06,-4.83206,-0.0815712,-0.723294,0.250055,
2,0,0,1,0,1941.63,0.248799,0.248503,-0.0156671,2,0.0182644,11,-3.89333e-06,-4.80501,-0.0624837,-0.944246,0.248516,
2,0,0,1,0,1943.13,0.247301,0.246998,-0.0165028,2,0.0182098,11,-4.07615e-06,-4.78244,-0.0744148,-0.792853,0.247011,
2,0,0,1,0,1944.63,0.245802,0.245518,-0.0167779,2,0.0181539,11,-4.11929e-06,-4.77526,-0.0768231,-0.767998,0.245532,
2,0,0,1,0,1946.13,0.244304,0.244023,-0.0180474,2,0.0180968,11,-4.40399e-06,-4.74358,-0.143449,-0.411295,0.244038,
2,0,0,1,0,1947.62,0.242806,0.242518,-0.0188585,2,0.0180389,11,-4.57354e-06,-4.72449,-0.0842785,-0.70006,0.242534,
2,0,0,1,0,1949.12,0.241308,0.240997,-0.0186427,2,0.0179801,11,-4.49282e-06,-4.72949,-0.0928204,-0.635636,0.241012,
2,0,0,1,0,1950.62,0.23981,0.239551,-0.0196763,2,0.0179199,11,-4.71348e-06,-4.70606,-0.109321,-0.539696,0.239567,
2,0,0,1,0,1952.12,0.238312,0.238066,-0.020511,2,0.0178588,11,-4.88296e-06,-4.68801,-0.103507,-0.570009,0.238082,
2,0,0,1,0,1953.62,0.236813,0.236512,-0.0208658,2,0.0177967,11,-4.93501e-06,-4.68057,-0.0967837,-0.609607,0.236529,
2,0,0,1,0,1955.11,0.235315,0.234999,-0.0215961,2,0.0177336,11,-5.07506e-06,-4.66563,-0.0996109,-0.592304,0.235016,
2,0,0,1,0,1956.61,0.233817,0.233536,-0.0223137,2,0.0176694,11,-5.21104e-06,-4.65143,-0.0942447,-0.62603,0.233554,
2,0,0,1,0,1958.11,0.232319,0.232018,-0.0225646,2,0.017604,11,-5.2354e-06,-4.64657,-0.135819,-0.4344,0.232036,
2,0,0,1,0,1959.61,0.230821,0.230521,-0.0236609,2,0.0175376,11,-5.45433e-06,-4.62597,-0.124067,-0.475548,0.23054,
2,0,0,1,0,1961.11,0.229322,0.229052,-0.0241125,2,0.0174702,11,-5.52301e-06,-4.61776,-0.101084,-0.583675,0.229072,
2,0,0,1,0,1962.61,0.227824,0.227525,-0.0247147,2,0.0174017,11,-5.62322e-06,-4.60704,-0.851966,-0.0692516,0.227545,
2,0,0,1,0,1964.1,0.226326,0.22604,-0.025519,2,0.0173321,11,-5.76831e-06,-4.59314,-0.134681,-0.438074,0.22606,
2,0,0,1,0,1965.6,0.224828,0.224566,-0.0257796,2,0.0172614,11,-5.7892e-06,-4.58872,-0.143727,-0.4105,0.224586,
2,0,0,1,0,1967.1,0.22333,0.223085,-0.0273939,2,0.0171896,11,-6.11117e-06,-4.56235,-0.169927,-0.347208,0.223107,
2,0,0,1,0,1968.6,0.221831,0.22157,-0.0278169,2,0.017117,11,-6.16339e-06,-4.55569,-0.164041,-0.359667,0.221592,
2,0,0,1,0,1970.1,0.220333,0.220066,-0.0290452,2,0.017043,11,-6.39187e-06,-4.53693,-0.164337,-0.359018,0.22009,
2,0,0,1,0,1971.59,0.218835,0.218563,-0.0286132,2,0.0169678,11,-6.25377e-06,-4.54343,-0.179654,-0.328409,0.218586,
2,0,0,1,0,1973.09,0.217337,0.217074,-0.0302947,2,0.0168913,11,-6.57618e-06,-4.51863,-0.181912,-0.324333,0.217098,
2,0,0,1,0,1974.59,0.215839,0.215568,-0.0306738,2,0.016814,11,-6.61229e-06,-4.51323,-0.196026,-0.300981,0.215593,
2,0,0,1,0,1976.09,0.21434,0.214075,-0.0315551,2,0.0167353,11,-6.75516e-06,-4.50093,-0.131914,-0.447261,0.2141,
2,0,0,1,0,1977.59,0.212842,0.212548,-0.0324087,2,0.0166553,11,-6.8884e-06,-4.48934,-0.12363,-0.477232,0.212574,
2,0,0,1,0,1979.09,0.211344,0.211034,-0.0324501,2,0.0165741,11,-6.84807e-06,-4.48878,-0.151182,-0.390257,0.21106,
2,0,0,1,0,1980.58,0.209846,0.209526,-0.0336356,2,0.0164917,11,-7.04753e-06,-4.4732,-0.138827,-0.424989,0.209553,
2,0,0,1,0,1982.08,0.208348,0.208108,-0.0343562,2,0.0164079,11,-7.14981e-06,-4.464,-0.138146,-0.427084,0.208136,
2,0,0,1,0,1983.58,0.20685,0.206543,-0.0358909,2,0.0163225,11,-7.41302e-06,-4.44502,-0.136638,-0.431798,0.206572,
2,0,0,1,0,1985.08,0.205351,0.205012,-0.0360735,2,0.0162357,11,-7.39549e-06,-4.44281,-0.18894,-0.312269,0.205041,
2,0,0,1,0,1986.58,0.203853,0.203523,-0.0372296,2,0.0161478,11,-7.57709e-06,-4.42911,-0.157159,-0.375417,0.203553,
2,0,0,1,0,1988.08,0.202355,0.20209,-0.0380937,2,0.0160585,11,-7.69838e-06,-4.41915,-0.160437,-0.367746,0.202121,
2,0,0,1,0,1989.57,0.200857,0.200595,-0.0390227,2,0.0159675,11,-7.82777e-06,-4.40868,-0.181405,-0.32524,0.200626,
2,0,0,1,0,1991.07,0.199359,0.199079,-0.0402061,2,0.0158748,11,-8.00417e-06,-4.39571,-0.151538,-0.389341,0.199111,
2,0,0,1,0,1992.57,0.19786,0.197558,-0.0412703,2,0.0157806,11,-8.15329e-06,-4.38436,-0.167711,-0.351795,0.197591,
2,0,0,1,0,1994.07,0.196362,0.196084,-0.0419911,2,0.0156849,11,-8.23379e-06,-4.37684,-0.142248,-0.414769,0.196118,
2,0,0,1,0,1995.57,0.194864,0.194571,-0.0436783,2,0.0155874,11,-8.49853e-06,-4.35973,-0.151591,-0.389206,0.194606,
2,0,0,1,0,1997.06,0.193366,0.193054,-0.044673,2,0.0154875,11,-8.62429e-06,-4.34995,-0.105778,-0.557769,0.193089,
2,0,0,1,0,1998.56,0.191868,0.191535,-0.0459965,2,0.0153859,11,-8.80993e-06,-4.33728,-0.123591,-0.477382,0.191572,
2,0,0,1,0,2000.06,0.190369,0.19002,-0.0472009,2,0.0152825,11,-8.9691e-06,-4.32605,-0.109857,-0.537062,0.190057,
2,0,0,1,0,2001.56,0.188871,0.188557,-0.0492481,2,0.0151767,11,-9.28609e-06,-4.30761,-0.124575,-0.47361,0.188597,
2,0,0,1,0,2003.06,0.187373,0.187086,-0.0502451,2,0.0150685,11,-9.40014e-06,-4.29891,-0.118436,-0.498161,0.187126,
2,0,0,1,0,2004.56,0.185875,0.185582,-0.0514052,2,0.0149578,11,-9.53989e-06,-4.28899,-0.106623,-0.553352,0.185623,
2,0,0,1,0,2006.05,0.184377,0.184067,-0.0536543,2,0.0148448,11,-9.87596e-06,-4.2704,-0.109195,-0.540319,0.18411,
2,0,0,1,0,2007.55,0.182878,0.182624,-0.055307,2,0.0147292,11,-1.01004e-05,-4.25722,-0.090701,-0.650489,0.182669,
2,0,0,1,0,2009.05,0.18138,0.181086,-0.0574636,2,0.0146104,11,-1.04059e-05,-4.24061,-0.0969885,-0.608319,0.181132,
2,0,0,1,0,2010.55,0.179882,0.179616,-0.0591835,2,0.0144884,11,-1.06303e-05,-4.2278,-0.102918,-0.573272,0.179663,
2,0,0,1,0,2012.05,0.178384,0.178084,-0.0610398,2,0.0143632,11,-1.08702e-05,-4.21439,-0.0845982,-0.697415,0.178133,
2,0,0,1,0,2013.54,0.176886,0.176609,-0.0633706,2,0.014235,11,-1.11918e-05,-4.19811,-0.0843918,-0.69912,0.17666,
2,0,0,1,0,2015.04,0.175388,0.175118,-0.0664797,2,0.0141025,11,-1.16418e-05,-4.17731,-0.0803468,-0.734316,0.175171,
2,0,0,1,0,2016.54,0.173889,0.17357,-0.0694902,2,0.0139658,11,-1.20614e-05,-4.15808,-0.0837061,-0.704847,0.173625,
2,0,0,1,0,2018.04,0.172391,0.172102,-0.0721423,2,0.0138246,11,-1.24158e-05,-4.14181,-0.0777738,-0.758611,0.17216,
2,0,0,1,0,2019.54,0.170893,0.170645,-0.0751304,2,0.013679,11,-1.28206e-05,-4.12418,-0.0783344,-0.753182,0.170705,
2,0,0,1,0,2021.04,0.169395,0.169094,-0.0797105,2,0.0135276,11,-1.34785e-05,-4.09848,-0.0685661,-0.860484,0.169157,
2,0,0,1,0,2022.53,0.167897,0.167639,-0.0831448,2,0.0133701,11,-1.39383e-05,-4.08016,-0.0668696,-0.882314,0.167705,
2,0,0,1,0,2024.03,0.166398,0.16614,-0.0872612,2,0.0132063,11,-1.44976e-05,-4.05918,-0.0691809,-0.852837,0.16621,
2,0,0,1,0,2025.53,0.1649,0.164639,-0.092511,2,0.0130361,11,-1.52309e-05,-4.03381,-0.0655552,-0.900004,0.164713,
2,0,0,1,0,2027.03,0.163402,0.163085,-0.0972898,2,0.0128577,11,-1.58665e-05,-4.01193,-0.0576398,-1.0236,0.163163,
2,0,0,1,0,2028.53,0.161904,0.161643,-0.103703,2,0.0126707,11,-1.67628e-05,-3.98421,-0.0599468,-0.984206,0.161726,
2,0,0,1,0,2030.02,0.160406,0.160124,-0.110344,2,0.0124744,11,-1.76687e-05,-3.95725,-0.0597676,-0.987157,0.160212,
2,0,0,1,0,2031.52,0.158907,0.158567,-0.115331,2,0.0122687,11,-1.82877e-05,-3.93805,-0.0566063,-1.04229,0.158659,
2,0,0,1,0,2033.02,0.157409,0.157108,-0.124162,2,0.0120522,11,-1.95069e-05,-3.90601,-0.0562069,-1.04969,0.157207,
2,0,0,1,0,2034.52,0.155911,0.155614,-0.132321,2,0.0118239,11,-2.0591e-05,-3.87837,-0.0613482,-0.961723,0.15572,
2,0,0,1,0,2036.02,0.154413,0.154095,-0.139116,2,0.0115837,11,-2.14372e-05,-3.85662,-0.0669822,-0.88083,0.154207,
2,0,0,1,0,2037.52,0.152915,0.152613,-0.147105,2,0.0113325,11,-2.24501e-05,-3.83237,-0.0670825,-0.879514,0.152731,
2,0,0,1,0,2039.01,0.151417,0.151158,-0.155419,2,0.0110696,11,-2.34929e-05,-3.80849,-0.0651893,-0.905057,0.151282,
2,0,0,1,0,2040.51,0.149918,0.149625,-0.163121,2,0.0107944,11,-2.4407e-05,-3.78749,-0.0775951,-0.760358,0.149755,
2,0,0,1,0,2042.01,0.14842,0.148154,-0.170643,2,0.0105074,11,-2.52815e-05,-3.76791,-0.0831898,-0.709221,0.14829,
2,0,0,1,0,2043.51,0.146922,0.146593,-0.17801,2,0.0102099,11,-2.60951e-05,-3.74955,-0.0944191,-0.624874,0.146735,
2,0,0,1,0,2045.01,0.145424,0.145114,-0.183651,2,0.00990357,11,-2.66502e-05,-3.73601,-0.10606,-0.556291,0.145261,
2,0,0,1,0,2046.5,0.143926,0.143605,-0.18904,2,0.0095876,11,-2.71471e-05,-3.72345,-0.108621,-0.543172,0.143756,
2,0,0,1,0,2048,0.142427,0.142136,-0.193271,2,0.00926349,11,-2.74708e-05,-3.71383,-0.140206,-0.420808,0.142291,
2,0,0,1,0,2049.5,0.140929,0.140601,-0.197031,2,0.0089334,11,-2.77027e-05,-3.70547,-0.219814,-0.268409,0.140758,
2,0,0,1,0,2051,0.139431,0.139127,-0.199701,2,0.0085991,11,-2.77838e-05,-3.69962,-0.280129,-0.210617,0.139286,
2,0,0,1,0,2052.5,0.137933,0.137635,-0.203007,2,0.0082604,11,-2.79407e-05,-3.69249,-0.418342,-0.141033,0.137797,
2,0,0,1,0,2054,0.136435,0.136143,-0.204787,2,0.00791898,11,-2.78803e-05,-3.6887,-1.15583,-0.0510455,0.136306,
2,0,0,1,0,2055.49,0.134936,0.134612,-0.204903,2,0.00757616,11,-2.75825e-05,-3.68845,2.88609,0.0204429,0.134776,
2,0,0,1,0,2056.99,0.133438,0.133112,-0.202436,2,0.00723415,11,-2.69467e-05,-3.69371,0.57067,0.103387,0.133274,
2,0,0,1,0,2058.49,0.13194,0.131655,-0.202073,2,0.00689381,11,-2.66039e-05,-3.69449,0.477738,0.123499,0.131817,
2,0,0,1,0,2059.99,0.130442,0.130173,-0.200251,2,0.00655549,11,-2.60671e-05,-3.69843,0.268646,0.21962,0.130333,
2,0,0,1,0,2061.49,0.128944,0.128642,-0.197119,2,0.00622011,11,-2.53579e-05,-3.70527,0.182681,0.322968,0.1288,
2,0,0,1,0,2062.98,0.127445,0.127135,-0.194398,2,0.00588945,11,-2.47148e-05,-3.71131,0.190899,0.309063,0.127291,
2,0,0,1,0,2064.48,0.125947,0.125624,-0.191679,2,0.00556515,11,-2.40795e-05,-3.71743,0.171727,0.343568,0.125778,
2,0,0,1,0,2065.98,0.124449,0.124143,-0.187753,2,0.00524546,11,-2.33083e-05,-3.72641,0.153277,0.384925,0.124293,
2,0,0,1,0,2067.48,0.122951,0.122644,-0.183065,2,0.00493163,11,-2.24518e-05,-3.73739,0.15003,0.393255,0.12279,
2,0,0,1,0,2068.98,0.121453,0.121168,-0.178453,2,0.00462459,11,-2.16228e-05,-3.74848,0.138585,0.425733,0.12131,
2,0,0,1,0,2070.48,0.119955,0.119641,-0.174243,2,0.00432526,11,-2.08466e-05,-3.75884,0.155858,0.37855,0.11978,
2,0,0,1,0,2071.97,0.118456,0.11816,-0.168556,2,0.0040313,11,-1.99166e-05,-3.77326,0.17367,0.339725,0.118295,
2,0,0,1,0,2073.47,0.116958,0.116622,-0.165411,2,0.00374293,11,-1.92905e-05,-3.78144,0.150098,0.393076,0.116754,
2,0,0,1,0,2074.97,0.11546,0.115137,-0.161924,2,0.00346146,11,-1.86434e-05,-3.79069,0.135172,0.436483,0.115267,
2,0,0,1,0,2076.47,0.113962,0.113646,-0.157142,2,0.0031861,11,-1.78586e-05,-3.80371,0.154505,0.381865,0.113772,
2,0,0,1,0,2077.97,0.112464,0.112165,-0.15447,2,0.00291609,11,-1.73261e-05,-3.81116,0.166244,0.354901,0.112288,
2,0,0,1,0,2079.46,0.110965,0.11067,-0.152169,2,0.00265056,11,-1.68405e-05,-3.81767,0.171275,0.344475,0.110791,
2,0,0,1,0,2080.96,0.109467,0.109182,-0.148842,2,0.00238961,11,-1.62509e-05,-3.82727,0.175405,0.336364,0.109301,
2,0,0,1,0,2082.46,0.107969,0.107662,-0.145645,2,0.00213307,11,-1.56805e-05,-3.8367,0.186064,0.317095,0.107779,
2,0,0,1,0,2083.96,0.106471,0.106216,-0.143662,2,0.00188057,11,-1.52592e-05,-3.84266,0.24814,0.237769,0.106331,
2,0,0,1,0,2085.46,0.104973,0.104723,-0.141421,2,0.00163128,11,-1.481e-05,-3.84949,0.192333,0.30676,0.104836,
2,0,0,1,0,2086.96,0.103474,0.10317,-0.139185,2,0.00138466,11,-1.43597e-05,-3.85641,0.190848,0.309147,0.103282,
2,0,0,1,0,2088.45,0.101976,0.101671,-0.138176,2,0.00114133,11,-1.40485e-05,-3.85957,0.250905,0.235149,0.101781,
2,0,0,1,0,2089.95,0.100478,0.100166,-0.135716,2,0.000901372,11,-1.35941e-05,-3.86737,0.306458,0.192522,0.100275,
2,0,0,1,0,2091.45,0.0989798,0.098688,-0.134217,2,0.000663334,11,-1.32456e-05,-3.87219,0.267722,0.220378,0.0987953,
2,0,0,1,0,2092.95,0.0974816,0.097162,-0.132181,2,0.000427491,11,-1.28429e-05,-3.87883,0.30848,0.19126,0.0972678,
2,0,0,1,0,2094.45,0.0959834,0.0956933,-0.13158,2,0.000194134,11,-1.25913e-05,-3.88081,0.327145,0.180348,0.0957986,
2,0,0,1,0,2095.94,0.0944852,0.0941791,-0.130148,2,-3.66728e-05,11,-1.22573e-05,-3.88556,0.370622,0.159192,0.0942832,
2,0,0,1,0,2097.44,0.0929871,0.0926776,-0.128418,2,-0.000266069,11,-1.19015e-05,-3.89137,0.321376,0.183585,0.0927804,
2,0,0,1,0,2098.94,0.0914889,0.0911549,-0.127104,2,-0.00049347,11,-1.15862e-05,-3.89584,0.370442,0.159269,0.0912566,
2,0,0,1,0,2100.44,0.0899907,0.0896799,-0.125535,2,-0.000718624,11,-1.12579e-05,-3.90124,0.332244,0.17758,0.0897803,
2,0,0,1,0,2101.94,0.0884925,0.0881783,-0.123822,2,-0.00094148,11,-1.09184e-05,-3.9072,0.243105,0.242693,0.0882773,
2,0,0,1,0,2103.44,0.0869943,0.0867223,-0.123568,2,-0.0011623,11,-1.07161e-05,-3.90809,0.406953,0.14498,0.0868212,
2,0,0,1,0,2104.93,0.0854961,0.0851911,-0.122077,2,-0.00138152,11,-1.03999e-05,-3.91337,0.331586,0.177933,0.0852888,
2,0,0,1,0,2106.43,0.083998,0.0837151,-0.120963,2,-0.00159864,11,-1.01264e-05,-3.91735,0.235605,0.250419,0.0838119,
2,0,0,1,0,2107.93,0.0824998,0.0822327,-0.118999,2,-0.0018136,11,-9.78559e-06,-3.92446,0.271515,0.217299,0.0823279,
2,0,0,1,0,2109.43,0.0810016,0.0807206,-0.117935,2,-0.00202604,11,-9.51976e-06,-3.92836,0.282187,0.209081,0.0808149,
2,0,0,1,0,2110.93,0.0795034,0.0792455,-0.11692,2,-0.00223694,11,-9.26541e-06,-3.93211,0.313933,0.187938,0.079339,
2,0,0,1,0,2112.42,0.0780052,0.0777132,-0.115315,2,-0.00244561,11,-8.96151e-06,-3.93811,0.299094,0.197262,0.0778054,
2,0,0,1,0,2113.92,0.076507,0.0761819,-0.114349,2,-0.00265234,11,-8.71135e-06,-3.94177,0.378172,0.156014,0.0762734,
2,0,0,1,0,2115.42,0.0750088,0.0747143,-0.112737,2,-0.00285659,11,-8.42306e-06,-3.94793,0.268771,0.219518,0.0748045,
2,0,0,1,0,2116.92,0.0735106,0.073198,-0.111835,2,-0.00305928,11,-8.18613e-06,-3.95142,0.285319,0.206786,0.0732875,
2,0,0,1,0,2118.42,0.0720124,0.0717208,-0.110033,2,-0.00326014,11,-7.89164e-06,-3.95848,0.347264,0.1699,0.0718088,
2,0,0,1,0,2119.92,0.0705142,0.0702097,-0.108446,2,-0.00345887,11,-7.61394e-06,-3.96479,0.260799,0.226228,0.0702964,
2,0,0,1,0,2121.41,0.069016,0.0687145,-0.107273,2,-0.00365543,11,-7.37119e-06,-3.96951,0.337838,0.17464,0.0688003,
2,0,0,1,0,2122.91,0.0675178,0.0672448,-0.106466,2,-0.00385089,11,-7.15927e-06,-3.97279,0.337533,0.174798,0.06733,
2,0,0,1,0,2124.41,0.0660196,0.065722,-0.105484,2,-0.00404455,11,-6.93261e-06,-3.97681,0.2998,0.196798,0.0658064,
2,0,0,1,0,2125.91,0.0645214,0.0642099,-0.104173,2,-0.00423658,11,-6.68896e-06,-3.98224,0.414281,0.142416,0.0642932,
2,0,0,1,0,2127.41,0.0630233,0.0627095,-0.102672,2,-0.00442667,11,-6.43849e-06,-3.98855,0.286778,0.205734,0.0627916,
2,0,0,1,0,2128.9,0.0615251,0.0612356,-0.102341,2,-0.00461529,11,-6.26688e-06,-3.98995,0.417079,0.14146,0.0613175,
2,0,0,1,0,2130.4,0.0600269,0.059717,-0.101511,2,-0.00480273,11,-6.06192e-06,-3.99349,0.364,0.162088,0.0597982,
2,0,0,1,0,2131.9,0.0585287,0.0582059,-0.100615,2,-0.00498888,11,-5.85639e-06,-3.99734,0.255922,0.230539,0.0582864,
2,0,0,1,0,2133.4,0.0570305,0.0566641,-0.0993444,2,-0.00517388,11,-5.62926e-06,-4.00286,0.606847,0.0972238,0.0567436,
2,0,0,1,0,2134.9,0.0555323,0.0552389,-0.099027,2,-0.00535731,11,-5.47014e-06,-4.00425,0.490813,0.120209,0.0553181,
2,0,0,1,0,2136.4,0.0540342,0.0537385,-0.0988659,2,-0.00554006,11,-5.31291e-06,-4.00495,0.55126,0.107028,0.0538176,
2,0,0,1,0,2137.89,0.052536,0.0521659,-0.0981324,2,-0.00572235,11,-5.11916e-06,-4.00819,0.952917,0.0619151,0.0522444,
2,0,0,1,0,2139.39,0.0510378,0.0507291,-0.0974824,2,-0.00590345,11,-4.94519e-06,-4.01107,0.5503,0.107214,0.0508071,
2,0,0,1,0,2140.89,0.0495396,0.049253,-0.0972594,2,-0.00608365,11,-4.79031e-06,-4.01207,0.518108,0.113876,0.0493308,
2,0,0,1,0,2142.39,0.0480414,0.047726,-0.0968788,2,-0.00626356,11,-4.62364e-06,-4.01377,10.3597,0.00569515,0.0478035,
2,0,0,1,0,2143.89,0.0465432,0.0462053,-0.0967805,2,-0.00644289,11,-4.47177e-06,-4.01421,1.50363,0.0392384,0.0462828,
2,0,0,1,0,2145.39,0.045045,0.0447526,-0.0961407,2,-0.0066219,11,-4.30254e-06,-4.01709,2.09941,0.0281032,0.0448295,
2,0,0,1,0,2146.88,0.0435468,0.0432691,-0.0961234,2,-0.00680032,11,-4.15917e-06,-4.01717,30.1265,0.00195841,0.043346,
2,0,0,1,0,2148.38,0.0420486,0.0417505,-0.0955752,2,-0.00697869,11,-3.99031e-06,-4.01966,5.45823,0.0108094,0.041827,
2,0,0,1,0,2149.88,0.0405504,0.0402161,-0.0962806,2,-0.00715717,11,-3.87203e-06,-4.01646,2.51428,0.0234659,0.0402931,
2,0,0,1,0,2151.38,0.0390522,0.0387496,-0.0961425,2,-0.00733562,11,-3.72548e-06,-4.01708,2.3301,0.0253208,0.0388265,
2,0,0,1,0,2152.88,0.037554,0.0372681,-0.0955155,2,-0.0075138,11,-3.55968e-06,-4.01993,11.6688,0.00505623,0.0373446,
2,0,0,1,0,2154.37,0.0360558,0.035756,-0.0963395,2,-0.00769202,11,-3.44472e-06,-4.0162,-3.55715,-0.0165863,0.0358331,
2,0,0,1,0,2155.87,0.0345576,0.0342778,-0.0957273,2,-0.00787052,11,-3.28132e-06,-4.01896,-0.759604,-0.0776721,0.0343544,
2,0,0,1,0,2157.37,0.0330594,0.0328134,-0.0961866,2,-0.00804926,11,-3.15621e-06,-4.01689,-5.04611,-0.0116922,0.0328903,
2,0,0,1,0,2158.87,0.0315613,0.0312419,-0.0963145,2,-0.00822819,11,-3.00905e-06,-4.01631,-1.67874,-0.0351453,0.031319,
2,0,0,1,0,2160.37,0.0300631,0.0297924,-0.096591,2,-0.00840702,11,-2.87768e-06,-4.01506,-1.17378,-0.050265,0.0298696,
2,0,0,1,0,2161.87,0.0285649,0.0282378,-0.0967424,2,-0.00858673,11,-2.73179e-06,-4.01438,-1.11528,-0.0529015,0.0283152,
2,0,0,1,0,2163.36,0.0270667,0.0267553,-0.0978407,2,-0.00876707,11,-2.61776e-06,-4.00948,-1.25843,-0.0468837,0.0268336,
2,0,0,1,0,2164.86,0.0255685,0.0252665,-0.0974839,2,-0.00894783,11,-2.46308e-06,-4.01107,-0.997944,-0.0591216,0.0253445,
2,0,0,1,0,2166.36,0.0240703,0.0237872,-0.0984544,2,-0.00912871,11,-2.34196e-06,-4.00676,-0.546675,-0.107925,0.023866,
2,0,0,1,0,2167.86,0.0225722,0.0222508,-0.0984642,2,-0.00931061,11,-2.19091e-06,-4.00672,-0.608709,-0.0969264,0.0223296,
2,0,0,1,0,2169.36,0.021074,0.0207736,-0.0986617,2,-0.00949314,11,-2.04956e-06,-4.00585,-0.731814,-0.0806216,0.0208526,
2,0,0,1,0,2170.85,0.0195758,0.0192764,-0.0993296,2,-0.00967647,11,-1.91472e-06,-4.00292,-0.776062,-0.0760249,0.0193559,
2,0,0,1,0,2172.35,0.0180776,0.0178055,-0.0997839,2,-0.0098604,11,-1.77671e-06,-4.00094,-0.779257,-0.0757132,0.0178854,
2,0,0,1,0,2173.85,0.0165794,0.0162775,-0.100323,2,-0.0100452,11,-1.63301e-06,-3.9986,-0.641708,-0.0919422,0.0163578,
2,0,0,1,0,2175.35,0.0150812,0.0147865,-0.101284,2,-0.010231,11,-1.49764e-06,-3.99446,-0.616075,-0.0957676,0.0148676,
2,0,0,1,0,2176.85,0.013583,0.0133147,-0.101413,2,-0.010418,11,-1.35028e-06,-3.99391,-0.597678,-0.0987153,0.0133958,
2,0,0,1,0,2178.35,0.0120848,0.0117993,-0.102024,2,-0.0106057,11,-1.20382e-06,-3.9913,-0.475682,-0.124032,0.0118809,
2,0,0,1,0,2179.84,0.0105866,0.0102448,-0.103372,2,-0.0107944,11,-1.05902e-06,-3.9856,-0.459317,-0.128451,0.0103275,
2,0,0,1,0,2181.34,0.00908843,0.00880367,-0.104168,2,-0.0109845,11,-9.17062e-07,-3.98227,-0.598003,-0.0986618,0.008887,
2,0,0,1,0,2182.84,0.00759024,0.00726715,-0.10485,2,-0.0111758,11,-7.61962e-07,-3.97943,-0.382439,-0.154273,0.00735103,
2,0,0,1,0,2184.34,0.00609203,0.0057762,-0.105448,2,-0.0113683,11,-6.09088e-07,-3.97696,-0.293526,-0.201004,0.00586056,
2,0,0,1,0,2185.84,0.00459384,0.00432131,-0.106498,2,-0.0115618,11,-4.6021e-07,-3.97266,-0.443651,-0.132987,0.00440651,
2,0,0,1,0,2187.33,0.00309563,0.0027731,-0.107855,2,-0.0117572,11,-2.99094e-07,-3.96716,-0.366571,-0.160951,0.00285938,
2,0,0,1,0,2188.83,0.00159744,0.00125036,-0.108822,2,-0.0119564,11,-1.36067e-07,-3.96328, , ,0.00133742,
2,0,0,1,0,2190.23,0.000199235,-0.000170761,-0.109981,2,-0.0121418,11,1.87804e-08,-3.95868, , ,-8.27759e-05,