File: Figure_codes/Fig_S3_S4/20221101_1-115_002_TrumpetPlot_ParaChange_06_CV_C01_1.csv
mode,ox/red,error,control changes,counter inc.,time/s,control/V,Ewe/V,<I>/mA,cycle number,(Q-Qo)/C,I Range,P/W,log(|I|),Tafel slope mV/dec,alpha_eff,E-IR/V,
2,0,0,1,0,2310.62,2.44065e-05,-0.000325324,-0.4174,2,0.0000000E+000,11,1.3579e-07,-3.37945, , ,8.59679e-06,
2,1,0,1,0,2310.74,0.00129787,0.000938681,0.328552,2,2.47846e-05,11,3.08405e-07,-3.4834, , ,0.00067584,
2,1,0,1,0,2310.89,0.00279606,0.00249642,0.373076,2,8.0884e-05,11,9.31353e-07,-3.4282,0.0299995,1.9667,0.00219796,
2,1,0,1,0,2311.04,0.00429425,0.00401068,0.37905,2,0.00013909,11,1.52025e-06,-3.4213,0.20055,0.294191,0.00370744,
2,1,0,1,0,2311.19,0.00579244,0.00547298,0.393445,2,0.000199436,11,2.15331e-06,-3.40512,0.0942735,0.625839,0.00515822,
2,1,0,1,0,2311.34,0.00729063,0.00708692,0.410222,2,0.000261923,11,2.90721e-06,-3.38698,0.116708,0.505537,0.00675874,
2,1,0,1,0,2311.49,0.00878882,0.00850362,0.422277,2,0.000326404,11,3.59089e-06,-3.3744,0.141388,0.417291,0.0081658,
2,1,0,1,0,2311.64,0.010287,0.01002,0.430109,2,0.000392367,11,4.30969e-06,-3.36642,0.240666,0.245153,0.00967591,
2,1,0,1,0,2311.79,0.0117852,0.0115534,0.436537,2,0.000459505,11,5.04346e-06,-3.35998,0.191318,0.308387,0.0112041,
2,1,0,1,0,2311.94,0.0132838,0.0130052,0.445612,2,0.000527614,11,5.79529e-06,-3.35104,0.182424,0.323422,0.0126488,
2,1,0,1,0,2312.09,0.0147814,0.0144806,0.454223,2,0.000596999,11,6.5774e-06,-3.34273,0.239987,0.245847,0.0141172,
2,1,0,1,0,2312.24,0.0162789,0.015968,0.4549,2,0.000667485,11,7.26387e-06,-3.34208,0.368794,0.159981,0.0156041,
2,1,0,1,0,2312.39,0.017778,0.0174577,0.462176,2,0.000738576,11,8.06852e-06,-3.33519,0.330825,0.178342,0.017088,
2,1,0,1,0,2312.54,0.0192761,0.0189963,0.467828,2,0.000809938,11,8.88703e-06,-3.32991,0.361284,0.163306,0.0186221,
2,1,0,1,0,2312.69,0.0207743,0.0205095,0.472359,2,0.000882449,11,9.68786e-06,-3.32573,0.357259,0.165146,0.0201317,
2,1,0,1,0,2312.84,0.0222725,0.0219973,0.475718,2,0.000955545,11,1.04645e-05,-3.32265,0.425264,0.138737,0.0216167,
2,1,0,1,0,2312.99,0.0237707,0.0234956,0.478243,2,0.00102926,11,1.12366e-05,-3.32035,0.410513,0.143723,0.0231131,
2,1,0,1,0,2313.14,0.0252689,0.024959,0.480108,2,0.00110319,11,1.1983e-05,-3.31866,0.695984,0.0847721,0.0245749,
2,1,0,1,0,2313.29,0.0267671,0.0264977,0.488,2,0.0011781,11,1.29309e-05,-3.31158,0.302851,0.194815,0.0261073,
2,1,0,1,0,2313.44,0.0282662,0.0279557,0.492032,2,0.00125357,11,1.37551e-05,-3.30801,0.487364,0.121059,0.0275621,
2,1,0,1,0,2313.59,0.0297635,0.0295124,0.496447,2,0.0013296,11,1.46513e-05,-3.30413,0.569641,0.103574,0.0291153,
2,1,0,1,0,2313.74,0.031261,0.0309648,0.494578,2,0.001406,11,1.53145e-05,-3.30577,0.388846,0.151731,0.0305691,
2,1,0,1,0,2313.89,0.0327598,0.0324328,0.502577,2,0.0014829,11,1.63e-05,-3.2988,0.353702,0.166807,0.0320307,
2,1,0,1,0,2314.04,0.034258,0.0340212,0.505205,2,0.0015605,11,1.71877e-05,-3.29653,0.540233,0.109212,0.0336171,
2,1,0,1,0,2314.19,0.0357562,0.0354941,0.509583,2,0.00163883,11,1.80872e-05,-3.29279,0.658043,0.0896598,0.0350865,
2,1,0,1,0,2314.34,0.0372544,0.0369458,0.512494,2,0.00171766,11,1.89345e-05,-3.29031,0.394856,0.149421,0.0365358,
2,1,0,1,0,2314.49,0.0387526,0.0384378,0.517682,2,0.0017968,11,1.98986e-05,-3.28594,0.3314,0.178033,0.0380237,
2,1,0,1,0,2314.64,0.0402508,0.0400051,0.523326,2,0.00187698,11,2.09357e-05,-3.28123,0.433868,0.135986,0.0395865,
2,1,0,1,0,2314.79,0.041749,0.0415003,0.529453,2,0.00195796,11,2.19724e-05,-3.27617,0.575014,0.102606,0.0410767,
2,1,0,1,0,2314.94,0.0432472,0.0429806,0.533663,2,0.00203939,11,2.29372e-05,-3.27273,0.368389,0.160157,0.0425537,
2,1,0,1,0,2315.09,0.0447458,0.0444591,0.539701,2,0.00212139,11,2.39946e-05,-3.26785,0.344557,0.171235,0.0440273,
2,1,0,1,0,2315.24,0.0462433,0.0459822,0.544303,2,0.00220454,11,2.50282e-05,-3.26416,0.262203,0.225017,0.0455468,
2,1,0,1,0,2315.39,0.0477409,0.0474698,0.548952,2,0.00228843,11,2.60586e-05,-3.26047,0.292455,0.20174,0.0470306,
2,1,0,1,0,2315.54,0.0492399,0.0489539,0.554002,2,0.00237337,11,2.71205e-05,-3.25649,0.300486,0.196349,0.0485107,
2,1,0,1,0,2315.69,0.0507381,0.0504639,0.558832,2,0.0024589,11,2.82008e-05,-3.25272,0.307005,0.192179,0.0500168,
2,1,0,1,0,2315.84,0.0522363,0.0519792,0.567128,2,0.00254562,11,2.94789e-05,-3.24632,0.216936,0.27197,0.0515255,
2,1,0,1,0,2315.99,0.0537345,0.0534246,0.579207,2,0.00263362,11,3.09439e-05,-3.23717,0.29684,0.19876,0.0529612,
2,1,0,1,0,2316.14,0.0552327,0.0549897,0.584289,2,0.00272284,11,3.21299e-05,-3.23337,0.321961,0.183252,0.0545223,
2,1,0,1,0,2316.29,0.0567309,0.0564414,0.587701,2,0.00281306,11,3.31707e-05,-3.23084,0.252232,0.233911,0.0559713,
2,1,0,1,0,2316.44,0.0582291,0.0578931,0.602011,2,0.00290451,11,3.48523e-05,-3.2204,0.240727,0.245091,0.0574115,
2,1,0,1,0,2316.59,0.0597282,0.0594695,0.613476,2,0.00299753,11,3.64831e-05,-3.2122,0.217666,0.271058,0.0589787,
2,1,0,1,0,2316.74,0.0612255,0.0609546,0.621425,2,0.00309211,11,3.78787e-05,-3.20661,0.235875,0.250132,0.0604575,
2,1,0,1,0,2316.89,0.062723,0.062419,0.630076,2,0.00318805,11,3.93287e-05,-3.20061,0.202513,0.29134,0.0619149,
2,1,0,1,0,2317.04,0.0642218,0.0639512,0.641607,2,0.00328546,11,4.10316e-05,-3.19273,0.179717,0.328294,0.0634379,
2,1,0,1,0,2317.19,0.06572,0.0654676,0.653678,2,0.00338467,11,4.27947e-05,-3.18464,0.184549,0.319699,0.0649447,
2,1,0,1,0,2317.34,0.0672182,0.0669681,0.66859,2,0.00348605,11,4.47742e-05,-3.17484,0.177956,0.331542,0.0664332,
2,1,0,1,0,2317.49,0.0687164,0.068424,0.680427,2,0.0035889,11,4.65575e-05,-3.16722,0.208218,0.283357,0.0678797,
2,1,0,1,0,2317.63,0.0702146,0.0699711,0.689753,2,0.00369335,11,4.82628e-05,-3.16131,0.188315,0.313305,0.0694193,
2,1,0,1,0,2317.78,0.0717128,0.0714218,0.703067,2,0.0037999,11,5.02143e-05,-3.153,0.172321,0.342385,0.0708593,
2,1,0,1,0,2317.93,0.073211,0.0729286,0.716759,2,0.00390851,11,5.22722e-05,-3.14463,0.190194,0.310209,0.0723552,
2,1,0,1,0,2318.08,0.0747092,0.0744408,0.72937,2,0.0040189,11,5.42948e-05,-3.13705,0.196778,0.299831,0.0738573,
2,1,0,1,0,2318.23,0.0762078,0.0759405,0.740373,2,0.0041313,11,5.62243e-05,-3.13055,0.177775,0.33188,0.0753482,
2,1,0,1,0,2318.38,0.0777053,0.0774025,0.757292,2,0.00424569,11,5.86163e-05,-3.12074,0.17442,0.338264,0.0767967,
2,1,0,1,0,2318.53,0.0792029,0.0789308,0.771884,2,0.00436238,11,6.09254e-05,-3.11245,0.207497,0.284342,0.0783133,
2,1,0,1,0,2318.68,0.0807019,0.0804522,0.78426,2,0.00448114,11,6.30954e-05,-3.10554,0.212202,0.278037,0.0798248,
2,1,0,1,0,2318.83,0.0822001,0.0819018,0.79214,2,0.00460156,11,6.48776e-05,-3.1012,0.224133,0.263236,0.0812681,
2,1,0,1,0,2318.98,0.0836983,0.0834351,0.810462,2,0.00472386,11,6.7621e-05,-3.09127,0.214616,0.274909,0.0827867,
2,1,0,1,0,2319.13,0.0851965,0.0849579,0.823081,2,0.00484833,11,6.99272e-05,-3.08456,0.218242,0.270342,0.0842994,
2,1,0,1,0,2319.28,0.0866947,0.0863862,0.835566,2,0.00497473,11,7.21814e-05,-3.07802,0.269996,0.218522,0.0857178,
2,1,0,1,0,2319.43,0.0881929,0.0879196,0.849376,2,0.00510316,11,7.46767e-05,-3.0709,0.241031,0.244782,0.0872401,
2,1,0,1,0,2319.58,0.0896911,0.0893861,0.862881,2,0.0052329,11,7.71296e-05,-3.06405,0.22601,0.26105,0.0886958,
2,1,0,1,0,2319.73,0.0911902,0.0908881,0.876103,2,0.00536509,11,7.96273e-05,-3.05744,0.220211,0.267925,0.0901872,
2,1,0,1,0,2319.88,0.0926875,0.0924069,0.89122,2,0.00549947,11,8.23549e-05,-3.05001,0.210905,0.279747,0.0916939,
2,1,0,1,0,2320.03,0.094185,0.0938953,0.900472,2,0.00563547,11,8.45501e-05,-3.04553,0.253511,0.232731,0.093175,
2,1,0,1,0,2320.18,0.0956838,0.0954283,0.907535,2,0.00577312,11,8.66045e-05,-3.04214,0.212297,0.277912,0.0947023,
2,1,0,1,0,2320.33,0.097182,0.096933,0.92569,2,0.00591297,11,8.97299e-05,-3.03353,0.196362,0.300465,0.0961925,
2,1,0,1,0,2320.48,0.0986802,0.0984378,0.937997,2,0.00605503,11,9.23343e-05,-3.0278,0.223802,0.263626,0.0976874,
2,1,0,1,0,2320.63,0.100178,0.0999202,0.95524,2,0.00619918,11,9.54477e-05,-3.01989,0.244148,0.241657,0.099156,
2,1,0,1,0,2320.78,0.101677,0.101363,0.965502,2,0.00634545,11,9.78666e-05,-3.01525,0.213725,0.276055,0.100591,
2,1,0,1,0,2320.93,0.103175,0.102915,0.9899,2,0.00649401,11,0.000101875,-3.00441,0.192898,0.30586,0.102123,
2,1,0,1,0,2321.08,0.104673,0.104394,1.00904,2,0.00664546,11,0.000105338,-2.99609,0.179476,0.328735,0.103587,
2,1,0,1,0,2321.23,0.106171,0.105897,1.02673,2,0.00679993,11,0.000108727,-2.98854,0.184069,0.320532,0.105075,
2,1,0,1,0,2321.38,0.10767,0.1074,1.04416,2,0.00695734,11,0.000112142,-2.98123,0.154753,0.381254,0.106564,
2,1,0,1,0,2321.53,0.109167,0.108917,1.06797,2,0.00711757,11,0.00011632,-2.97144,0.1465,0.402731,0.108062,
2,1,0,1,0,2321.68,0.110665,0.110419,1.09294,2,0.00728173,11,0.000120682,-2.9614,0.131388,0.44905,0.109545,
2,1,0,1,0,2321.83,0.112164,0.11187,1.12505,2,0.00745027,11,0.00012586,-2.94883,0.134711,0.437974,0.11097,
2,1,0,1,0,2321.98,0.113662,0.113398,1.15407,2,0.00762298,11,0.000130869,-2.93777,0.127332,0.463357,0.112475,
2,1,0,1,0,2322.13,0.11516,0.114921,1.18787,2,0.00779999,11,0.000136511,-2.92523,0.113631,0.519224,0.11397,
2,1,0,1,0,2322.28,0.116658,0.116337,1.22364,2,0.00798262,11,0.000142355,-2.91235,0.103032,0.572637,0.115358,
2,1,0,1,0,2322.43,0.118157,0.117843,1.26452,2,0.00817139,11,0.000149015,-2.89807,0.105511,0.559185,0.116832,
2,1,0,1,0,2322.58,0.119655,0.119356,1.30572,2,0.00836581,11,0.000155846,-2.88415,0.111279,0.530197,0.118312,
2,1,0,1,0,2322.73,0.121153,0.120895,1.34323,2,0.00856617,11,0.00016239,-2.87185,0.102304,0.57671,0.11982,
2,1,0,1,0,2322.88,0.122652,0.122317,1.39663,2,0.00877359,11,0.000170832,-2.85492,0.0920404,0.641023,0.1212,
2,1,0,1,0,2323.03,0.124149,0.123844,1.44274,2,0.00898827,11,0.000178675,-2.84081,0.0961897,0.613371,0.12269,
2,1,0,1,0,2323.18,0.125647,0.125371,1.49002,2,0.00921021,11,0.000186806,-2.82681,0.103719,0.568844,0.124179,
2,1,0,1,0,2323.33,0.127146,0.12686,1.53045,2,0.00943944,11,0.000194153,-2.81518,0.106978,0.551516,0.125635,
2,1,0,1,0,2323.48,0.128644,0.128323,1.5871,2,0.00967528,11,0.000203661,-2.7994,0.108686,0.542847,0.127054,
2,1,0,1,0,2323.63,0.130142,0.129857,1.64013,2,0.00991904,11,0.000212982,-2.78512,0.115069,0.512735,0.128544,
2,1,0,1,0,2323.78,0.13164,0.131387,1.68053,2,0.01017,11,0.0002208,-2.77455,0.138609,0.425657,0.130042,
2,1,0,1,0,2323.93,0.133139,0.132812,1.72246,2,0.0104273,11,0.000228763,-2.76385,0.149422,0.394854,0.131434,
2,1,0,1,0,2324.08,0.134637,0.134314,1.75765,2,0.0106898,11,0.000236078,-2.75507,0.169926,0.347209,0.132908,
2,1,0,1,0,2324.23,0.136135,0.135879,1.799,2,0.0109584,11,0.000244445,-2.74497,0.185179,0.318611,0.134439,
2,1,0,1,0,2324.38,0.137633,0.13733,1.8268,2,0.0112318,11,0.000250875,-2.73831,0.243596,0.242205,0.135869,
2,1,0,1,0,2324.53,0.139132,0.138861,1.85245,2,0.0115094,11,0.000257233,-2.73225,0.321848,0.183316,0.137379,
2,1,0,1,0,2324.68,0.140629,0.140358,1.86277,2,0.0117891,11,0.000261455,-2.72984,0.441336,0.133685,0.138868,
2,1,0,1,0,2324.83,0.142127,0.141846,1.8771,2,0.0120712,11,0.00026626,-2.72651,0.515296,0.114497,0.140344,
2,1,0,1,0,2324.98,0.143626,0.143369,1.88141,2,0.0123554,11,0.000269736,-2.72552,6.51366,0.00905789,0.141864,
2,1,0,1,0,2325.13,0.145124,0.144842,1.87594,2,0.0126393,11,0.000271715,-2.72678,-0.597321,-0.0987743,0.143341,
2,1,0,1,0,2325.28,0.146622,0.146349,1.85693,2,0.0129213,11,0.00027176,-2.7312,-0.36029,-0.163757,0.144863,
2,1,0,1,0,2325.43,0.14812,0.147866,1.84331,2,0.013201,11,0.000272564,-2.7344,-0.288277,-0.204664,0.146392,
2,1,0,1,0,2325.58,0.149619,0.149353,1.82026,2,0.0134772,11,0.000271862,-2.73987,-0.188836,-0.312441,0.147897,
2,1,0,1,0,2325.73,0.151117,0.150829,1.78188,2,0.0137488,11,0.00026876,-2.74912,-0.142092,-0.415225,0.149404,
2,1,0,1,0,2325.87,0.152615,0.152301,1.72765,2,0.0140138,11,0.000263122,-2.76255,-0.119254,-0.494742,0.150919,
2,1,0,1,0,2326.02,0.154114,0.153827,1.68096,2,0.0142711,11,0.000258577,-2.77444,-0.105637,-0.558516,0.152482,
2,1,0,1,0,2326.17,0.155612,0.155331,1.61893,2,0.01452,11,0.00025147,-2.79077,-0.0931516,-0.633376,0.154036,
2,1,0,1,0,2326.32,0.157109,0.156816,1.55397,2,0.0147599,11,0.000243688,-2.80856,-0.0787491,-0.749215,0.155573,
2,1,0,1,0,2326.47,0.158608,0.158317,1.47985,2,0.0149893,11,0.000234286,-2.82978,-0.0756542,-0.779864,0.157133,
2,1,0,1,0,2326.62,0.160106,0.159851,1.40953,2,0.0152072,11,0.000225315,-2.85093,-0.0715644,-0.824432,0.158724,
2,1,0,1,0,2326.77,0.161604,0.161345,1.33872,2,0.0154153,11,0.000215996,-2.87331,-0.0684255,-0.862252,0.160274,
2,1,0,1,0,2326.92,0.163102,0.162826,1.27148,2,0.0156127,11,0.000207029,-2.89569,-0.0666368,-0.885396,0.161808,
2,1,0,1,0,2327.07,0.164601,0.164353,1.20377,2,0.0158,11,0.000197843,-2.91946,-0.0668454,-0.882633,0.16339,
2,1,0,1,0,2327.22,0.166099,0.165814,1.14048,2,0.0159774,11,0.000189108,-2.94291,-0.0666306,-0.885479,0.164901,
2,1,0,1,0,2327.37,0.167597,0.167298,1.08574,2,0.0161461,11,0.000181643,-2.96427,-0.0730337,-0.807847,0.16643,
2,1,0,1,0,2327.52,0.169095,0.168802,1.03917,2,0.0163072,11,0.000175413,-2.98332,-0.0752374,-0.784185,0.167971,
2,1,0,1,0,2327.67,0.170594,0.170339,0.988327,2,0.0164611,11,0.000168351,-3.0051,-0.0758856,-0.777486,0.169548,
2,1,0,1,0,2327.82,0.172091,0.1718,0.9435,2,0.0166077,11,0.000162093,-3.02526,-0.0829499,-0.711273,0.171045,
2,1,0,1,0,2327.97,0.173589,0.173272,0.907125,2,0.0167485,11,0.000157179,-3.04233,-0.0953163,-0.618992,0.172546,
2,1,0,1,0,2328.12,0.175088,0.174775,0.878075,2,0.0168843,11,0.000153466,-3.05647,-0.0974266,-0.605584,0.174073,
2,1,0,1,0,2328.27,0.176586,0.176309,0.8464,2,0.0170155,11,0.000149228,-3.07242,-0.100536,-0.586852,0.175632,
2,1,0,1,0,2328.42,0.178084,0.177821,0.816302,2,0.0171422,11,0.000145156,-3.08815,-0.111543,-0.528945,0.177168,
2,1,0,1,0,2328.57,0.179582,0.179324,0.796634,2,0.0172648,11,0.000142856,-3.09874,-0.125377,-0.47058,0.178687,
2,1,0,1,0,2328.72,0.181081,0.180791,0.772411,2,0.0173844,11,0.000139645,-3.11215,-0.128763,-0.458207,0.180173,
2,1,0,1,0,2328.87,0.182579,0.182296,0.751873,2,0.0175009,11,0.000137063,-3.12386,-0.124517,-0.473829,0.181694,
2,1,0,1,0,2329.02,0.184077,0.183767,0.736105,2,0.0176144,11,0.000135271,-3.13306,-0.147644,-0.399609,0.183178,
2,1,0,1,0,2329.17,0.185576,0.185313,0.719441,2,0.0177251,11,0.000133322,-3.143,-0.151063,-0.390564,0.184738,
2,1,0,1,0,2329.32,0.187074,0.18678,0.70688,2,0.0178337,11,0.000132031,-3.15065,-0.179607,-0.328495,0.186215,
2,1,0,1,0,2329.47,0.188571,0.188288,0.688764,2,0.0179403,11,0.000129686,-3.16193,-0.204009,-0.289203,0.187737,
2,1,0,1,0,2329.62,0.19007,0.189793,0.67929,2,0.0180448,11,0.000128924,-3.16795,-0.193909,-0.304266,0.189249,
2,1,0,1,0,2329.77,0.191568,0.191292,0.664198,2,0.0181473,11,0.000127056,-3.1777,-0.21456,-0.274981,0.190761,
2,1,0,1,0,2329.92,0.193066,0.192788,0.653968,2,0.0182483,11,0.000126077,-3.18444,-0.284076,-0.207691,0.192265,
2,1,0,1,0,2330.07,0.194564,0.194265,0.644046,2,0.018348,11,0.000125115,-3.19108,-0.23942,-0.246429,0.193749,
2,1,0,1,0,2330.22,0.196063,0.195736,0.637298,2,0.0184461,11,0.000124742,-3.19566,-0.236854,-0.249099,0.195227,
2,1,0,1,0,2330.37,0.197561,0.197278,0.623074,2,0.0185426,11,0.000122919,-3.20546,-0.260724,-0.226293,0.19678,
2,1,0,1,0,2330.52,0.199059,0.198739,0.621237,2,0.018638,11,0.000123464,-3.20674,-0.28786,-0.204961,0.198242,
2,1,0,1,0,2330.67,0.200557,0.200269,0.611717,2,0.0187324,11,0.000122508,-3.21345,-0.31538,-0.187076,0.199779,
2,1,0,1,0,2330.82,0.202056,0.201786,0.607778,2,0.0188258,11,0.000122641,-3.21626,-0.275422,-0.214216,0.201299,
2,1,0,1,0,2330.97,0.203553,0.203255,0.595649,2,0.018918,11,0.000121068,-3.22501,-0.318196,-0.18542,0.202778,
2,1,0,1,0,2331.12,0.205051,0.204758,0.591179,2,0.0190092,11,0.000121049,-3.22828,-0.857955,-0.0687682,0.204285,
2,1,0,1,0,2331.27,0.20655,0.206297,0.586049,2,0.0190997,11,0.0001209,-3.23207,-0.408347,-0.144485,0.205828,
2,1,0,1,0,2331.42,0.208048,0.207773,0.581495,2,0.0191899,11,0.000120819,-3.23545,-0.301155,-0.195912,0.207308,
2,1,0,1,0,2331.57,0.209546,0.209297,0.576206,2,0.0192788,11,0.000120598,-3.23942,-0.42768,-0.137954,0.208836,
2,1,0,1,0,2331.72,0.211044,0.210761,0.573523,2,0.0193668,11,0.000120876,-3.24145,-0.390864,-0.150948,0.210302,
2,1,0,1,0,2331.87,0.212543,0.212267,0.568654,2,0.0194544,11,0.000120706,-3.24515,-0.428012,-0.137846,0.211812,
2,1,0,1,0,2332.02,0.214041,0.213747,0.564082,2,0.0195413,11,0.000120571,-3.24866,-0.404538,-0.145845,0.213296,
2,1,0,1,0,2332.17,0.215539,0.215254,0.559127,2,0.0196276,11,0.000120354,-3.25249,-0.410103,-0.143866,0.214807,
2,1,0,1,0,2332.32,0.217038,0.216726,0.556365,2,0.0197132,11,0.000120579,-3.25464,-0.520902,-0.113265,0.216281,
2,1,0,1,0,2332.47,0.218535,0.218266,0.552872,2,0.0197983,11,0.000120673,-3.25738,-0.922344,-0.0639674,0.217824,
2,1,0,1,0,2332.62,0.220033,0.219799,0.550759,2,0.0198832,11,0.000121056,-3.25904,-0.81575,-0.0723261,0.219358,
2,1,0,1,0,2332.77,0.221532,0.221231,0.546943,2,0.0199675,11,0.000121001,-3.26206,-0.701821,-0.084067,0.220793,
2,1,0,1,0,2332.92,0.22303,0.222729,0.53875,2,0.020051,11,0.000119995,-3.26861,-0.810966,-0.0727528,0.222298,
2,1,0,1,0,2333.07,0.224528,0.224286,0.53975,2,0.0201343,11,0.000121058,-3.26781,-0.791767,-0.0745169,0.223854,
2,1,0,1,0,2333.22,0.226026,0.225738,0.538572,2,0.0202172,11,0.000121576,-3.26876,-0.545235,-0.10821,0.225308,
2,1,0,1,0,2333.37,0.227525,0.227183,0.535115,2,0.0202997,11,0.000121569,-3.27155,-0.46174,-0.127778,0.226755,
2,1,0,1,0,2333.52,0.229023,0.228731,0.531851,2,0.0203818,11,0.000121651,-3.27421,-0.572418,-0.103072,0.228305,
2,1,0,1,0,2333.67,0.230521,0.230226,0.529289,2,0.0204633,11,0.000121856,-3.27631,-0.718798,-0.0820815,0.229803,
2,1,0,1,0,2333.82,0.232019,0.231746,0.529532,2,0.0205446,11,0.000122717,-3.27611,-0.670262,-0.0880253,0.231322,
2,1,0,1,0,2333.97,0.233518,0.233265,0.528342,2,0.0206259,11,0.000123244,-3.27708,-0.690965,-0.0853879,0.232843,
2,1,0,1,0,2334.11,0.235015,0.234688,0.524935,2,0.0207065,11,0.000123196,-3.27989,-1.02233,-0.0577115,0.234268,
2,1,0,1,0,2334.26,0.236513,0.236242,0.52189,2,0.0207868,11,0.000123292,-3.28242,-1.23326,-0.0478405,0.235824,
2,1,0,1,0,2334.41,0.238012,0.237728,0.520241,2,0.020867,11,0.000123676,-3.2838,-1.22968,-0.0479798,0.237312,
2,1,0,1,0,2334.56,0.23951,0.239282,0.518128,2,0.0209469,11,0.000123979,-3.28556,-0.784664,-0.0751914,0.238867,
2,1,0,1,0,2334.71,0.241008,0.240768,0.514684,2,0.0210265,11,0.000123919,-3.28846,-0.893656,-0.0660209,0.240356,
2,1,0,1,0,2334.86,0.242506,0.242244,0.512962,2,0.0211056,11,0.000124262,-3.28991,-0.884105,-0.0667341,0.241833,
2,1,0,1,0,2335.01,0.244005,0.24373,0.512896,2,0.0211846,11,0.000125008,-3.28997,-2.66047,-0.0221765,0.24332,
2,1,0,1,0,2335.16,0.245503,0.245269,0.511088,2,0.0212636,11,0.000125354,-3.2915,-0.869666,-0.0678422,0.24486,
2,1,0,1,0,2335.31,0.247001,0.246794,0.511338,2,0.0213422,11,0.000126195,-3.29129,-0.670094,-0.0880474,0.246385,
2,1,0,1,0,2335.46,0.2485,0.248243,0.504567,2,0.0214205,11,0.000125255,-3.29708,-1.47628,-0.0399652,0.247839,
2,1,0,1,0,2335.61,0.249997,0.249743,0.508966,2,0.0214985,11,0.000127111,-3.29331,-2.08539,-0.0282921,0.249336,
2,1,0,1,0,2335.76,0.251495,0.251221,0.505522,2,0.0215764,11,0.000126998,-3.29626,-2.95001,-0.02,0.250816,
2,1,0,1,0,2335.91,0.252994,0.252741,0.502304,2,0.0216542,11,0.000126953,-3.29903,-0.548586,-0.107549,0.252339,
2,1,0,1,0,2336.06,0.254492,0.254241,0.501674,2,0.0217317,11,0.000127546,-3.29958,-1.87408,-0.0314822,0.25384,
2,1,0,1,0,2336.21,0.25599,0.2557,0.499288,2,0.0218088,11,0.000127668,-3.30165,-2.69802,-0.0218678,0.255301,
2,1,0,1,0,2336.36,0.257488,0.257211,0.498878,2,0.0218859,11,0.000128317,-3.30201,-1.10525,-0.0533817,0.256812,
2,1,0,1,0,2336.51,0.258987,0.258734,0.500312,2,0.0219629,11,0.000129448,-3.30076,-0.959387,-0.0614976,0.258334,
2,1,0,1,0,2336.66,0.260485,0.260215,0.499302,2,0.0220397,11,0.000129926,-3.30164,-0.858427,-0.0687303,0.259816,
2,1,0,1,0,2336.81,0.261983,0.261717,0.495149,2,0.0221161,11,0.000129589,-3.30526,-1.21706,-0.0484773,0.261321,
2,1,0,1,0,2336.96,0.263481,0.263216,0.495173,2,0.0221924,11,0.000130338,-3.30524,-1.82769,-0.0322813,0.26282,
2,1,0,1,0,2337.11,0.26498,0.264725,0.494388,2,0.0222686,11,0.000130877,-3.30593,-2.68641,-0.0219624,0.264329,
2,1,0,1,0,2337.26,0.266477,0.266186,0.492554,2,0.0223446,11,0.000131111,-3.30755,-2.60839,-0.0226193,0.265792,
2,1,0,1,0,2337.41,0.267976,0.267679,0.489534,2,0.0224203,11,0.000131038,-3.31022,-2.45669,-0.024016,0.267287,
2,1,0,1,0,2337.56,0.269474,0.269191,0.49095,2,0.022496,11,0.000132159,-3.30896,-11.1551,-0.00528906,0.268798,
2,1,0,1,0,2337.71,0.270972,0.270691,0.490502,2,0.0225716,11,0.000132775,-3.30936,-2.57999,-0.0228683,0.270299,
2,1,0,1,0,2337.86,0.27247,0.272197,0.487442,2,0.022647,11,0.00013268,-3.31208,-1.58141,-0.0373085,0.271807,
2,1,0,1,0,2338.01,0.273968,0.273728,0.484428,2,0.0227221,11,0.000132602,-3.31477,-1.20902,-0.0488,0.273341,
2,1,0,1,0,2338.16,0.275467,0.275226,0.486654,2,0.022797,11,0.00013394,-3.31278,-0.723645,-0.0815317,0.274836,
2,1,0,1,0,2338.31,0.276965,0.276673,0.484974,2,0.0228719,11,0.000134179,-3.31428,-0.909779,-0.0648509,0.276285,
2,1,0,1,0,2338.46,0.278463,0.278178,0.483372,2,0.0229466,11,0.000134463,-3.31572,-0.90406,-0.0652612,0.277791,
2,1,0,1,0,2338.61,0.279962,0.27971,0.483783,2,0.0230213,11,0.000135319,-3.31535,-0.771991,-0.0764258,0.279323,
2,1,0,1,0,2338.76,0.281459,0.281202,0.483108,2,0.0230956,11,0.000135851,-3.31596,-3.56257,-0.0165611,0.280815,
2,1,0,1,0,2338.91,0.282957,0.282692,0.480759,2,0.0231698,11,0.000135907,-3.31807,-8.40093,-0.00702303,0.282307,
2,1,0,1,0,2339.06,0.284456,0.284191,0.48059,2,0.0232441,11,0.00013658,-3.31822,-2.65196,-0.0222477,0.283807,
2,1,0,1,0,2339.21,0.285954,0.285649,0.479513,2,0.0233181,11,0.000136972,-3.3192,-2.33041,-0.0253174,0.285266,
2,1,0,1,0,2339.36,0.287452,0.287181,0.478529,2,0.0233918,11,0.000137424,-3.32009,-1.56967,-0.0375876,0.286798,
2,1,0,1,0,2339.51,0.28895,0.288657,0.476918,2,0.0234655,11,0.000137666,-3.32156,3.85195,0.0153169,0.288275,
2,1,0,1,0,2339.66,0.290449,0.290177,0.475123,2,0.0235392,11,0.00013787,-3.32319,-1.91002,-0.0308897,0.289797,
2,1,0,1,0,2339.81,0.291947,0.291663,0.474736,2,0.0236127,11,0.000138463,-3.32355,-0.827202,-0.0713248,0.291283,
2,1,0,1,0,2339.96,0.293445,0.2932,0.473079,2,0.0236859,11,0.000138707,-3.32507,-1.21418,-0.0485924,0.292822,
2,1,0,1,0,2340.11,0.294943,0.294682,0.474574,2,0.023759,11,0.000139848,-3.3237,-4.07014,-0.0144958,0.294302,
2,1,0,1,0,2340.26,0.296442,0.296133,0.477299,2,0.0238323,11,0.000141344,-3.32121,-1.63648,-0.036053,0.295751,
2,1,0,1,0,2340.41,0.297939,0.297703,0.472252,2,0.0239053,11,0.000140591,-3.32583,-1.51583,-0.0389225,0.297325,
2,1,0,1,0,2340.56,0.299437,0.299212,0.468367,2,0.0239782,11,0.000140141,-3.32941,-0.00190777,-30.9261,0.298837,
2,1,0,1,0,2340.64,0.299738,0.299484,0.0563613,2,0.0240086,11,1.68793e-05,-4.24902,0.000900766,65.4998,0.299439,
2,0,0,1,0,2340.79,0.29824,0.297967,-0.056654,2,0.0240019,11,-1.6881e-05,-4.24677,0.00481106,12.2634,0.298012,
2,0,0,1,0,2340.94,0.296741,0.296437,-0.0846175,2,0.0239889,11,-2.50837e-05,-4.07254,-0.0111627,-5.28547,0.296505,
2,0,0,1,0,2341.09,0.295243,0.294981,-0.101436,2,0.0239725,11,-2.99218e-05,-3.99381,-0.0207788,-2.83944,0.295062,
2,0,0,1,0,2341.24,0.293745,0.293448,-0.118727,2,0.0239536,11,-3.48401e-05,-3.92545,-0.0277471,-2.12635,0.293543,
2,0,0,1,0,2341.39,0.292246,0.291956,-0.131406,2,0.0239331,11,-3.83648e-05,-3.88138,-0.0343862,-1.71581,0.292061,
2,0,0,1,0,2341.54,0.290748,0.290452,-0.142828,2,0.0239105,11,-4.14845e-05,-3.84519,-0.045523,-1.29605,0.290566,
2,0,0,1,0,2341.69,0.28925,0.288957,-0.149528,2,0.0238865,11,-4.32071e-05,-3.82528,-0.0563268,-1.04746,0.289076,
2,0,0,1,0,2341.84,0.287752,0.287473,-0.15967,2,0.0238611,11,-4.59009e-05,-3.79678,-0.0715194,-0.824951,0.287601,
2,0,0,1,0,2341.99,0.286253,0.285944,-0.166316,2,0.0238347,11,-4.75571e-05,-3.77907,-0.0841392,-0.701219,0.286077,
2,0,0,1,0,2342.14,0.284755,0.284467,-0.176294,2,0.023807,11,-5.01498e-05,-3.75376,-0.0749328,-0.787372,0.284608,
2,0,0,1,0,2342.29,0.283258,0.282949,-0.180224,2,0.0237782,11,-5.09942e-05,-3.74419,-0.0882999,-0.668178,0.283093,
2,0,0,1,0,2342.44,0.281759,0.281468,-0.189697,2,0.0237484,11,-5.33937e-05,-3.72194,-0.106331,-0.55487,0.28162,
2,0,0,1,0,2342.59,0.280261,0.279979,-0.187993,2,0.0237177,11,-5.2634e-05,-3.72586,-0.1017,-0.580137,0.28013,
2,0,0,1,0,2342.74,0.278763,0.278483,-0.200451,2,0.0236862,11,-5.58223e-05,-3.69799,-0.119911,-0.492033,0.278643,
2,0,0,1,0,2342.89,0.277264,0.276989,-0.205486,2,0.0236537,11,-5.69173e-05,-3.68722,-0.135847,-0.434312,0.277153,
2,0,0,1,0,2343.04,0.275766,0.275445,-0.211014,2,0.0236204,11,-5.81228e-05,-3.67569,-0.206809,-0.285288,0.275614,
2,0,0,1,0,2343.19,0.274268,0.27397,-0.215957,2,0.0235863,11,-5.91657e-05,-3.66563,-0.148036,-0.398551,0.274143,
2,0,0,1,0,2343.34,0.27277,0.272479,-0.221498,2,0.0235516,11,-6.03535e-05,-3.65463,-0.140552,-0.419773,0.272656,
2,0,0,1,0,2343.49,0.271272,0.271008,-0.225032,2,0.023516,11,-6.09857e-05,-3.64775,-0.169718,-0.347636,0.271188,
2,0,0,1,0,2343.64,0.269773,0.269505,-0.232004,2,0.0234796,11,-6.25263e-05,-3.6345,-0.199379,-0.295919,0.26969,
2,0,0,1,0,2343.79,0.268275,0.267963,-0.236569,2,0.0234426,11,-6.33918e-05,-3.62604,-0.163809,-0.360175,0.268153,
2,0,0,1,0,2343.94,0.266778,0.266469,-0.239459,2,0.0234051,11,-6.38084e-05,-3.62077,-0.154478,-0.381931,0.266661,
2,0,0,1,0,2344.09,0.265279,0.264988,-0.242634,2,0.0233667,11,-6.42951e-05,-3.61505,-0.147973,-0.398721,0.265182,
2,0,0,1,0,2344.24,0.263781,0.263506,-0.248504,2,0.0233277,11,-6.54823e-05,-3.60467,-0.198875,-0.296669,0.263705,
2,0,0,1,0,2344.39,0.262283,0.26193,-0.250287,2,0.0232881,11,-6.55577e-05,-3.60156,-0.188083,-0.313691,0.26213,
2,0,0,1,0,2344.54,0.260784,0.260531,-0.254816,2,0.023248,11,-6.63877e-05,-3.59377,-0.201297,-0.293099,0.260735,
2,0,0,1,0,2344.69,0.259286,0.25899,-0.258873,2,0.0232071,11,-6.70453e-05,-3.58691,-0.251769,-0.234342,0.259197,
2,0,0,1,0,2344.84,0.257788,0.257509,-0.268411,2,0.0231656,11,-6.91183e-05,-3.5712,-0.282542,-0.208818,0.257724,
2,0,0,1,0,2344.99,0.25629,0.255989,-0.269376,2,0.0231235,11,-6.89572e-05,-3.56964,-0.320492,-0.184092,0.256204,
2,0,0,1,0,2345.14,0.254791,0.254511,-0.270915,2,0.0230808,11,-6.89508e-05,-3.56717,-0.285882,-0.206379,0.254727,
2,0,0,1,0,2345.29,0.253293,0.253039,-0.276103,2,0.0230377,11,-6.9865e-05,-3.55893,-0.307479,-0.191883,0.25326,
2,0,0,1,0,2345.44,0.251796,0.251471,-0.281752,2,0.0229939,11,-7.08524e-05,-3.55013,-0.251285,-0.234793,0.251696,
2,0,0,1,0,2345.59,0.250297,0.25003,-0.282374,2,0.0229495,11,-7.06021e-05,-3.54917,-0.398308,-0.148127,0.250256,
2,0,0,1,0,2345.74,0.248799,0.248532,-0.288437,2,0.0229045,11,-7.16857e-05,-3.53995,-0.263623,-0.223805,0.248763,
2,0,0,1,0,2345.89,0.247301,0.246999,-0.290658,2,0.0228591,11,-7.17922e-05,-3.53662,-0.248205,-0.237707,0.247231,
2,0,0,1,0,2346.04,0.245802,0.245513,-0.296766,2,0.022813,11,-7.28598e-05,-3.52759,-0.281449,-0.20963,0.24575,
2,0,0,1,0,2346.19,0.244304,0.244015,-0.299921,2,0.0227662,11,-7.31851e-05,-3.52299,-0.309313,-0.190745,0.244255,
2,0,0,1,0,2346.34,0.242806,0.242553,-0.30513,2,0.0227189,11,-7.40102e-05,-3.51552,-0.391724,-0.150616,0.242797,
2,0,0,1,0,2346.49,0.241308,0.241028,-0.305455,2,0.0226713,11,-7.36234e-05,-3.51505,-0.279653,-0.210976,0.241273,
2,0,0,1,0,2346.64,0.23981,0.239546,-0.310749,2,0.022623,11,-7.44386e-05,-3.50759,-0.258879,-0.227906,0.239795,
2,0,0,1,0,2346.79,0.238311,0.237992,-0.314274,2,0.022574,11,-7.47948e-05,-3.50269,-0.267713,-0.220385,0.238244,
2,0,0,1,0,2346.93,0.236814,0.236527,-0.317717,2,0.0225245,11,-7.51487e-05,-3.49796,-0.241661,-0.244144,0.236781,
2,0,0,1,0,2347.08,0.235316,0.235016,-0.318545,2,0.0224747,11,-7.48631e-05,-3.49683,-0.23072,-0.255721,0.23527,
2,0,0,1,0,2347.23,0.233817,0.233563,-0.326181,2,0.0224241,11,-7.61838e-05,-3.48654,-0.242876,-0.242922,0.233824,
2,0,0,1,0,2347.38,0.232319,0.232008,-0.330837,2,0.0223728,11,-7.67567e-05,-3.48039,-0.281557,-0.209549,0.232272,
2,0,0,1,0,2347.53,0.230821,0.230524,-0.333202,2,0.0223209,11,-7.68111e-05,-3.47729,-0.336981,-0.175084,0.230791,
2,0,0,1,0,2347.68,0.229322,0.229032,-0.335129,2,0.0222686,11,-7.67552e-05,-3.47479,-0.279771,-0.210887,0.2293,
2,0,0,1,0,2347.83,0.227824,0.227533,-0.340037,2,0.0222157,11,-7.73694e-05,-3.46847,-0.350849,-0.168163,0.227805,
2,0,0,1,0,2347.98,0.226326,0.226051,-0.343689,2,0.0221621,11,-7.76914e-05,-3.46383,-0.36233,-0.162835,0.226326,
2,0,0,1,0,2348.13,0.224828,0.224529,-0.350535,2,0.0221078,11,-7.87051e-05,-3.45527,-0.428393,-0.137724,0.224809,
2,0,0,1,0,2348.28,0.223329,0.223059,-0.352218,2,0.0220529,11,-7.85653e-05,-3.45319,-0.278398,-0.211926,0.223341,
2,0,0,1,0,2348.43,0.221831,0.221566,-0.360487,2,0.0219977,11,-7.98716e-05,-3.44311,-0.247277,-0.238599,0.221854,
2,0,0,1,0,2348.58,0.220334,0.220042,-0.36384,2,0.0219415,11,-8.00601e-05,-3.43909,-0.202765,-0.290977,0.220333,
2,0,0,1,0,2348.73,0.218835,0.218555,-0.369748,2,0.0218845,11,-8.08103e-05,-3.43209,-0.28172,-0.209428,0.218851,
2,0,0,1,0,2348.88,0.217337,0.217018,-0.371333,2,0.0218268,11,-8.05858e-05,-3.43024,-0.289407,-0.203865,0.217315,
2,0,0,1,0,2349.03,0.215839,0.215569,-0.376671,2,0.0217688,11,-8.11986e-05,-3.42404,-0.23071,-0.255732,0.215871,
2,0,0,1,0,2349.18,0.21434,0.214051,-0.380233,2,0.0217099,11,-8.1389e-05,-3.41995,-0.224528,-0.262774,0.214355,
2,0,0,1,0,2349.33,0.212842,0.212511,-0.386894,2,0.0216501,11,-8.22193e-05,-3.41241,-0.227854,-0.258938,0.21282,
2,0,0,1,0,2349.48,0.211344,0.211023,-0.3909,2,0.0215895,11,-8.2489e-05,-3.40793,-0.267465,-0.22059,0.211336,
2,0,0,1,0,2349.63,0.209846,0.209527,-0.394505,2,0.0215284,11,-8.26594e-05,-3.40395,-0.259602,-0.227271,0.209843,
2,0,0,1,0,2349.78,0.208348,0.20809,-0.404722,2,0.0214663,11,-8.42186e-05,-3.39284,-0.20851,-0.28296,0.208414,
2,0,0,1,0,2349.93,0.206849,0.206576,-0.417271,2,0.0214031,11,-8.61983e-05,-3.37958,-0.22244,-0.265241,0.20691,
2,0,0,1,0,2350.08,0.205352,0.205032,-0.416006,2,0.0213388,11,-8.52945e-05,-3.3809,-0.262558,-0.224713,0.205365,
2,0,0,1,0,2350.23,0.203854,0.203519,-0.421205,2,0.0212739,11,-8.57233e-05,-3.37551,-0.214358,-0.275241,0.203856,
2,0,0,1,0,2350.38,0.202355,0.202062,-0.425311,2,0.0212082,11,-8.5939e-05,-3.37129,-0.214879,-0.274573,0.202402,
2,0,0,1,0,2350.53,0.200857,0.200555,-0.43575,2,0.0211411,11,-8.73917e-05,-3.36076,-0.229074,-0.257559,0.200903,
2,0,0,1,0,2350.68,0.199359,0.199074,-0.443617,2,0.021073,11,-8.83123e-05,-3.35299,-0.242243,-0.243557,0.199428,
2,0,0,1,0,2350.83,0.19786,0.197502,-0.452687,2,0.0210038,11,-8.94067e-05,-3.3442,-0.192371,-0.3067,0.197864,
2,0,0,1,0,2350.98,0.196362,0.196029,-0.462435,2,0.0209336,11,-9.06507e-05,-3.33495,-0.197222,-0.299155,0.196399,
2,0,0,1,0,2351.13,0.194864,0.194569,-0.470938,2,0.0208619,11,-9.163e-05,-3.32704,-0.163977,-0.359806,0.194946,
2,0,0,1,0,2351.28,0.193366,0.193046,-0.47808,2,0.0207887,11,-9.22915e-05,-3.3205,-0.166972,-0.353352,0.193429,
2,0,0,1,0,2351.43,0.191867,0.191525,-0.487395,2,0.020714,11,-9.33486e-05,-3.31212,-0.18497,-0.318971,0.191915,
2,0,0,1,0,2351.58,0.190369,0.190072,-0.498161,2,0.0206382,11,-9.46867e-05,-3.30263,-0.161056,-0.366332,0.190471,
2,0,0,1,0,2351.73,0.188872,0.188573,-0.509258,2,0.0205605,11,-9.60321e-05,-3.29306,-0.130689,-0.451455,0.18898,
2,0,0,1,0,2351.88,0.187373,0.187106,-0.521597,2,0.020481,11,-9.75938e-05,-3.28266,-0.144331,-0.408783,0.187523,
2,0,0,1,0,2352.03,0.185875,0.185597,-0.536317,2,0.0203998,11,-9.95386e-05,-3.27058,-0.12724,-0.463692,0.186026,
2,0,0,1,0,2352.18,0.184377,0.18403,-0.544101,2,0.0203165,11,-0.000100131,-3.26432,-0.126378,-0.466855,0.184465,
2,0,0,1,0,2352.33,0.182878,0.182544,-0.563246,2,0.0202312,11,-0.000102817,-3.2493,-0.117203,-0.503401,0.182994,
2,0,0,1,0,2352.48,0.18138,0.181095,-0.581535,2,0.0201433,11,-0.000105313,-3.23542,-0.120436,-0.489888,0.181561,
2,0,0,1,0,2352.63,0.179882,0.17958,-0.597215,2,0.020053,11,-0.000107248,-3.22387,-0.13724,-0.429904,0.180058,
2,0,0,1,0,2352.78,0.178384,0.178092,-0.617081,2,0.01996,11,-0.000109897,-3.20966,-0.10967,-0.537979,0.178586,
2,0,0,1,0,2352.93,0.176886,0.176589,-0.637519,2,0.0198646,11,-0.000112579,-3.19551,-0.104792,-0.56302,0.177099,
2,0,0,1,0,2353.08,0.175387,0.175059,-0.660889,2,0.0197654,11,-0.000115695,-3.17987,-0.0950251,-0.620889,0.175588,
2,0,0,1,0,2353.23,0.17389,0.173596,-0.685346,2,0.019663,11,-0.000118973,-3.16409,-0.0948448,-0.622069,0.174144,
2,0,0,1,0,2353.38,0.172392,0.172073,-0.708529,2,0.0195568,11,-0.000121919,-3.14964,-0.0857233,-0.688261,0.17264,
2,0,0,1,0,2353.53,0.170893,0.170589,-0.735163,2,0.0194468,11,-0.000125411,-3.13362,-0.0806313,-0.731726,0.171177,
2,0,0,1,0,2353.68,0.169395,0.169109,-0.768229,2,0.0193319,11,-0.000129914,-3.11451,-0.0736732,-0.800834,0.169723,
2,0,0,1,0,2353.83,0.167897,0.167588,-0.80264,2,0.0192119,11,-0.000134513,-3.09548,-0.0757922,-0.778445,0.16823,
2,0,0,1,0,2353.98,0.166398,0.166084,-0.839849,2,0.0190866,11,-0.000139486,-3.0758,-0.0748801,-0.787926,0.166756,
2,0,0,1,0,2354.13,0.1649,0.164562,-0.878728,2,0.0189555,11,-0.000144605,-3.05615,-0.0672617,-0.87717,0.165265,
2,0,0,1,0,2354.28,0.163402,0.163143,-0.92989,2,0.0188179,11,-0.000151705,-3.03157,-0.0647574,-0.911092,0.163887,
2,0,0,1,0,2354.43,0.161904,0.161541,-0.982214,2,0.0186728,11,-0.000158668,-3.00779,-0.0623095,-0.946887,0.162327,
2,0,0,1,0,2354.58,0.160405,0.160111,-1.03492,2,0.0185199,11,-0.000165703,-2.98509,-0.0634096,-0.930458,0.160939,
2,0,0,1,0,2354.73,0.158907,0.158596,-1.08766,2,0.0183588,11,-0.000172499,-2.96351,-0.0614433,-0.960235,0.159466,
2,0,0,1,0,2354.88,0.15741,0.157119,-1.15235,2,0.018189,11,-0.000181055,-2.93842,-0.0594102,-0.993096,0.158041,
2,0,0,1,0,2355.03,0.155911,0.155583,-1.21485,2,0.0180094,11,-0.000189011,-2.91548,-0.0606915,-0.972129,0.156555,
2,0,0,1,0,2355.18,0.154413,0.154158,-1.2817,2,0.0178195,11,-0.000197584,-2.89221,-0.0668529,-0.882534,0.155183,
2,0,0,1,0,2355.32,0.152915,0.152618,-1.35069,2,0.0176202,11,-0.000206139,-2.86945,-0.0696148,-0.847521,0.153699,
2,0,0,1,0,2355.47,0.151417,0.151116,-1.41677,2,0.0174113,11,-0.000214096,-2.8487,-0.0713156,-0.827308,0.152249,
2,0,0,1,0,2355.62,0.149918,0.149626,-1.48361,2,0.017192,11,-0.000221986,-2.82868,-0.0735265,-0.802432,0.150813,
2,0,0,1,0,2355.77,0.14842,0.148121,-1.54627,2,0.0169627,11,-0.000229036,-2.81071,-0.083335,-0.707986,0.149358,
2,0,0,1,0,2355.92,0.146922,0.146634,-1.60821,2,0.0167242,11,-0.000235819,-2.79366,-0.0953497,-0.618775,0.147921,
2,0,0,1,0,2356.07,0.145424,0.145149,-1.65933,2,0.0164777,11,-0.00024085,-2.78007,-0.104162,-0.566426,0.146476,
2,0,0,1,0,2356.22,0.143925,0.143671,-1.71376,2,0.0162227,11,-0.000246217,-2.76605,-0.105819,-0.557556,0.145042,
2,0,0,1,0,2356.37,0.142428,0.142136,-1.76254,2,0.0159599,11,-0.000250521,-2.75386,-0.131567,-0.44844,0.143546,
2,0,0,1,0,2356.52,0.14093,0.140622,-1.79833,2,0.015691,11,-0.000252885,-2.74513,-0.190401,-0.309872,0.142061,
2,0,0,1,0,2356.67,0.139431,0.139154,-1.82169,2,0.015417,11,-0.000253496,-2.73953,-0.224788,-0.26247,0.140612,
2,0,0,1,0,2356.82,0.137933,0.137644,-1.85335,2,0.0151395,11,-0.000255102,-2.73204,-0.309413,-0.190684,0.139127,
2,0,0,1,0,2356.97,0.136435,0.136176,-1.87254,2,0.0148583,11,-0.000254994,-2.72757,-0.463286,-0.127351,0.137674,
2,0,0,1,0,2357.12,0.134936,0.134649,-1.88022,2,0.0145751,11,-0.000253169,-2.72579,-3.03795,-0.019421,0.136153,
2,0,0,1,0,2357.27,0.133438,0.133154,-1.87928,2,0.014291,11,-0.000250234,-2.72601,1.68394,0.0350368,0.134658,
2,0,0,1,0,2357.42,0.13194,0.131643,-1.87407,2,0.0140081,11,-0.000246709,-2.72721,0.731767,0.0806268,0.133143,
2,0,0,1,0,2357.57,0.130442,0.130155,-1.86459,2,0.0137259,11,-0.000242685,-2.72942,0.43491,0.13566,0.131646,
2,0,0,1,0,2357.72,0.128943,0.128612,-1.84483,2,0.0134456,11,-0.000237267,-2.73404,0.238615,0.24726,0.130088,
2,0,0,1,0,2357.87,0.127445,0.127165,-1.81712,2,0.0131695,11,-0.000231074,-2.74062,0.208611,0.282824,0.128619,
2,0,0,1,0,2358.02,0.125948,0.125645,-1.77861,2,0.0128987,11,-0.000223474,-2.74992,0.182794,0.322767,0.127068,
2,0,0,1,0,2358.17,0.124449,0.124172,-1.74409,2,0.0126324,11,-0.000216566,-2.75843,0.163191,0.36154,0.125567,
2,0,0,1,0,2358.32,0.122951,0.122682,-1.70175,2,0.0123723,11,-0.000208774,-2.7691,0.14012,0.421067,0.124043,
2,0,0,1,0,2358.47,0.121453,0.121148,-1.65733,2,0.0121187,11,-0.000200783,-2.78059,0.126728,0.465564,0.122474,
2,0,0,1,0,2358.62,0.119955,0.119676,-1.60305,2,0.0118724,11,-0.000191846,-2.79505,0.123285,0.478565,0.120958,
2,0,0,1,0,2358.77,0.118456,0.118168,-1.56384,2,0.0116329,11,-0.000184796,-2.80581,0.128977,0.457445,0.119419,
2,0,0,1,0,2358.92,0.116958,0.116642,-1.52291,2,0.0113998,11,-0.000177635,-2.81733,0.118114,0.499518,0.11786,
2,0,0,1,0,2359.07,0.11546,0.115143,-1.47623,2,0.0111733,11,-0.000169978,-2.83085,0.114911,0.513442,0.116324,
2,0,0,1,0,2359.22,0.113962,0.113694,-1.42462,2,0.0109538,11,-0.000161971,-2.8463,0.121195,0.486818,0.114834,
2,0,0,1,0,2359.37,0.112463,0.112176,-1.39348,2,0.0107405,11,-0.000156315,-2.8559,0.130922,0.450649,0.113291,
2,0,0,1,0,2359.52,0.110966,0.11065,-1.35659,2,0.0105328,11,-0.000150107,-2.86755,0.133777,0.441034,0.111736,
2,0,0,1,0,2359.67,0.109468,0.109161,-1.31919,2,0.0103303,11,-0.000144005,-2.87969,0.129058,0.457158,0.110217,
2,0,0,1,0,2359.82,0.107969,0.107683,-1.28644,2,0.0101326,11,-0.000138528,-2.89061,0.152982,0.385667,0.108713,
2,0,0,1,0,2359.97,0.106471,0.106188,-1.25778,2,0.0099401,11,-0.000133561,-2.9004,0.172022,0.34298,0.107194,
2,0,0,1,0,2360.12,0.104973,0.104666,-1.23281,2,0.0097512,11,-0.000129033,-2.9091,0.172883,0.341272,0.105652,
2,0,0,1,0,2360.27,0.103474,0.10319,-1.21284,2,0.00956552,11,-0.000125153,-2.9162,0.172192,0.34264,0.104161,
2,0,0,1,0,2360.42,0.101976,0.101647,-1.19031,2,0.00938363,11,-0.000120991,-2.92434,0.200264,0.294611,0.102599,
2,0,0,1,0,2360.57,0.100478,0.100199,-1.1694,2,0.00920529,11,-0.000117173,-2.93204,0.211328,0.279186,0.101135,
2,0,0,1,0,2360.72,0.0989798,0.0987272,-1.15394,2,0.0090293,11,-0.000113926,-2.93782,0.259198,0.227625,0.0996504,
2,0,0,1,0,2360.87,0.0974808,0.0972368,-1.13867,2,0.00885555,11,-0.00011072,-2.9436,0.262837,0.224473,0.0981477,
2,0,0,1,0,2361.02,0.0959833,0.0956955,-1.11966,2,0.00868439,11,-0.000107147,-2.95091,0.252529,0.233637,0.0965912,
2,0,0,1,0,2361.17,0.0944857,0.0941946,-1.10244,2,0.00851577,11,-0.000103844,-2.95764,0.294247,0.200512,0.0950765,
2,0,0,1,0,2361.32,0.0929871,0.0926903,-1.09154,2,0.00834893,11,-0.000101175,-2.96196,0.356703,0.165404,0.0935636,
2,0,0,1,0,2361.47,0.0914889,0.0911909,-1.08564,2,0.00818386,11,-9.90003e-05,-2.96432,0.292489,0.201717,0.0920594,
2,0,0,1,0,2361.62,0.0899907,0.0896968,-1.06821,2,0.00802068,11,-9.58147e-05,-2.97134,0.289379,0.203885,0.0905514,
2,0,0,1,0,2361.77,0.0884925,0.0881995,-1.04938,2,0.00785955,11,-9.25552e-05,-2.97907,0.321155,0.183712,0.089039,
2,0,0,1,0,2361.92,0.0869943,0.08668,-1.04489,2,0.00770046,11,-9.0571e-05,-2.98093,0.287335,0.205335,0.0875159,
2,0,0,1,0,2362.07,0.0854961,0.0852336,-1.03353,2,0.00754269,11,-8.80911e-05,-2.98568,0.293561,0.200981,0.0860604,
2,0,0,1,0,2362.22,0.083998,0.0837246,-1.01942,2,0.0073867,11,-8.53502e-05,-2.99165,0.240014,0.245819,0.0845401,
2,0,0,1,0,2362.37,0.0824998,0.0821913,-1.00992,2,0.00723246,11,-8.30067e-05,-2.99571,0.274262,0.215123,0.0829992,
2,0,0,1,0,2362.52,0.0810011,0.0806711,-0.995548,2,0.00708046,11,-8.0312e-05,-3.00194,0.308563,0.191209,0.0814676,
2,0,0,1,0,2362.67,0.0795036,0.0792319,-0.989109,2,0.00692977,11,-7.8369e-05,-3.00476,0.329802,0.178895,0.0800232,
2,0,0,1,0,2362.82,0.0780061,0.0776884,-0.973804,2,0.00678086,11,-7.56532e-05,-3.01153,0.285456,0.206687,0.0784674,
2,0,0,1,0,2362.97,0.076507,0.0762212,-0.961929,2,0.00663372,11,-7.33193e-05,-3.01686,0.269751,0.21872,0.0769907,
2,0,0,1,0,2363.12,0.0750088,0.0747387,-0.948383,2,0.00648893,11,-7.08809e-05,-3.02302,0.246685,0.239172,0.0754974,
2,0,0,1,0,2363.27,0.0735106,0.0732679,-0.935183,2,0.00634576,11,-6.85189e-05,-3.0291,0.324589,0.181769,0.0740161,
2,0,0,1,0,2363.42,0.0720124,0.0717187,-0.921513,2,0.00620441,11,-6.60897e-05,-3.0355,0.265494,0.222227,0.0724559,
2,0,0,1,0,2363.56,0.0705142,0.0702013,-0.910296,2,0.0060649,11,-6.39039e-05,-3.04082,0.225318,0.261852,0.0709295,
2,0,0,1,0,2363.71,0.069016,0.0687538,-0.897022,2,0.00592747,11,-6.16737e-05,-3.0472,0.245758,0.240074,0.0694714,
2,0,0,1,0,2363.86,0.0675179,0.067247,-0.886427,2,0.00579181,11,-5.96095e-05,-3.05236,0.288636,0.20441,0.0679561,
2,0,0,1,0,2364.01,0.0660188,0.0657288,-0.880101,2,0.0056577,11,-5.7848e-05,-3.05547,0.276421,0.213442,0.0664329,
2,0,0,1,0,2364.16,0.0645213,0.0642131,-0.864562,2,0.00552529,11,-5.55162e-05,-3.0632,0.258216,0.228491,0.0649048,
2,0,0,1,0,2364.31,0.0630237,0.0627279,-0.847513,2,0.0053948,11,-5.31627e-05,-3.07185,0.286586,0.205872,0.0634059,
2,0,0,1,0,2364.46,0.0615251,0.0612535,-0.841141,2,0.00526605,11,-5.15228e-05,-3.07513,0.286916,0.205635,0.0619264,
2,0,0,1,0,2364.61,0.0600269,0.0596926,-0.829491,2,0.00513864,11,-4.95145e-05,-3.08119,0.299303,0.197125,0.0603562,
2,0,0,1,0,2364.76,0.0585287,0.0582335,-0.822498,2,0.0050127,11,-4.78969e-05,-3.08487,0.2202,0.267938,0.0588915,
2,0,0,1,0,2364.91,0.0570305,0.0567426,-0.811437,2,0.00488819,11,-4.6043e-05,-3.09075,0.308196,0.191436,0.0573917,
2,0,0,1,0,2365.06,0.0555323,0.0552612,-0.804877,2,0.00476535,11,-4.44785e-05,-3.09427,0.379603,0.155425,0.0559051,
2,0,0,1,0,2365.21,0.0540341,0.0537331,-0.797583,2,0.00464339,11,-4.28567e-05,-3.09822,0.341673,0.17268,0.0543712,
2,0,0,1,0,2365.36,0.052536,0.0521955,-0.792694,2,0.00452212,11,-4.13751e-05,-3.10089,0.393893,0.149787,0.0528297,
2,0,0,1,0,2365.51,0.0510378,0.0507534,-0.782837,2,0.0044023,11,-3.97316e-05,-3.10633,0.363953,0.162109,0.0513797,
2,0,0,1,0,2365.66,0.0495391,0.049279,-0.778497,2,0.00428354,11,-3.83635e-05,-3.10874,0.483569,0.12201,0.0499018,
2,0,0,1,0,2365.81,0.0480416,0.0477284,-0.770034,2,0.00416546,11,-3.67525e-05,-3.11349,1.22072,0.0483323,0.0483444,
2,0,0,1,0,2365.96,0.0465441,0.0462454,-0.766075,2,0.0040481,11,-3.54274e-05,-3.11573,0.693914,0.085025,0.0468582,
2,0,0,1,0,2366.11,0.045045,0.0447759,-0.760669,2,0.00393141,11,-3.40596e-05,-3.1188,0.681827,0.0865322,0.0453844,
2,0,0,1,0,2366.26,0.0435468,0.043269,-0.754613,2,0.0038155,11,-3.26514e-05,-3.12228,0.73439,0.0803388,0.0438727,
2,0,0,1,0,2366.41,0.0420486,0.0417877,-0.755063,2,0.00370006,11,-3.15523e-05,-3.12202,0.850064,0.0694066,0.0423917,
2,0,0,1,0,2366.56,0.0405504,0.040267,-0.759662,2,0.00358484,11,-3.05893e-05,-3.11938,0.892819,0.0660828,0.0408748,
2,0,0,1,0,2366.71,0.0390523,0.0387517,-0.751113,2,0.00346994,11,-2.91069e-05,-3.12429,0.789873,0.0746956,0.0393526,
2,0,0,1,0,2366.86,0.0375541,0.0372438,-0.74616,2,0.00335556,11,-2.77898e-05,-3.12717,1.02507,0.057557,0.0378407,
2,0,0,1,0,2367.01,0.0360559,0.0357932,-0.748122,2,0.00324169,11,-2.67777e-05,-3.12603,1.67178,0.0352917,0.0363917,
2,0,0,1,0,2367.16,0.0345568,0.0342631,-0.746661,2,0.00312759,11,-2.55829e-05,-3.12688,3.64847,0.0161711,0.0348604,
2,0,0,1,0,2367.31,0.0330593,0.0327601,-0.74729,2,0.00301368,11,-2.44813e-05,-3.12651,1.99311,0.029602,0.0333579,
2,0,0,1,0,2367.46,0.0315618,0.0312785,-0.745695,2,0.00289992,11,-2.33242e-05,-3.12744,-2.8162,-0.0209502,0.0318751,
2,0,0,1,0,2367.61,0.0300631,0.0297425,-0.744717,2,0.00278633,11,-2.21497e-05,-3.12801,-1.91265,-0.0308472,0.0303383,
2,0,0,1,0,2367.76,0.0285649,0.0282781,-0.747243,2,0.00267244,11,-2.11306e-05,-3.12654,-1.58453,-0.037235,0.0288759,
2,0,0,1,0,2367.91,0.0270667,0.0267914,-0.745079,2,0.00255837,11,-1.99617e-05,-3.1278,-5.05808,-0.0116645,0.0273875,
2,0,0,1,0,2368.06,0.0255685,0.0252697,-0.74891,2,0.0024443,11,-1.89247e-05,-3.12557,-13.4879,-0.0043743,0.0258688,
2,0,0,1,0,2368.21,0.0240704,0.0237809,-0.745392,2,0.00233034,11,-1.77261e-05,-3.12762,-2.20981,-0.0266991,0.0243772,
2,0,0,1,0,2368.36,0.0225722,0.0223186,-0.750978,2,0.00221597,11,-1.67608e-05,-3.12437,-0.915208,-0.0644662,0.0229194,
2,0,0,1,0,2368.51,0.021074,0.0208287,-0.751987,2,0.00210124,11,-1.56629e-05,-3.12379,-1.3498,-0.04371,0.0214303,
2,0,0,1,0,2368.66,0.0195758,0.0192933,-0.75545,2,0.00198627,11,-1.45751e-05,-3.12179,-1.50542,-0.0391918,0.0198976,
2,0,0,1,0,2368.81,0.0180771,0.0178113,-0.750957,2,0.00187106,11,-1.33755e-05,-3.12439,-0.820333,-0.071922,0.0184121,
2,0,0,1,0,2368.96,0.0165796,0.0162862,-0.758672,2,0.00175563,11,-1.23559e-05,-3.11995,-0.858582,-0.068718,0.0168931,
2,0,0,1,0,2369.11,0.0150821,0.0148086,-0.763159,2,0.00163948,11,-1.13013e-05,-3.11738,-0.784389,-0.0752178,0.0154191,
2,0,0,1,0,2369.26,0.013583,0.0132595,-0.763389,2,0.0015229,11,-1.01222e-05,-3.11725,-1.29404,-0.0455937,0.0138703,
2,0,0,1,0,2369.41,0.0120848,0.0117623,-0.766794,2,0.00140603,11,-9.01922e-06,-3.11532,-1.02962,-0.0573028,0.0123757,
2,0,0,1,0,2369.56,0.0105866,0.0102809,-0.769456,2,0.00128898,11,-7.91068e-06,-3.11382,-0.607927,-0.0970511,0.0108964,
2,0,0,1,0,2369.71,0.00908845,0.00876766,-0.772911,2,0.00117117,11,-6.77662e-06,-3.11187,-0.816124,-0.0722929,0.00938599,
2,0,0,1,0,2369.86,0.00759027,0.00727567,-0.778312,2,0.00105272,11,-5.66274e-06,-3.10885,-1.02872,-0.0573527,0.00789832,
2,0,0,1,0,2370.01,0.00609208,0.00581549,-0.783162,2,0.000933798,11,-4.55447e-06,-3.10615,-0.87885,-0.0671332,0.00644202,
2,0,0,1,0,2370.16,0.00459389,0.00432138,-0.78553,2,0.000814651,11,-3.39457e-06,-3.10484,-0.728823,-0.0809524,0.0049498,
2,0,0,1,0,2370.31,0.0030948,0.00276401,-0.791887,2,0.000694431,11,-2.18878e-06,-3.10134,-0.405024,-0.14567,0.00339752,
2,0,0,1,0,2370.46,0.00159728,0.00125961,-0.802859,2,0.000571532,11,-1.01129e-06,-3.09536, , ,0.00190189,
2,0,0,1,0,2370.6,0.000199195,-0.000155446,-0.796924,2,0.000457935,11,1.23879e-07,-3.09858, , ,0.000482093,