File: Figure_codes/Fig_S3_S4/20221101_1-115_003_TrumpetPlot_ParaChange_from10_every3_11_CV_C01_16.csv
mode,ox/red,error,control changes,counter inc.,time/s,control/V,Ewe/V,<I>/mA,cycle number,(Q-Qo)/C,I Range,P/W,log(|I|),Tafel slope mV/dec,alpha_eff,dI/d(E-IR),E-IR/V,
2,1,0,1,0,32716.6,2.44065e-05,-0.000401673,10.051,17,0.0000000E+000,10,-4.03723e-06,-1.99779, , , ,-0.000401673,
2,1,0,1,0,32716.6,0.00214129,0.00175731,11.3445,17,5.52358e-05,10,1.99359e-05,-1.94521, , , ,0.00175731,
2,1,0,1,0,32716.6,0.00454949,0.00418565,12.3117,17,0.000126493,10,5.15324e-05,-1.90968,0.0764838,0.771405,363.32,0.00418565,
2,1,0,1,0,32716.6,0.0069466,0.00659065,13.0491,17,0.000202696,10,8.60019e-05,-1.88442,0.100243,0.588571,297.26,0.00659065,
2,1,0,1,0,32716.6,0.0093437,0.00896702,13.7143,17,0.000283085,10,0.000122976,-1.86283,0.122488,0.481681,255.987,0.00896702,
2,1,0,1,0,32716.6,0.0117408,0.0113922,14.2797,17,0.000367147,10,0.000162676,-1.84528,0.145017,0.40685,225.661,0.0113922,
2,1,0,1,0,32716.6,0.0141462,0.0137908,14.7861,17,0.000454427,10,0.000203913,-1.83015,0.163278,0.361346,207.968,0.0137908,
2,1,0,1,0,32716.6,0.0165433,0.0162213,15.2712,17,0.000544653,10,0.000247718,-1.81613,0.188134,0.313607,186.217,0.0162213,
2,1,0,1,0,32716.7,0.0189404,0.0185976,15.6832,17,0.000637589,10,0.000291671,-1.80456,0.209732,0.281311,171.899,0.0185976,
2,1,0,1,0,32716.7,0.0213486,0.0209984,16.0898,17,0.000732944,10,0.00033786,-1.79345,0.232694,0.253552,158.896,0.02099839,
2,1,0,1,0,32716.7,0.0237457,0.0233917,16.4493,17,0.000830615,10,0.000384777,-1.78385,0.2515,0.234592,150.392,0.0233917,
2,1,0,1,0,32716.7,0.0261429,0.0257766,16.7947,17,0.000930408,10,0.000432909,-1.77483,0.273042,0.216084,141.512,0.02577658,
2,1,0,1,0,32716.7,0.02854,0.0282123,17.118,17,0.0010322,10,0.000482937,-1.76655,0.294752,0.200168,133.607,0.0282123,
2,1,0,1,0,32716.7,0.0309482,0.0306301,17.4347,17,0.00113595,10,0.000534025,-1.75859,0.312237,0.188959,128.445,0.0306301,
2,1,0,1,0,32716.7,0.0333453,0.0329926,17.7326,17,0.00124147,10,0.000585044,-1.75123,0.343267,0.171878,118.861,0.0329926,
2,1,0,1,0,32716.7,0.0357424,0.0354157,18.0202,17,0.00134877,10,0.000638196,-1.74424,0.356067,0.165699,116.439,0.0354157,
2,1,0,1,0,32716.7,0.0381478,0.0377624,18.2942,17,0.00145774,10,0.000690832,-1.73769,0.364053,0.162064,115.736,0.0377624,
2,1,0,1,0,32716.7,0.0405449,0.0402214,18.5777,17,0.00156837,10,0.000747221,-1.73101,0.385854,0.152908,110.783,0.0402214,
2,1,0,1,0,32716.7,0.042942,0.0426127,18.8467,17,0.00168067,10,0.000803109,-1.72476,0.385653,0.152987,112.463,0.0426127,
2,1,0,1,0,32716.7,0.0453391,0.0450102,19.0883,17,0.0017945,10,0.000859171,-1.71923,0.395798,0.149066,111.144,0.0450102,
2,1,0,1,0,32716.7,0.0477473,0.047394,19.3676,17,0.00190993,10,0.000917908,-1.71292,0.40354,0.146206,110.455,0.04739403,
2,1,0,1,0,32716.7,0.0501444,0.0498065,19.6352,17,0.00202697,10,0.000977959,-1.70696,0.416537,0.141644,108.453,0.04980645,
2,1,0,1,0,32716.7,0.0525415,0.0521934,19.8856,17,0.00214553,10,0.0010379,-1.70146,0.419894,0.140512,109.063,0.0521934,
2,1,0,1,0,32716.7,0.0549469,0.0546324,20.1497,17,0.00226566,10,0.00110082,-1.69573,0.42412,0.139112,109.37,0.0546324,
2,1,0,1,0,32716.8,0.057344,0.0569865,20.4119,17,0.0023874,10,0.0011632,-1.69012,0.431954,0.136589,108.801,0.0569865,
2,1,0,1,0,32716.8,0.0597411,0.0593968,20.6673,17,0.00251068,10,0.00122757,-1.68472,0.443592,0.133005,107.322,0.0593968,
2,1,0,1,0,32716.8,0.0621438,0.0617837,20.9348,17,0.00263552,10,0.00129343,-1.67913,0.436142,0.135277,110.555,0.0617837,
2,1,0,1,0,32716.8,0.0645465,0.064211,21.206,17,0.00276197,10,0.00136166,-1.67354,0.436952,0.135026,111.738,0.064211,
2,1,0,1,0,32716.8,0.0669436,0.0665694,21.4837,17,0.00289007,10,0.00143016,-1.66789,0.443132,0.133143,111.57,0.0665694,
2,1,0,1,0,32716.8,0.0693407,0.0689987,21.7403,17,0.00301977,10,0.00150005,-1.66273,0.438774,0.134466,114.182,0.0689987,
2,1,0,1,0,32716.8,0.0717489,0.0713762,22.0252,17,0.00315108,10,0.00157208,-1.65708,0.427878,0.13789,118.572,0.0713762,
2,1,0,1,0,32716.8,0.074146,0.0738077,22.3159,17,0.00328413,10,0.00164708,-1.65139,0.438896,0.134428,116.976,0.0738077,
2,1,0,1,0,32716.8,0.0765431,0.0761978,22.5857,17,0.00341887,10,0.00172098,-1.64617,0.446723,0.132073,116.429,0.0761978,
2,1,0,1,0,32716.8,0.0789485,0.0786294,22.8629,17,0.00355522,10,0.0017977,-1.64087,0.456254,0.129314,115.384,0.07862936,
2,1,0,1,0,32716.8,0.0813456,0.08101,23.1428,17,0.00369329,10,0.00187479,-1.63558,0.463969,0.127164,114.784,0.08101,
2,1,0,1,0,32716.8,0.0837427,0.0833969,23.4142,17,0.00383301,10,0.00195267,-1.63052,0.471759,0.125064,114.274,0.0833969,
2,1,0,1,0,32716.8,0.0861398,0.0857712,23.6819,17,0.00397433,10,0.00203123,-1.62558,0.486999,0.12115,111.982,0.0857712,
2,1,0,1,0,32716.8,0.088548,0.0881518,23.957,17,0.00411729,10,0.00211185,-1.62057,0.473409,0.124628,116.559,0.0881518,
2,1,0,1,0,32716.8,0.0909451,0.0905632,24.2481,17,0.0042619,10,0.00219599,-1.61532,0.480883,0.122691,116.079,0.0905632,
2,1,0,1,0,32716.8,0.0933422,0.0929883,24.526,17,0.00440825,10,0.00228063,-1.61037,0.468913,0.125823,120.457,0.0929883,
2,1,0,1,0,32716.8,0.0957476,0.0954071,24.8254,17,0.0045563,10,0.00236852,-1.6051,0.485316,0.12157,117.732,0.0954071,
2,1,0,1,0,32716.9,0.0981447,0.097792,25.099,17,0.00470611,10,0.00245448,-1.60034,0.505835,0.116639,114.16,0.097792,
2,1,0,1,0,32716.9,0.100542,0.100202,25.3686,17,0.00485756,10,0.00254199,-1.5957,0.517539,0.114001,112.888,0.100202,
2,1,0,1,0,32716.9,0.102939,0.102563,25.6262,17,0.00501055,10,0.00262829,-1.59132,0.513432,0.114913,115.017,0.102563,
2,1,0,1,0,32716.9,0.105347,0.105006,25.9248,17,0.00516528,10,0.00272226,-1.58628,0.518079,0.113882,115.14,0.105006,
2,1,0,1,0,32716.9,0.107744,0.107396,26.1892,17,0.00532168,10,0.00281262,-1.58188,0.539043,0.109453,111.876,0.107396,
2,1,0,1,0,32716.9,0.110141,0.109817,26.4667,17,0.00547965,10,0.00290649,-1.5773,0.519859,0.113492,117.322,0.109817,
2,1,0,1,0,32716.9,0.11255,0.112221,26.772,17,0.00563937,10,0.00300437,-1.57232,0.498412,0.118376,123.623,0.112221,
2,1,0,1,0,32716.9,0.114947,0.114602,27.0594,17,0.00580088,10,0.00310105,-1.56768,0.500175,0.117959,124.599,0.114602,
2,1,0,1,0,32716.9,0.117344,0.117005,27.3613,17,0.00596414,10,0.00320142,-1.56286,0.483066,0.122136,130.52,0.117005,
2,1,0,1,0,32716.9,0.119744,0.119369,27.6856,17,0.0061293,10,0.0033048,-1.55775,0.468534,0.125925,136.087,0.119369,
2,1,0,1,0,32716.9,0.122146,0.1218,28.0158,17,0.00629646,10,0.00341232,-1.5526,0.459697,0.128345,140.341,0.1218,
2,1,0,1,0,32716.9,0.124543,0.124178,28.357,17,0.00646563,10,0.00352132,-1.54734,0.452369,0.130425,144.361,0.124178,
2,1,0,1,0,32716.9,0.126941,0.12658,28.7015,17,0.00663685,10,0.00363303,-1.5421,0.432466,0.136427,152.937,0.12658,
2,1,0,1,0,32716.9,0.129349,0.129012,29.0867,17,0.00681023,10,0.00375255,-1.53631,0.437519,0.134851,153.044,0.129012,
2,1,0,1,0,32716.9,0.131746,0.131392,29.4564,17,0.00698591,10,0.00387033,-1.53082,0.441984,0.133489,153.412,0.131392,
2,1,0,1,0,32716.9,0.134143,0.133778,29.8181,17,0.00716376,10,0.003989,-1.52552,0.432875,0.136298,158.722,0.133778,
2,1,0,1,0,32716.9,0.13654,0.136201,30.2131,17,0.00734388,10,0.00411505,-1.5198,0.431683,0.136674,161.145,0.136201,
2,1,0,1,0,32717,0.138945,0.138606,30.6134,17,0.0075264,10,0.0042432,-1.51409,0.444997,0.132585,158.25,0.138606,
2,1,0,1,0,32717,0.141343,0.140999,30.9654,17,0.00771116,10,0.0043661,-1.50912,0.453698,0.130042,157.205,0.140999,
2,1,0,1,0,32717,0.14374,0.143423,31.3536,17,0.00789815,10,0.00449684,-1.50371,0.462839,0.127474,155.917,0.143423,
2,1,0,1,0,32717,0.146148,0.145828,31.7246,17,0.00808745,10,0.00462635,-1.4986,0.487489,0.121028,149.712,0.145828,
2,1,0,1,0,32717,0.148545,0.148212,32.0677,17,0.00827887,10,0.00475282,-1.49393,0.524633,0.11246,140.715,0.148212,
2,1,0,1,0,32717,0.150942,0.150596,32.4023,17,0.00847231,10,0.00487965,-1.48942,0.533747,0.110539,139.768,0.150596,
2,1,0,1,0,32717,0.153345,0.153053,32.738,17,0.00866776,10,0.00501065,-1.48495,0.570323,0.10345,132.08,0.153053,
2,1,0,1,0,32717,0.155747,0.155399,33.0459,17,0.00886516,10,0.00513528,-1.48088,0.615025,0.095931,123.602,0.155399,
2,1,0,1,0,32717,0.158144,0.157781,33.3228,17,0.00906431,10,0.00525771,-1.47726,0.68316,0.0863634,112.257,0.157781,
2,1,0,1,0,32717,0.160542,0.160201,33.5865,17,0.00926505,10,0.0053806,-1.47384,0.764813,0.077143,101.037,0.160201,
2,1,0,1,0,32717,0.162947,0.162626,33.8285,17,0.00946735,10,0.00550141,-1.47072,0.888793,0.0663822,87.5015,0.162626,
2,1,0,1,0,32717,0.165344,0.165004,33.9992,17,0.00967088,10,0.00560999,-1.46853,1.13781,0.0518539,68.7559,0.1650037,
2,1,0,1,0,32717,0.167741,0.1674,34.1524,17,0.00987537,10,0.00571711,-1.46658,1.49123,0.0395646,52.6862,0.1674,
2,1,0,1,0,32717,0.170149,0.169802,34.2721,17,0.0100807,10,0.00581948,-1.46506,2.77327,0.0212746,28.3908,0.169802,
2,1,0,1,0,32717,0.172547,0.172247,34.2853,17,0.0102864,10,0.00590556,-1.46489,95.0762,0.000620555,0.8291,0.172247,
2,1,0,1,0,32717,0.174944,0.174566,34.253,17,0.010492,10,0.00597942,-1.4653,-2.96565,-0.0198944,-26.5553,0.174566,
2,1,0,1,0,32717.1,0.177341,0.177027,34.1638,17,0.0106973,10,0.0060479,-1.46643,-1.36792,-0.0431311,-57.3825,0.177027,
2,1,0,1,0,32717.1,0.179746,0.179424,33.9855,17,0.0109018,10,0.00609782,-1.46871,-0.849254,-0.0694727,-91.9394,0.179424,
2,1,0,1,0,32717.1,0.182143,0.181848,33.736,17,0.011105,10,0.00613484,-1.47191,-0.63184,-0.0933781,-122.669,0.181848,
2,1,0,1,0,32717.1,0.18454,0.184221,33.3937,17,0.0113063,10,0.00615183,-1.47634,-0.504165,-0.117025,-152.209,0.184221,
2,1,0,1,0,32717.1,0.186949,0.186624,32.9955,17,0.0115055,10,0.00615777,-1.48154,-0.406378,-0.145185,-186.506,0.186624,
2,1,0,1,0,32717.1,0.189346,0.188975,32.5017,17,0.0117019,10,0.00614202,-1.48809,-0.344912,-0.171058,-216.516,0.188975,
2,1,0,1,0,32717.1,0.191743,0.191419,31.9364,17,0.0118952,10,0.00611324,-1.49571,-0.30927,-0.190772,-237.478,0.191419,
2,1,0,1,0,32717.1,0.19414,0.193791,31.3345,17,0.012085,10,0.00607232,-1.50398,-0.27057,-0.218058,-266.109,0.193791,
2,1,0,1,0,32717.1,0.196548,0.196233,30.6672,17,0.012271,10,0.00601791,-1.51333,-0.244865,-0.240949,-287.852,0.196233,
2,1,0,1,0,32717.1,0.198945,0.1986,29.9395,17,0.0124528,10,0.00594597,-1.52376,-0.226168,-0.260868,-304.559,0.1986,
2,1,0,1,0,32717.1,0.201342,0.201027,29.2072,17,0.0126302,10,0.00587142,-1.53451,-0.213879,-0.275857,-314.04,0.201027,
2,1,0,1,0,32717.1,0.203748,0.203401,28.4391,17,0.0128031,10,0.00578454,-1.54608,-0.205783,-0.28671,-318.024,0.203401,
2,1,0,1,0,32717.1,0.206145,0.205817,27.6622,17,0.0129713,10,0.00569334,-1.55811,-0.200165,-0.294757,-318.279,0.205817,
2,1,0,1,0,32717.1,0.208542,0.208242,26.9061,17,0.0131349,10,0.00560298,-1.57015,-0.196894,-0.299654,-314.533,0.208242,
2,1,0,1,0,32717.1,0.210939,0.210604,26.142,17,0.013294,10,0.00550563,-1.58266,-0.191521,-0.30806,-314.394,0.210604,
2,1,0,1,0,32717.1,0.213347,0.213023,25.4032,17,0.0134486,10,0.00541147,-1.59511,-0.193187,-0.305404,-302.879,0.213023,
2,1,0,1,0,32717.1,0.215744,0.215391,24.6902,17,0.0135988,10,0.00531805,-1.60747,-0.19383,-0.30439,-293.511,0.215391,
2,1,0,1,0,32717.2,0.218141,0.217817,24.0076,17,0.0137448,10,0.00522927,-1.61965,-0.198515,-0.297207,-278.716,0.217817,
2,1,0,1,0,32717.2,0.220547,0.220277,23.3697,17,0.0138868,10,0.00514782,-1.63135,-0.203835,-0.28945,-264.139,0.2202774,
2,1,0,1,0,32717.2,0.222944,0.222621,22.7447,17,0.0140251,10,0.00506345,-1.64312,-0.209171,-0.282066,-250.703,0.222621,
2,1,0,1,0,32717.2,0.225341,0.224996,22.1709,17,0.0141598,10,0.00498838,-1.65422,-0.220711,-0.267318,-231.634,0.224996,
2,1,0,1,0,32717.2,0.227744,0.227394,21.6365,17,0.0142911,10,0.00492,-1.66481,-0.226889,-0.260039,-219.783,0.227394,
2,1,0,1,0,32717.2,0.230146,0.229816,21.1314,17,0.0144194,10,0.00485633,-1.67507,-0.242259,-0.243541,-201.088,0.229816,
2,1,0,1,0,32717.2,0.232543,0.232218,20.6647,17,0.0145447,10,0.00479871,-1.68477,-0.249222,-0.236736,-191.058,0.232218,
2,1,0,1,0,32717.2,0.234941,0.234661,20.2336,17,0.0146673,10,0.00474803,-1.69393,-0.266435,-0.221442,-174.97,0.234661,
2,1,0,1,0,32717.2,0.237349,0.237043,19.8178,17,0.0147874,10,0.00469768,-1.70294,-0.278012,-0.212221,-164.352,0.237043,
2,1,0,1,0,32717.2,0.239746,0.239456,19.4418,17,0.0149051,10,0.00465546,-1.71126,-0.293318,-0.201147,-152.756,0.239456,
2,1,0,1,0,32717.2,0.242143,0.24181,19.0876,17,0.0150207,10,0.00461558,-1.71925,-0.312291,-0.188926,-140.891,0.24181,
2,1,0,1,0,32717.2,0.244548,0.244211,18.7589,17,0.0151341,10,0.00458113,-1.72679,-0.322248,-0.183089,-134.217,0.244211,
2,1,0,1,0,32717.2,0.246946,0.246642,18.4576,17,0.0152458,10,0.00455244,-1.73382,-0.349473,-0.168826,-121.699,0.246642,
2,1,0,1,0,32717.2,0.249343,0.249042,18.1692,17,0.0153556,10,0.0045249,-1.74066,-0.360744,-0.163551,-116.11,0.249042,
2,1,0,1,0,32717.2,0.25174,0.251409,17.9039,17,0.0154639,10,0.00450119,-1.74705,-0.383331,-0.153914,-107.621,0.251409,
2,1,0,1,0,32717.2,0.254148,0.253788,17.6667,17,0.0155705,10,0.00448361,-1.75284,-0.408802,-0.144324,-99.5391,0.253788,
2,1,0,1,0,32717.2,0.256545,0.256219,17.4296,17,0.0156758,10,0.00446579,-1.75871,-0.427071,-0.13815,-94.0267,0.256219,
2,1,0,1,0,32717.3,0.258942,0.258624,17.2169,17,0.0157797,10,0.00445269,-1.76405,-0.446078,-0.132264,-88.8764,0.258624,
2,1,0,1,0,32717.3,0.261348,0.26101,17.0065,17,0.0158823,10,0.00443886,-1.76938,-0.480968,-0.122669,-81.5065,0.26101,
2,1,0,1,0,32717.3,0.263745,0.263448,16.8166,17,0.0159837,10,0.00443031,-1.77426,-0.513846,-0.11482,-75.4002,0.263448,
2,1,0,1,0,32717.3,0.266142,0.265828,16.6451,17,0.0160841,10,0.00442473,-1.77871,-0.525613,-0.11225,-72.8987,0.265828,
2,1,0,1,0,32717.3,0.268539,0.26826,16.455,17,0.0161834,10,0.00441421,-1.7837,-0.549574,-0.107356,-69.0376,0.26826,
2,1,0,1,0,32717.3,0.270947,0.270605,16.3008,17,0.0162816,10,0.00441109,-1.78779,-0.590782,-0.0998677,-63.5674,0.270605,
2,1,0,1,0,32717.3,0.273344,0.273038,16.154,17,0.016379,10,0.00441066,-1.79172,-0.587718,-0.100388,-63.2827,0.273038,
2,1,0,1,0,32717.3,0.275741,0.275422,16.0057,17,0.0164755,10,0.00440833,-1.79572,-0.618843,-0.0953392,-59.6066,0.275422,
2,1,0,1,0,32717.3,0.278149,0.277904,15.8753,17,0.0165711,10,0.00441181,-1.79928,-0.662123,-0.0891073,-55.2181,0.277904,
2,1,0,1,0,32717.3,0.280547,0.280227,15.7409,17,0.0166659,10,0.00441104,-1.80297,-0.668156,-0.0883027,-54.2508,0.280227,
2,1,0,1,0,32717.3,0.282944,0.282619,15.6186,17,0.01676,10,0.00441412,-1.80636,-0.711529,-0.08292,-50.5651,0.2826187,
2,1,0,1,0,32717.3,0.285344,0.285058,15.4936,17,0.0168533,10,0.00441658,-1.80985,-0.716405,-0.0823557,-49.8189,0.285058,
2,1,0,1,0,32717.3,0.287746,0.287421,15.3809,17,0.0169459,10,0.0044208,-1.81302,-0.760019,-0.0776296,-46.6055,0.287421,
2,1,0,1,0,32717.3,0.290143,0.289817,15.2758,17,0.0170379,10,0.00442717,-1.816,-0.757993,-0.0778372,-46.361,0.289817,
2,1,0,1,0,32717.3,0.29254,0.292266,15.156,17,0.0171292,10,0.0044296,-1.81941,-0.808956,-0.0729336,-43.1729,0.292266,
2,1,0,1,0,32717.3,0.294949,0.29466,15.0573,17,0.0172198,10,0.00443677,-1.82225,-0.875054,-0.0674244,-39.6522,0.29466,
2,1,0,1,0,32717.4,0.297346,0.297033,14.9699,17,0.0173099,10,0.00444655,-1.82478,-0.877417,-0.0672428,-39.3028,0.2970328,
2,1,0,1,0,32717.4,0.299621,0.299266,14.8626,17,0.0173949,10,0.00444786,-1.82791,-0.0722067,-0.817099,-456.016,0.299266,
2,1,0,1,0,32717.4,0.299962,0.299746,14.7329,17,0.0174127,10,0.00441613,-1.83171,0.00964763,6.11549,2896.89,0.299746,
2,1,0,1,0,32717.4,0.297903,0.297688,10.8335,17,0.0174761,10,0.003225,-1.96523,0.016555,3.56387,1459.86,0.297688,
2,1,0,1,0,32717.4,0.295506,0.295192,7.88977,17,0.0175316,10,0.002329,-2.10294,0.0167407,3.52435,1102.55,0.295192,
2,1,0,1,0,32717.4,0.293101,0.29282,5.63588,17,0.0175717,10,0.0016503,-2.24904,0.0149114,3.9567,860.006,0.2928198,
2,1,0,1,0,32717.4,0.290704,0.290385,3.80142,17,0.0175996,10,0.00110388,-2.42005,0.0118515,4.97829,704.543,0.290385,
2,1,0,1,0,32717.4,0.288307,0.288019,2.28512,17,0.0176176,10,0.00065816,-2.64109,0.00749775,7.86903,585.824,0.288019,
2,1,0,1,0,32717.4,0.28591,0.285611,1.0037,17,0.0176272,10,0.000286667,-2.9984,0.0080996,7.28431,498.097,0.285611,
2,1,0,1,0,32717.4,0.283501,0.283165,-0.112963,17,0.0176297,10,-3.19871e-05,-3.94706,0.336273,0.175453,428.975,0.2831648,
2,0,0,1,0,32717.4,0.281104,0.280818,-1.06514,17,0.017626,10,-0.00029911,-2.97259,-0.00674219,-8.75086,370.415,0.2808181,
2,0,0,1,0,32717.4,0.278707,0.278391,-1.88212,17,0.0176171,10,-0.000523965,-2.72535,-0.0112688,-5.23568,323.586,0.278391,
2,0,0,1,0,32717.4,0.276302,0.275968,-2.62024,17,0.0176034,10,-0.000723101,-2.58166,-0.0194125,-3.03928,287.498,0.275968,
2,0,0,1,0,32717.4,0.273905,0.273565,-3.26411,17,0.0175857,10,-0.000892947,-2.48623,-0.0282206,-2.09067,255.281,0.273565,
2,0,0,1,0,32717.4,0.271508,0.271184,-3.83244,17,0.0175643,10,-0.0010393,-2.41652,-0.0381389,-1.54698,226.186,0.271184,
2,0,0,1,0,32717.4,0.269105,0.268795,-4.35226,17,0.0175397,10,-0.00116987,-2.36129,-0.048326,-1.22088,203.615,0.268795,
2,0,0,1,0,32717.4,0.266702,0.266398,-4.81652,17,0.0175121,10,-0.00128311,-2.31727,-0.0592516,-0.995754,184.322,0.266398,
2,0,0,1,0,32717.4,0.264305,0.263987,-5.23779,17,0.0174819,10,-0.00138271,-2.28085,-0.0720184,-0.819235,165.619,0.263987,
2,0,0,1,0,32717.5,0.261908,0.261598,-5.61036,17,0.0174493,10,-0.00146766,-2.25101,-0.0829671,-0.711125,154.899,0.261598,
2,0,0,1,0,32717.5,0.2595,0.259192,-5.97149,17,0.0174145,10,-0.00154776,-2.22392,-0.0961462,-0.613648,142.031,0.2591922,
2,0,0,1,0,32717.5,0.257103,0.25679,-6.30473,17,0.0173776,10,-0.00161899,-2.20033,-0.112293,-0.52541,128.375,0.25679,
2,0,0,1,0,32717.5,0.254706,0.254372,-6.58657,17,0.0173389,10,-0.00167544,-2.18134,-0.124626,-0.473416,121.394,0.254372,
2,0,0,1,0,32717.5,0.2523,0.251998,-6.87317,17,0.0172986,10,-0.00173203,-2.16284,-0.13884,-0.42495,113.592,0.251998,
2,0,0,1,0,32717.5,0.249903,0.249586,-7.13214,17,0.0172565,10,-0.00178008,-2.14678,-0.157042,-0.375697,104.043,0.249586,
2,0,0,1,0,32717.5,0.247506,0.247201,-7.35295,17,0.017213,10,-0.00181766,-2.13354,-0.174111,-0.338864,97.3078,0.247201,
2,0,0,1,0,32717.5,0.245109,0.244789,-7.588,17,0.0171681,10,-0.00185746,-2.11987,-0.18591,-0.317359,93.8193,0.244789,
2,0,0,1,0,32717.5,0.242701,0.242377,-7.81782,17,0.0171218,10,-0.00189486,-2.10691,-0.20809,-0.283531,86.1747,0.242377,
2,0,0,1,0,32717.5,0.240304,0.240003,-8.00721,17,0.0170743,10,-0.00192176,-2.09652,-0.234212,-0.251909,78.6922,0.240003,
2,0,0,1,0,32717.5,0.237906,0.237561,-8.20354,17,0.0170257,10,-0.00194884,-2.086,-0.241691,-0.244113,78.094,0.237561,
2,0,0,1,0,32717.5,0.235501,0.235193,-8.39102,17,0.0169759,10,-0.00197351,-2.07619,-0.254578,-0.231756,75.7459,0.235193,
2,0,0,1,0,32717.5,0.233104,0.232772,-8.56494,17,0.016925,10,-0.00199368,-2.06728,-0.272812,-0.216266,72.1695,0.232772,
2,0,0,1,0,32717.5,0.230707,0.230387,-8.72579,17,0.0168732,10,-0.00201031,-2.0592,-0.290594,-0.203032,69.1571,0.230387,
2,0,0,1,0,32717.5,0.22831,0.228008,-8.88314,17,0.0168203,10,-0.00202542,-2.05143,-0.304192,-0.193957,67.2728,0.228008,
2,0,0,1,0,32717.5,0.225902,0.225606,-9.05289,17,0.0167665,10,-0.00204238,-2.04321,-0.325299,-0.181371,63.9167,0.225606,
2,0,0,1,0,32717.5,0.223504,0.223192,-9.19497,17,0.0167117,10,-0.00205225,-2.03645,-0.34988,-0.168629,60.4737,0.223192,
2,0,0,1,0,32717.6,0.221107,0.220809,-9.32769,17,0.0166561,10,-0.00205963,-2.03023,-0.35418,-0.166582,60.7469,0.220809,
2,0,0,1,0,32717.6,0.218699,0.218357,-9.49998,17,0.0165996,10,-0.00207439,-2.02228,-0.368059,-0.160301,59.2523,0.218357,
2,0,0,1,0,32717.6,0.216302,0.215987,-9.62136,17,0.0165422,10,-0.00207809,-2.01676,-0.4042,-0.145968,54.8118,0.215987,
2,0,0,1,0,32717.6,0.213905,0.213586,-9.74991,17,0.0164841,10,-0.00208245,-2.011,-0.405858,-0.145371,55.4117,0.213586,
2,0,0,1,0,32717.6,0.211505,0.21119,-9.89103,17,0.0164252,10,-0.00208889,-2.00476,-0.409587,-0.144048,55.5573,0.21119,
2,0,0,1,0,32717.6,0.209102,0.208765,-10.0231,17,0.0163654,10,-0.00209246,-1.999,-0.427808,-0.137912,53.9348,0.208765,
2,0,0,1,0,32717.6,0.206705,0.206349,-10.1578,17,0.0163049,10,-0.00209605,-1.9932,-0.451503,-0.130675,51.751,0.206349,
2,0,0,1,0,32717.6,0.204308,0.203972,-10.281,17,0.0162435,10,-0.00209704,-1.98796,-0.426324,-0.138392,55.5172,0.203972,
2,0,0,1,0,32717.6,0.2019,0.201598,-10.4109,17,0.0161815,10,-0.00209882,-1.98251,-0.471704,-0.125078,50.7704,0.201598,
2,0,0,1,0,32717.6,0.199503,0.19919,-10.5314,17,0.0161186,10,-0.00209775,-1.97751,-0.479272,-0.123103,50.5741,0.19919,
2,0,0,1,0,32717.6,0.197106,0.196797,-10.6391,17,0.0160551,10,-0.00209375,-1.97309,-0.454537,-0.129802,54.0038,0.196797,
2,0,0,1,0,32717.6,0.194709,0.19441,-10.776,17,0.0159908,10,-0.00209496,-1.96754,-0.477579,-0.12354,51.9533,0.19441,
2,0,0,1,0,32717.6,0.192303,0.191952,-10.9116,17,0.0159257,10,-0.0020945,-1.96211,-0.489498,-0.120532,51.2647,0.191952,
2,0,0,1,0,32717.6,0.189906,0.189554,-11.0192,17,0.0158599,10,-0.00208874,-1.95785,-0.502289,-0.117462,50.5833,0.189554,
2,0,0,1,0,32717.6,0.187509,0.187159,-11.1492,17,0.0157934,10,-0.00208667,-1.95276,-0.475327,-0.124125,54.0286,0.187159,
2,0,0,1,0,32717.6,0.185101,0.184787,-11.294,17,0.015726,10,-0.00208699,-1.94715,-0.48654,-0.121264,53.3829,0.184787,
2,0,0,1,0,32717.7,0.182704,0.182347,-11.4083,17,0.0156579,10,-0.00208026,-1.94278,-0.491574,-0.120023,53.5132,0.182347,
2,0,0,1,0,32717.7,0.180307,0.179969,-11.5475,17,0.0155891,10,-0.0020782,-1.93751,-0.449851,-0.131155,59.1108,0.179969,
2,0,0,1,0,32717.7,0.177904,0.177576,-11.6898,17,0.0155193,10,-0.00207583,-1.93219,-0.459718,-0.12834,58.5393,0.1775759,
2,0,0,1,0,32717.7,0.175501,0.175147,-11.8275,17,0.0154488,10,-0.00207154,-1.92711,-0.444528,-0.132725,61.2984,0.175147,
2,0,0,1,0,32717.7,0.173104,0.172786,-11.9712,17,0.0153774,10,-0.00206846,-1.92186,-0.440384,-0.133974,62.6542,0.172786,
2,0,0,1,0,32717.7,0.170707,0.170366,-12.1277,17,0.0153051,10,-0.00206615,-1.91622,-0.416436,-0.141678,67.0836,0.170366,
2,0,0,1,0,32717.7,0.168302,0.16792,-12.2989,17,0.0152317,10,-0.00206523,-1.91013,-0.423018,-0.139474,66.9277,0.16792,
2,0,0,1,0,32717.7,0.165905,0.165526,-12.4637,17,0.0151575,10,-0.00206307,-1.90435,-0.401322,-0.147014,71.5805,0.165526,
2,0,0,1,0,32717.7,0.163507,0.163185,-12.6423,17,0.0150821,10,-0.00206303,-1.89818,-0.364785,-0.161739,79.8982,0.163185,
2,0,0,1,0,32717.7,0.161099,0.160781,-12.8595,17,0.0150057,10,-0.00206757,-1.89077,-0.35073,-0.168221,84.3451,0.160781,
2,0,0,1,0,32717.7,0.158702,0.158404,-13.0431,17,0.0149279,10,-0.00206608,-1.88462,-0.322688,-0.182839,93.2362,0.158404,
2,0,0,1,0,32717.7,0.156305,0.155974,-13.2699,17,0.014849,10,-0.00206977,-1.87713,-0.304203,-0.19395,100.693,0.155974,
2,0,0,1,0,32717.7,0.153908,0.153591,-13.5263,17,0.0147686,10,-0.00207752,-1.86882,-0.286443,-0.205975,108.773,0.153591,
2,0,0,1,0,32717.7,0.151503,0.151144,-13.7871,17,0.0146866,10,-0.00208384,-1.86053,-0.27332,-0.215864,116.351,0.151144,
2,0,0,1,0,32717.7,0.149105,0.148806,-14.0789,17,0.0146029,10,-0.00209503,-1.85143,-0.253982,-0.2323,127.926,0.148806,
2,0,0,1,0,32717.7,0.146708,0.14638,-14.4151,17,0.0145174,10,-0.00211008,-1.84118,-0.231696,-0.254644,143.434,0.14638,
2,0,0,1,0,32717.7,0.1443,0.143991,-14.7721,17,0.0144299,10,-0.00212705,-1.83056,-0.216653,-0.272325,157.256,0.143991,
2,0,0,1,0,32717.8,0.141903,0.141608,-15.1664,17,0.01434,10,-0.00214768,-1.81912,-0.203682,-0.289667,171.784,0.141608,
2,0,0,1,0,32717.8,0.139506,0.139231,-15.5981,17,0.0142477,10,-0.00217173,-1.80693,-0.187827,-0.314119,191.765,0.139231,
2,0,0,1,0,32717.8,0.137109,0.136786,-16.0867,17,0.0141526,10,-0.00220044,-1.79353,-0.176686,-0.333926,210.005,0.136786,
2,0,0,1,0,32717.8,0.134701,0.134372,-16.6122,17,0.0140545,10,-0.00223221,-1.77957,-0.16768,-0.35186,228.472,0.134372,
2,0,0,1,0,32717.8,0.132303,0.131991,-17.1749,17,0.0139531,10,-0.00226694,-1.76511,-0.160848,-0.366805,246.465,0.131991,
2,0,0,1,0,32717.8,0.129906,0.129594,-17.7959,17,0.0138481,10,-0.00230623,-1.74968,-0.155987,-0.378238,262.91,0.129594,
2,0,0,1,0,32717.8,0.127501,0.127235,-18.4437,17,0.0137393,10,-0.00234669,-1.73415,-0.154125,-0.382805,275.796,0.1272352,
2,0,0,1,0,32717.8,0.125104,0.12477,-19.1191,17,0.0136266,10,-0.00238549,-1.71853,-0.153433,-0.384532,287.245,0.12477,
2,0,0,1,0,32717.8,0.122707,0.122402,-19.8352,17,0.0135096,10,-0.00242786,-1.70256,-0.154877,-0.380948,294.732,0.122402,
2,0,0,1,0,32717.8,0.12031,0.119974,-20.5245,17,0.0133884,10,-0.0024624,-1.68773,-0.156881,-0.376082,301.537,0.119974,
2,0,0,1,0,32717.8,0.117901,0.117597,-21.2711,17,0.013263,10,-0.00250142,-1.67221,-0.160521,-0.367553,305.031,0.117597,
2,0,0,1,0,32717.8,0.115504,0.11522,-22.0121,17,0.013133,10,-0.00253623,-1.65734,-0.167477,-0.352288,301.996,0.11522,
2,0,0,1,0,32717.8,0.113107,0.112761,-22.7221,17,0.0129988,10,-0.00256216,-1.64355,-0.179677,-0.328367,290.655,0.112761,
2,0,0,1,0,32717.8,0.110702,0.110425,-23.3727,17,0.0128604,10,-0.00258092,-1.63129,-0.18495,-0.319005,291.192,0.1104246,
2,0,0,1,0,32717.8,0.108305,0.108029,-24.1,17,0.0127179,10,-0.0026035,-1.61798,-0.188283,-0.313358,294.504,0.108029,
2,0,0,1,0,32717.8,0.105908,0.105635,-24.7961,17,0.0125712,10,-0.00261933,-1.60562,-0.200884,-0.293702,283.73,0.105635,
2,0,0,1,0,32717.8,0.103505,0.10324,-25.4663,17,0.0124203,10,-0.00262914,-1.59403,-0.21463,-0.274892,272.783,0.10324,
2,0,0,1,0,32717.9,0.101102,0.100829,-26.0881,17,0.0122656,10,-0.00263043,-1.58356,-0.230506,-0.255958,260.427,0.100829,
2,0,0,1,0,32717.9,0.0987052,0.0983922,-26.7171,17,0.0121071,10,-0.00262875,-1.57321,-0.247486,-0.238397,248.17,0.0983922,
2,0,0,1,0,32717.9,0.0963081,0.0959946,-27.293,17,0.0119449,10,-0.00261998,-1.56395,-0.269301,-0.219086,233.041,0.0959946,
2,0,0,1,0,32717.9,0.0938999,0.0935928,-27.8377,17,0.0117795,10,-0.00260541,-1.55537,-0.286147,-0.206188,223.826,0.0935928,
2,0,0,1,0,32717.9,0.0915028,0.0911994,-28.3679,17,0.0116108,10,-0.00258714,-1.54717,-0.316809,-0.186232,205.865,0.0911994,
2,0,0,1,0,32717.9,0.0891057,0.0887753,-28.8552,17,0.0114391,10,-0.00256163,-1.53978,-0.345554,-0.17074,191.951,0.0887753,
2,0,0,1,0,32717.9,0.0867002,0.0864414,-29.289,17,0.0112647,10,-0.00253178,-1.5333,-0.373622,-0.157914,180.358,0.0864414,
2,0,0,1,0,32717.9,0.0843031,0.08403,-29.7096,17,0.0110876,10,-0.0024965,-1.5271,-0.408789,-0.144329,167.099,0.08403001,
2,0,0,1,0,32717.9,0.081906,0.0816346,-30.0843,17,0.0109082,10,-0.00245592,-1.52166,-0.456493,-0.129246,151.62,0.0816346,
2,0,0,1,0,32717.9,0.0795089,0.0791903,-30.4253,17,0.0107266,10,-0.00240939,-1.51677,-0.525327,-0.112311,133.229,0.0791903,
2,0,0,1,0,32717.9,0.0771007,0.0767927,-30.7353,17,0.010543,10,-0.00236025,-1.51236,-0.607619,-0.0971004,116.289,0.0767927,
2,0,0,1,0,32717.9,0.0747036,0.0743983,-30.989,17,0.0103578,10,-0.00230553,-1.50879,-0.746767,-0.0790072,95.4304,0.0743983,
2,0,0,1,0,32717.9,0.0723065,0.0720082,-31.1922,17,0.0101712,10,-0.00224609,-1.50595,-0.929726,-0.0634595,77.1643,0.0720082,
2,0,0,1,0,32717.9,0.0699011,0.0695788,-31.3706,17,0.00998348,10,-0.00218273,-1.50348,-1.13622,-0.0519267,63.4971,0.0695788,
2,0,0,1,0,32717.9,0.067504,0.0671706,-31.4999,17,0.00979488,10,-0.00211587,-1.50169,-1.50152,-0.0392936,48.2482,0.0671706,
2,0,0,1,0,32717.9,0.0651069,0.0647953,-31.602,17,0.00960556,10,-0.00204766,-1.50029,-2.19193,-0.0269169,33.1514,0.0647953,
2,0,0,1,0,32718,0.0627098,0.0624041,-31.6392,17,0.00941581,10,-0.00197441,-1.49977,-3.89806,-0.0151357,18.6836,0.0624041,
2,0,0,1,0,32718,0.0603016,0.0599927,-31.6888,17,0.0092258,10,-0.0019011,-1.49909,-7.84965,-0.00751626,9.28783,0.0599927,
2,0,0,1,0,32718,0.0579045,0.0575877,-31.6968,17,0.00903564,10,-0.00182535,-1.49898,29.3245,0.00201197,-2.48642,0.0575877,
2,0,0,1,0,32718,0.0555074,0.0551827,-31.6617,17,0.00884555,10,-0.00174718,-1.49947,7.61201,0.00775091,-9.57812,0.05518271,
2,0,0,1,0,32718,0.0530992,0.052783,-31.6445,17,0.00865565,10,-0.00167029,-1.4997,4.33252,0.0136179,-16.8051,0.052783,
2,0,0,1,0,32718,0.0507021,0.0503451,-31.5968,17,0.00846592,10,-0.00159074,-1.50036,3.04094,0.0194019,-23.9048,0.0503451,
2,0,0,1,0,32718,0.048305,0.0479666,-31.5218,17,0.00827658,10,-0.00151199,-1.50139,2.49291,0.0236671,-29.1165,0.0479666,
2,0,0,1,0,32718,0.0459051,0.0455818,-31.446,17,0.00808771,10,-0.00143337,-1.50243,2.15495,0.0273789,-33.5982,0.0455818,
2,0,0,1,0,32718,0.0435024,0.0432054,-31.3648,17,0.00789923,10,-0.00135513,-1.50356,2.16163,0.0272942,-33.4043,0.0432054,
2,0,0,1,0,32718,0.0411053,0.0407824,-31.2791,17,0.0077113,10,-0.00127564,-1.50475,1.7773,0.0331964,-40.5185,0.0407824,
2,0,0,1,0,32718,0.0387082,0.0383859,-31.1785,17,0.00752392,10,-0.00119681,-1.50614,1.78429,0.0330664,-40.2322,0.0383859,
2,0,0,1,0,32718,0.0363,0.035983,-31.0858,17,0.00733716,10,-0.00111856,-1.50744,1.7338,0.0340293,-41.2744,0.035983,
2,0,0,1,0,32718,0.0339029,0.0335865,-30.9829,17,0.00715098,10,-0.00104061,-1.50888,1.5351,0.038434,-46.4386,0.0335865,
2,0,0,1,0,32718,0.0315058,0.0311751,-30.8609,17,0.00696545,10,-0.000962091,-1.51059,1.4869,0.0396798,-47.7945,0.0311751,
2,0,0,1,0,32718,0.0291087,0.0287669,-30.7368,17,0.00678069,10,-0.000884202,-1.51234,1.44633,0.0407929,-48.9553,0.0287669,
2,0,0,1,0,32718,0.0267033,0.0263545,-30.6395,17,0.00659654,10,-0.000807489,-1.51372,1.36884,0.0431021,-51.493,0.0263545,
2,0,0,1,0,32718,0.0243062,0.0239696,-30.496,17,0.00641311,10,-0.000730977,-1.51576,1.21651,0.0484994,-57.7204,0.02396965,
2,0,0,1,0,32718.1,0.0219091,0.021623,-30.3614,17,0.00623057,10,-0.000656504,-1.51768,1.21927,0.0483897,-57.3645,0.021623,
2,0,0,1,0,32718.1,0.0195009,0.0191353,-30.2413,17,0.00604879,10,-0.000578675,-1.5194,1.17753,0.0501047,-59.0815,0.0191353,
2,0,0,1,0,32718.1,0.0171038,0.0167504,-30.0862,17,0.00586784,10,-0.000503956,-1.52163,1.02928,0.0573217,-67.2682,0.0167504,
2,0,0,1,0,32718.1,0.0147067,0.0143189,-29.916,17,0.00568787,10,-0.000428364,-1.5241,1.0389,0.0567909,-66.2968,0.01431889,
2,0,0,1,0,32718.1,0.012304,0.0119754,-29.7605,17,0.00550889,10,-0.000356394,-1.52636,0.977987,0.060328,-70.0321,0.0119754,
2,0,0,1,0,32718.1,0.00990136,0.00954918,-29.5823,17,0.0053309,10,-0.000282486,-1.52897,0.862977,0.068368,-78.8529,0.009549181,
2,0,0,1,0,32718.1,0.00750426,0.00716009,-29.3776,17,0.00515402,10,-0.000210346,-1.53198,0.809745,0.0728624,-83.5211,0.00716009,
2,0,0,1,0,32718.1,0.00510715,0.0048028,-29.1548,17,0.00497842,10,-0.000140025,-1.53529,0.858301,0.0687404,-78.328,0.0048028,
2,0,0,1,0,32718.1,0.00270173,0.00239674,-28.9675,17,0.00480403,10,-6.94276e-05,-1.53809,0.769154,0.0767076,-86.717,0.00239674,
2,0,0,1,0,32718.1,0.000304623,-7.71884e-05,-28.7754,17,0.00463067,10,2.22113e-06,-1.54098,0.700341,0.0842447,-94.4763,-7.71884e-05,
2,0,0,1,0,32718.1,-0.00209248,-0.00247795,-28.5187,17,0.00445882,10,7.06679e-05,-1.54487,0.640697,0.0920872,-102.549,-0.00247795,
2,0,0,1,0,32718.1,-0.00450068,-0.00488932,-28.2937,17,0.00428845,10,0.000138337,-1.54831,0.629259,0.0937611,-103.424,-0.00488932,
2,0,0,1,0,32718.1,-0.00689779,-0.00729114,-28.034,17,0.00411951,10,0.0002044,-1.55232,0.600695,0.0982195,-107.376,-0.00729114,
2,0,0,1,0,32718.1,-0.00929489,-0.00966009,-27.7574,17,0.00395221,10,0.000268139,-1.55662,0.597361,0.0987677,-107.033,-0.00966009,
2,0,0,1,0,32718.1,-0.011692,-0.0120704,-27.5003,17,0.00378646,10,0.00033194,-1.56066,0.604027,0.0976777,-104.848,-0.0120704,
2,0,0,1,0,32718.1,-0.0140974,-0.0144881,-27.2445,17,0.0036222,10,0.000394722,-1.56472,0.581682,0.10143,-107.839,-0.0144881,
2,0,0,1,0,32718.1,-0.0164945,-0.0168634,-26.9897,17,0.00345951,10,0.000455139,-1.5688,0.579468,0.101818,-107.301,-0.01686343,
2,0,0,1,0,32718.2,-0.0188916,-0.0192822,-26.7363,17,0.00329836,10,0.000515535,-1.5729,0.616737,0.0956648,-99.8731,-0.0192822,
2,0,0,1,0,32718.2,-0.0212998,-0.0217212,-26.5109,17,0.00313865,10,0.000575847,-1.57658,0.628467,0.0938792,-97.1295,-0.0217212,
2,0,0,1,0,32718.2,-0.0236969,-0.0240912,-26.281,17,0.0029803,10,0.000633139,-1.58036,0.638621,0.0923866,-94.7366,-0.0240912,
2,0,0,1,0,32718.2,-0.026094,-0.0264856,-26.0589,17,0.00282332,10,0.000690184,-1.58404,0.703064,0.0839183,-85.4216,-0.0264856,
2,0,0,1,0,32718.2,-0.0284912,-0.0288534,-25.8552,17,0.00266765,10,0.000746012,-1.58745,0.746027,0.0790856,-79.8568,-0.02885345,
2,0,0,1,0,32718.2,-0.0308994,-0.0313072,-25.6904,17,0.00251302,10,0.000804296,-1.59023,0.800322,0.0737203,-73.8755,-0.0313072,
2,0,0,1,0,32718.2,-0.0332965,-0.0336974,-25.4942,17,0.00235951,10,0.000859087,-1.59356,0.851146,0.0693183,-69.0518,-0.0336974,
2,0,0,1,0,32718.2,-0.0356936,-0.0360483,-25.3397,17,0.00220704,10,0.000913453,-1.5962,0.973219,0.0606235,-60.0123,-0.0360483,
2,0,0,1,0,32718.2,-0.038099,-0.0384438,-25.2209,17,0.00205536,10,0.000969586,-1.59824,1.05178,0.0560956,-55.1912,-0.0384438,
2,0,0,1,0,32718.2,-0.0404961,-0.0409198,-25.0748,17,0.0019045,10,0.00102606,-1.60076,1.12717,0.0523434,-51.2646,-0.0409198,
2,0,0,1,0,32718.2,-0.0428932,-0.0432644,-24.9608,17,0.0017544,10,0.00107991,-1.60274,1.45106,0.0406598,-39.6522,-0.0432644,
2,0,0,1,0,32718.2,-0.0452903,-0.0456832,-24.8715,17,0.0016049,10,0.00113621,-1.6043,1.59953,0.0368859,-35.8228,-0.0456832,
2,0,0,1,0,32718.2,-0.0476985,-0.0480776,-24.8,17,0.00145585,10,0.00119232,-1.60555,1.92542,0.0306427,-29.6716,-0.0480776,
2,0,0,1,0,32718.2,-0.0500956,-0.050419,-24.7334,17,0.00130727,10,0.00124703,-1.60672,2.14309,0.0275304,-26.591,-0.050419,
2,0,0,1,0,32718.2,-0.0524927,-0.0528335,-24.6788,17,0.00115903,10,0.00130387,-1.60768,3.25132,0.0181465,-17.4924,-0.0528335,
2,0,0,1,0,32718.2,-0.0548981,-0.0552894,-24.6565,17,0.00101106,10,0.00136325,-1.60807,3.86625,0.0152603,-14.6826,-0.0552894,
2,0,0,1,0,32718.3,-0.0572953,-0.0576902,-24.6174,17,0.00086325,10,0.00142018,-1.60876,6.07233,0.00971621,-9.3382,-0.0576902,
2,0,0,1,0,32718.3,-0.0596924,-0.0600231,-24.5952,17,0.000715657,10,0.00147628,-1.60915,88.7533,0.000664764,-0.638821,-0.0600231,
2,0,0,1,0,32718.3,-0.062095,-0.0624684,-24.6098,17,0.000568064,10,0.00153733,-1.60889,-13.5526,-0.0043534,4.17922,-0.0624684,
2,0,0,1,0,32718.3,-0.0644977,-0.0648893,-24.6114,17,0.000420368,10,0.00159702,-1.60886,-9.19991,-0.00641311,6.16097,-0.0648893,
2,0,0,1,0,32718.3,-0.0668948,-0.0672561,-24.6245,17,0.00027267,10,0.00165615,-1.60863,-6.09956,-0.00967283,9.3035,-0.0672561,
2,0,0,1,0,32718.3,-0.0692919,-0.0696622,-24.657,17,0.000124816,10,0.00171766,-1.60806,-3.82376,-0.0154298,14.8525,-0.0696622,
2,0,0,1,0,32718.3,-0.0717001,-0.0720608,-24.6986,17,-2.32959e-05,10,0.0017798,-1.60733,-3.22179,-0.0183128,17.6567,-0.0720608,
2,0,0,1,0,32718.3,-0.0740972,-0.0744647,-24.748,17,-0.000171616,10,0.00184286,-1.60646,-2.72988,-0.0216127,20.893,-0.0744647,
2,0,0,1,0,32718.3,-0.0764943,-0.0768634,-24.8069,17,-0.000320271,10,0.00190674,-1.60543,-2.03642,-0.0289724,28.0612,-0.0768634,
2,0,0,1,0,32718.3,-0.0788997,-0.0792928,-24.8806,17,-0.000469314,10,0.00197285,-1.60414,-1.98682,-0.0296957,28.8359,-0.0792928,
2,0,0,1,0,32718.3,-0.0812968,-0.0816713,-24.9497,17,-0.000618811,10,0.00203768,-1.60293,-1.73,-0.0341041,33.2061,-0.0816713,
2,0,0,1,0,32718.3,-0.0836939,-0.0840773,-25.0384,17,-0.000768753,10,0.00210516,-1.60139,-1.47097,-0.0401097,39.2017,-0.0840773,
2,0,0,1,0,32718.3,-0.086091,-0.0864431,-25.1216,17,-0.000919223,10,0.00217159,-1.59995,-1.3824,-0.0426794,41.8555,-0.0864431,
2,0,0,1,0,32718.3,-0.0884992,-0.0888969,-25.2305,17,-0.00107033,10,0.00224292,-1.59807,-1.31164,-0.0449819,44.2963,-0.0888969,
2,0,0,1,0,32718.3,-0.0908963,-0.0912732,-25.3228,17,-0.00122202,10,0.0023113,-1.59649,-1.30942,-0.0450582,44.5739,-0.0912732,
2,0,0,1,0,32718.3,-0.0932934,-0.0936719,-25.4587,17,-0.00137439,10,0.00238477,-1.59416,-1.15562,-0.0510547,50.7361,-0.0936719,
2,0,0,1,0,32718.3,-0.0956989,-0.0961002,-25.5898,17,-0.0015275,10,0.00245919,-1.59193,-1.12722,-0.0523412,52.256,-0.0961002,
2,0,0,1,0,32718.4,-0.098096,-0.0984639,-25.7038,17,-0.00168137,10,0.0025309,-1.59,-1.30106,-0.0453478,45.4116,-0.0984639,
2,0,0,0,0,32718.4,-0.0999548,-0.100381,-25.8065,17,-0.00180245,10,0.00259049,-1.58827,0.0249965,2.36033,-2213.46,-0.100381,
2,0,0,1,1,32718.4,-0.0994555,-0.0999272,-24.2544,17,-0.00184467,10,0.00242368,-1.61521,-0.0227049,-2.59855,2222.59,-0.0999272,
2,0,0,1,1,32718.4,-0.0970583,-0.0974703,-19.6527,17,-0.00197497,10,0.00191556,-1.70658,-0.0273405,-2.15797,1686.58,-0.0974703,
2,0,0,1,1,32718.4,-0.0946501,-0.0950631,-16.2493,17,-0.00208204,10,0.00154471,-1.78917,-0.0291013,-2.0274,1299.77,-0.0950631,
2,0,0,1,1,32718.4,-0.092253,-0.0926592,-13.4433,17,-0.00217065,10,0.00124564,-1.8715,-0.028421,-2.07593,1091.87,-0.0926592,
2,0,0,1,1,32718.4,-0.0898559,-0.0902807,-11.0023,17,-0.00224359,10,0.000993298,-1.95852,-0.0260932,-2.26112,963.881,-0.0902807,
2,0,0,1,1,32718.4,-0.0874588,-0.087846,-8.79476,17,-0.00230269,10,0.000772585,-2.05578,-0.0229028,-2.5761,874.147,-0.087846,
2,0,0,1,1,32718.4,-0.0850534,-0.0854845,-6.819,17,-0.00234921,10,0.000582919,-2.16628,-0.0196627,-3.0006,781.431,-0.0854845,
2,0,0,1,1,32718.4,-0.0826563,-0.0830614,-5.03581,17,-0.00238453,10,0.000418282,-2.29793,-0.0152733,-3.86294,722.489,-0.0830614,
2,0,0,1,1,32718.4,-0.0802592,-0.0806713,-3.37991,17,-0.00240956,10,0.000272661,-2.4711,-0.0104203,-5.662,665.493,-0.08067131,
2,0,0,1,1,32718.4,-0.077851,-0.078297,-1.84149,17,-0.002425,10,0.000144183,-2.73483,-0.00165134,-35.7285,609.316,-0.078297,
2,0,0,1,1,32718.4,-0.0754539,-0.0758645,-0.445643,17,-0.0024317,10,3.38085e-05,-3.35101,-0.0245421,-2.40403,566.991,-0.0758645,
2,1,0,1,1,32718.4,-0.0730568,-0.0734669,0.860696,17,-0.00243028,10,-6.32327e-05,-3.06515,0.0144921,4.07118,530.191,-0.07346689,
2,1,0,1,1,32718.4,-0.0706597,-0.0710683,2.07654,17,-0.00242126,10,-0.000147576,-2.68266,0.00698181,8.45053,493.48,-0.0710683,
2,1,0,1,1,32718.4,-0.0682542,-0.0686686,3.22624,17,-0.00240514,10,-0.000221541,-2.4913,0.0144733,4.07647,464.182,-0.0686686,
2,1,0,1,1,32718.4,-0.0658571,-0.066254,4.28682,17,-0.00238247,10,-0.000284019,-2.36786,0.0220425,2.67664,426.538,-0.066254,
2,1,0,1,1,32718.4,-0.06346,-0.0639094,5.28426,17,-0.00235364,10,-0.000337714,-2.27702,0.0289209,2.04005,408.548,-0.0639094,
2,1,0,1,1,32718.5,-0.0610518,-0.0615055,6.24919,17,-0.00231891,10,-0.00038436,-2.20418,0.0367386,1.60594,381.904,-0.0615055,
2,1,0,1,1,32718.5,-0.0586547,-0.0591482,7.12296,17,-0.00227869,10,-0.00042131,-2.14734,0.0454704,1.29755,355.312,-0.0591482,
2,1,0,1,1,32718.5,-0.0562576,-0.0567475,7.95761,17,-0.00223336,10,-0.000451574,-2.09922,0.05377,1.09727,336.992,-0.0567475,
2,1,0,1,1,32718.5,-0.053855,-0.0543032,8.7459,17,-0.00218317,10,-0.000474931,-2.0582,0.0631361,0.934489,315.618,-0.0543032,
2,1,0,1,1,32718.5,-0.0514523,-0.0518791,9.47483,17,-0.00212838,10,-0.000491546,-2.02343,0.072731,0.811209,297.883,-0.05187913,
2,1,0,1,1,32718.5,-0.0490552,-0.0495059,10.1672,17,-0.00206938,10,-0.000503338,-1.9928,0.0824989,0.715161,282.32,-0.0495059,
2,1,0,1,1,32718.5,-0.0466581,-0.0470278,10.8271,17,-0.00200629,10,-0.000509173,-1.96549,0.0938565,0.628619,263.999,-0.0470278,
2,1,0,1,1,32718.5,-0.0442527,-0.0446959,11.4423,17,-0.00193937,10,-0.000511425,-1.94149,0.106621,0.553363,245.834,-0.0446959,
2,1,0,1,1,32718.5,-0.0418556,-0.0422856,12.0075,17,-0.00186894,10,-0.000507745,-1.92055,0.120221,0.490763,229.216,-0.0422856,
2,1,0,1,1,32718.5,-0.0394585,-0.0398319,12.5501,17,-0.00179521,10,-0.000499896,-1.90135,0.132259,0.446094,217.787,-0.0398319,
2,1,0,1,1,32718.5,-0.0370558,-0.0374332,13.0563,17,-0.00171835,10,-0.00048874,-1.88418,0.148148,0.398251,202.269,-0.0374332,
2,1,0,1,1,32718.5,-0.0346532,-0.0350547,13.5259,17,-0.00163854,10,-0.000474146,-1.86883,0.16081,0.366892,193.143,-0.0350547,
2,1,0,1,1,32718.5,-0.0322561,-0.0326137,13.9611,17,-0.00155602,10,-0.000455324,-1.85508,0.179041,0.329533,179.242,-0.0326137,
2,1,0,1,1,32718.5,-0.0298589,-0.0302627,14.3815,17,-0.00147092,10,-0.000435224,-1.84219,0.19815,0.297755,166.71,-0.0302627,
2,1,0,1,1,32718.5,-0.0274535,-0.0278811,14.7726,17,-0.00138339,10,-0.000411875,-1.83054,0.220024,0.268152,154.227,-0.0278811,
2,1,0,1,1,32718.5,-0.0250564,-0.0254623,15.1189,17,-0.00129368,10,-0.000384961,-1.82048,0.238655,0.247219,145.828,-0.0254623,
2,1,0,1,1,32718.6,-0.0226593,-0.0230742,15.4741,17,-0.00120184,10,-0.000357052,-1.8104,0.259178,0.227643,137.153,-0.0230742,
2,1,0,1,1,32718.6,-0.0202511,-0.0206215,15.7943,17,-0.00110799,10,-0.000325703,-1.8015,0.288825,0.204276,125.621,-0.0206215,
2,1,0,1,1,32718.6,-0.017854,-0.0182547,16.0765,17,-0.00101237,10,-0.000293471,-1.79381,0.311738,0.189262,118.622,-0.0182547,
2,1,0,1,1,32718.6,-0.0154569,-0.015855,16.3561,17,-0.000915063,10,-0.000259326,-1.78632,0.339459,0.173806,110.761,-0.015855,
2,1,0,1,1,32718.6,-0.0130598,-0.0134479,16.6053,17,-0.00081614,10,-0.000223306,-1.77975,0.366312,0.161065,104.288,-0.01344786,
2,1,0,1,1,32718.6,-0.0106516,-0.0110418,16.8449,17,-0.00071576,10,-0.000185998,-1.77353,0.40644,0.145163,95.3523,-0.0110418,
2,1,0,1,1,32718.6,-0.00825448,-0.00864952,17.0688,17,-0.000613992,10,-0.000147637,-1.7678,0.442045,0.133471,88.8074,-0.00864952,
2,1,0,1,1,32718.6,-0.00585738,-0.00624239,17.267,17,-0.000510959,10,-0.000107788,-1.76278,0.489736,0.120473,81.1173,-0.00624239,
2,1,0,1,1,32718.6,-0.00345195,-0.00385754,17.4663,17,-0.000406745,10,-6.7377e-05,-1.7578,0.535494,0.110179,74.9701,-0.003857539,
2,1,0,1,1,32718.6,-0.00105485,-0.00143027,17.6277,17,-0.000301437,10,-2.52124e-05,-1.7538, , , ,-0.00143027,
2,1,0,0,1,32718.6,-7.54729e-05,-0.000478022,17.6866,17,-0.000257292,10,-8.45459e-06,-1.75236, , , ,-0.000478022,